timestamp,TimeUS,I,GyrX,GyrY,GyrZ,AccX,AccY,AccZ,EG,EA,T,GH,AH,GHz,AHz
24.97149100,24971491,1,-0.0025544241070747375,-0.001999468309804797,0.0012388202594593167,-0.39462265372276306,-0.2334219068288803,-9.995680809020996,3,1,44.0,0,0,1992,1902
24.97302700,24973027,1,-0.002554423175752163,-0.001999468309804797,0.001238820725120604,-0.39462265372276306,-0.2334219068288803,-9.995680809020996,3,1,44.0,0,0,1992,1902
24.97556600,24975566,1,-0.0025544248055666685,-0.0019994669128209352,0.0012388208415359259,-0.39462265372276306,-0.2334219068288803,-9.995680809020996,3,1,44.0,0,0,1992,1902
24.97802300,24978023,1,-0.0025544229429215193,-0.001999469008296728,0.001238820143043995,-0.39462265372276306,-0.2334219068288803,-9.995680809020996,3,1,44.0,0,0,1992,1902
24.98085800,24980858,1,-0.002554424572736025,-0.001999467145651579,0.0012388209579512477,-0.39462265372276306,-0.2334219068288803,-9.995680809020996,3,1,44.0,0,0,1992,1902
24.98299000,24982990,1,-0.0025544236414134502,-0.0019994687754660845,0.001238820143043995,-0.39462265372276306,-0.2334219068288803,-9.995680809020996,3,1,44.0,0,0,1992,1902
24.98554800,24985548,1,-0.0025544236414134502,-0.001999467611312866,0.0012388209579512477,-0.39462265372276306,-0.2334219068288803,-9.995680809020996,3,1,44.0,0,0,1992,1902
24.98802100,24988021,1,-0.002554424572736025,-0.00199946784414351,0.0012388203758746386,-0.39462265372276306,-0.2334219068288803,-9.995680809020996,3,1,44.0,0,0,1992,1902
24.99052900,24990529,1,-0.0025544229429215193,-0.0019994687754660845,0.0012388203758746386,-0.39462265372276306,-0.2334219068288803,-9.995680809020996,3,1,44.0,0,0,1992,1902
24.99337200,24993372,1,-0.0025544248055666685,-0.0019994669128209352,0.0012388208415359259,-0.39462265372276306,-0.2334219068288803,-9.995680809020996,3,1,44.0,0,0,1992,1902
24.99551900,24995519,1,-0.002554423175752163,-0.001999469008296728,0.001238820026628673,-0.39462265372276306,-0.2334219068288803,-9.995680809020996,3,1,44.0,0,0,1992,1902
24.99805400,24998054,1,-0.0025544241070747375,-0.0019994673784822226,0.0012388210743665695,-0.39462265372276306,-0.2334219068288803,-9.995680809020996,3,1,44.0,0,0,1992,1902
25.00054100,25000541,1,-0.002554424572736025,-0.00199946784414351,0.0012388203758746386,-0.39462265372276306,-0.2334219068288803,-9.995680809020996,3,1,44.0,0,0,1992,1902
25.00302800,25003028,1,-0.002554423175752163,-0.001999468309804797,0.001238820725120604,-0.39462265372276306,-0.2334219068288803,-9.995680809020996,3,1,44.0,0,0,1992,1902
25.00592900,25005929,1,-0.0025544248055666685,-0.001999467145651579,0.001238820725120604,-0.39462265372276306,-0.2334219068288803,-9.995680809020996,3,1,44.0,0,0,1992,1902
25.00803200,25008032,1,-0.0025544229429215193,-0.001999469008296728,0.001238820143043995,-0.39462265372276306,-0.2334219068288803,-9.995680809020996,3,1,44.0,0,0,1992,1902
25.01051700,25010517,1,-0.002554424572736025,-0.001999467145651579,0.0012388209579512477,-0.39462265372276306,-0.2334219068288803,-9.995680809020996,3,1,44.0,0,0,1992,1902
25.01302400,25013024,1,-0.0025544236414134502,-0.0019994687754660845,0.001238820143043995,-0.39462265372276306,-0.2334219068288803,-9.995680809020996,3,1,44.0,0,0,1992,1902
25.01552500,25015525,1,-0.0025544236414134502,-0.001999467611312866,0.0012388209579512477,-0.39462265372276306,-0.2334219068288803,-9.995680809020996,3,1,44.0,0,0,1992,1902
25.01837200,25018372,1,-0.0025544248055666685,-0.001999467145651579,0.001238820725120604,-0.39462265372276306,-0.2334219068288803,-9.995680809020996,3,1,44.0,0,0,1992,1902
25.02051200,25020512,1,-0.0025544229429215193,-0.0019994687754660845,0.0012388203758746386,-0.39462265372276306,-0.2334219068288803,-9.995680809020996,3,1,44.0,0,0,1992,1902
25.02303300,25023033,1,-0.0025544248055666685,-0.0019994669128209352,0.0012388208415359259,-0.39462265372276306,-0.2334219068288803,-9.995680809020996,3,1,44.0,0,0,1992,1902
25.02561000,25025610,1,-0.002554423175752163,-0.001999469008296728,0.001238820026628673,-0.39462265372276306,-0.2334219068288803,-9.995680809020996,3,1,44.0,0,0,1992,1902
25.02802400,25028024,1,-0.0025544241070747375,-0.0019994673784822226,0.0012388210743665695,-0.39462265372276306,-0.2334219068288803,-9.995680809020996,3,1,44.0,0,0,1992,1902
25.03096300,25030963,1,-0.0025544241070747375,-0.001999468309804797,0.0012388202594593167,-0.39462265372276306,-0.2334219068288803,-9.995680809020996,3,1,44.0,0,0,1992,1902
25.03294900,25032949,1,-0.002554423175752163,-0.001999468309804797,0.001238820725120604,-0.39462265372276306,-0.2334219068288803,-9.995680809020996,3,1,44.0,0,0,1992,1902
25.03551500,25035515,1,-0.0025544248055666685,-0.001999467145651579,0.001238820725120604,-0.39462265372276306,-0.2334219068288803,-9.995680809020996,3,1,44.0,0,0,1992,1902
25.03802900,25038029,1,-0.0025544229429215193,-0.001999469008296728,0.001238820143043995,-0.39462265372276306,-0.2334219068288803,-9.995680809020996,3,1,44.0,0,0,1992,1902
25.04052100,25040521,1,-0.002554424572736025,-0.001999467145651579,0.0012388209579512477,-0.39462265372276306,-0.2334219068288803,-9.995680809020996,3,1,44.0,0,0,1992,1902
25.04342200,25043422,1,-0.0025544241070747375,-0.001999468309804797,0.0012388202594593167,-0.39462265372276306,-0.2334219068288803,-9.995680809020996,3,1,44.0,0,0,1992,1902
25.04552800,25045528,1,-0.0025544236414134502,-0.001999467611312866,0.0012388209579512477,-0.39462265372276306,-0.2334219068288803,-9.995680809020996,3,1,44.0,0,0,1992,1902
25.04801700,25048017,1,-0.002554424572736025,-0.00199946784414351,0.0012388203758746386,-0.39462265372276306,-0.2334219068288803,-9.995680809020996,3,1,44.0,0,0,1992,1902
25.05051900,25050519,1,-0.0025544229429215193,-0.0019994687754660845,0.0012388203758746386,-0.39462265372276306,-0.2334219068288803,-9.995680809020996,3,1,44.0,0,0,1992,1902
25.05302600,25053026,1,-0.0025544248055666685,-0.0019994669128209352,0.0012388208415359259,-0.39462265372276306,-0.2334219068288803,-9.995680809020996,3,1,44.0,0,0,1992,1902
25.05588100,25055881,1,-0.002554423175752163,-0.001999469008296728,0.001238820026628673,-0.39462265372276306,-0.2334219068288803,-9.995680809020996,3,1,44.0,0,0,1992,1902
25.05797200,25057972,1,-0.0025544241070747375,-0.0019994673784822226,0.0012388210743665695,-0.39462265372276306,-0.2334219068288803,-9.995680809020996,3,1,44.0,0,0,1992,1902
25.06055100,25060551,1,-0.002554424572736025,-0.00199946784414351,0.0012388203758746386,-0.39462265372276306,-0.2334219068288803,-9.995680809020996,3,1,44.0,0,0,1992,1902
25.06301200,25063012,1,-0.002554423175752163,-0.001999468309804797,0.001238820725120604,-0.39462265372276306,-0.2334219068288803,-9.995680809020996,3,1,44.0,0,0,1992,1902
25.06554200,25065542,1,-0.0025544248055666685,-0.001999467145651579,0.001238820725120604,-0.39462265372276306,-0.2334219068288803,-9.995680809020996,3,1,44.0,0,0,1992,1902
25.06908500,25069085,1,-0.0025544229429215193,-0.001999469008296728,0.001238820143043995,-0.39462265372276306,-0.2334219068288803,-9.995680809020996,3,1,44.0,0,0,1992,1902
25.07052900,25070529,1,-0.002554424572736025,-0.001999467145651579,0.0012388209579512477,-0.39462265372276306,-0.2334219068288803,-9.995680809020996,3,1,44.0,0,0,1992,1902
25.07301200,25073012,1,-0.0025544236414134502,-0.0019994687754660845,0.001238820143043995,-0.39462265372276306,-0.2334219068288803,-9.995680809020996,3,1,44.0,0,0,1992,1902
25.07553800,25075538,1,-0.0025544236414134502,-0.001999467611312866,0.0012388209579512477,-0.39462265372276306,-0.2334219068288803,-9.995680809020996,3,1,44.0,0,0,1992,1902
25.07800600,25078006,1,-0.002554424572736025,-0.00199946784414351,0.0012388203758746386,-0.39462265372276306,-0.2334219068288803,-9.995680809020996,3,1,44.0,0,0,1992,1902
25.08086300,25080863,1,-0.0025544229429215193,-0.0019994687754660845,0.0012388203758746386,-0.39462265372276306,-0.2334219068288803,-9.995680809020996,3,1,44.0,0,0,1992,1902
25.08301400,25083014,1,-0.0025544248055666685,-0.0019994669128209352,0.0012388208415359259,-0.39462265372276306,-0.2334219068288803,-9.995680809020996,3,1,44.0,0,0,1992,1902
25.08557900,25085579,1,-0.0025544236414134502,-0.0019994687754660845,0.001238820143043995,-0.39462265372276306,-0.2334219068288803,-9.995680809020996,3,1,44.0,0,0,1992,1902
25.08801100,25088011,1,-0.0025544241070747375,-0.0019994673784822226,0.0012388210743665695,-0.39462265372276306,-0.2334219068288803,-9.995680809020996,3,1,44.0,0,0,1992,1902
25.09054000,25090540,1,-0.0025544241070747375,-0.001999468309804797,0.0012388202594593167,-0.39462265372276306,-0.2334219068288803,-9.995680809020996,3,1,44.0,0,0,1992,1902
25.09332700,25093327,1,-0.002554423175752163,-0.001999468309804797,0.001238820725120604,-0.39462265372276306,-0.2334219068288803,-9.995680809020996,3,1,44.0,0,0,1992,1902
25.09555400,25095554,1,-0.0025544248055666685,-0.0019994669128209352,0.0012388208415359259,-0.39462265372276306,-0.2334219068288803,-9.995680809020996,3,1,44.0,0,0,1992,1902
25.09802300,25098023,1,-0.0025544229429215193,-0.001999469008296728,0.001238820143043995,-0.39462265372276306,-0.2334219068288803,-9.995680809020996,3,1,44.0,0,0,1992,1902
25.10049700,25100497,1,-0.002554424572736025,-0.001999467145651579,0.0012388209579512477,-0.39462265372276306,-0.2334219068288803,-9.995680809020996,3,1,44.0,0,0,1992,1902
25.10298600,25102986,1,-0.0025544236414134502,-0.0019994687754660845,0.001238820143043995,-0.39462265372276306,-0.2334219068288803,-9.995680809020996,3,1,44.0,0,0,1992,1902
25.10594800,25105948,1,-0.0025544236414134502,-0.001999467611312866,0.0012388209579512477,-0.39462265372276306,-0.2334219068288803,-9.995680809020996,3,1,44.0,0,0,1992,1902
25.10802200,25108022,1,-0.002554424572736025,-0.00199946784414351,0.0012388203758746386,-0.39462265372276306,-0.2334219068288803,-9.995680809020996,3,1,44.0,0,0,1992,1902
25.11051100,25110511,1,-0.0025544229429215193,-0.0019994687754660845,0.0012388203758746386,-0.39462265372276306,-0.2334219068288803,-9.995680809020996,3,1,44.0,0,0,1992,1902
25.11297900,25112979,1,-0.0025544248055666685,-0.0019994669128209352,0.0012388208415359259,-0.39462265372276306,-0.2334219068288803,-9.995680809020996,3,1,44.0,0,0,1992,1902
25.11551600,25115516,1,-0.002554423175752163,-0.001999469008296728,0.001238820026628673,-0.39462265372276306,-0.2334219068288803,-9.995680809020996,3,1,44.0,0,0,1992,1902
25.11836600,25118366,1,-0.0025544241070747375,-0.0019994673784822226,0.0012388210743665695,-0.39462265372276306,-0.2334219068288803,-9.995680809020996,3,1,44.0,0,0,1992,1902
25.12046600,25120466,1,-0.0025544241070747375,-0.001999468309804797,0.0012388202594593167,-0.39462265372276306,-0.2334219068288803,-9.995680809020996,3,1,44.0,0,0,1992,1902
25.12301500,25123015,1,-0.002554423175752163,-0.001999468309804797,0.001238820725120604,-0.39462265372276306,-0.2334219068288803,-9.995680809020996,3,1,44.0,0,0,1992,1902
25.12568100,25125681,1,-0.0025544248055666685,-0.001999467145651579,0.001238820725120604,-0.39462265372276306,-0.2334219068288803,-9.995680809020996,3,1,44.0,0,0,1992,1902
25.12801600,25128016,1,-0.0025544229429215193,-0.001999469008296728,0.001238820143043995,-0.39462265372276306,-0.2334219068288803,-9.995680809020996,3,1,44.0,0,0,1992,1902
25.13091900,25130919,1,-0.002554424572736025,-0.001999467145651579,0.0012388209579512477,-0.39462265372276306,-0.2334219068288803,-9.995680809020996,3,1,44.0,0,0,1992,1902
25.13301900,25133019,1,-0.0025544236414134502,-0.0019994687754660845,0.001238820143043995,-0.39462265372276306,-0.2334219068288803,-9.995680809020996,3,1,44.0,0,0,1992,1902
25.13551200,25135512,1,-0.0025544236414134502,-0.001999467611312866,0.0012388209579512477,-0.39462265372276306,-0.2334219068288803,-9.995680809020996,3,1,44.0,0,0,1992,1902
25.13804300,25138043,1,-0.0025544248055666685,-0.001999467145651579,0.001238820725120604,-0.39462265372276306,-0.2334219068288803,-9.995680809020996,3,1,44.0,0,0,1992,1902
25.14051400,25140514,1,-0.0025544229429215193,-0.0019994687754660845,0.0012388203758746386,-0.39462265372276306,-0.2334219068288803,-9.995680809020996,3,1,44.0,0,0,1992,1902
25.14345700,25143457,1,-0.0025544248055666685,-0.0019994669128209352,0.0012388208415359259,-0.39462265372276306,-0.2334219068288803,-9.995680809020996,3,1,44.0,0,0,1992,1902
25.14549300,25145493,1,-0.002554423175752163,-0.001999469008296728,0.001238820026628673,-0.39462265372276306,-0.2334219068288803,-9.995680809020996,3,1,44.0,0,0,1992,1902
25.14801900,25148019,1,-0.0025544241070747375,-0.0019994673784822226,0.0012388210743665695,-0.39462265372276306,-0.2334219068288803,-9.995680809020996,3,1,44.0,0,0,1992,1902
25.15051500,25150515,1,-0.0025544241070747375,-0.001999468309804797,0.0012388202594593167,-0.39462265372276306,-0.2334219068288803,-9.995680809020996,3,1,44.0,0,0,1992,1902
25.15302400,25153024,1,-0.002554423175752163,-0.001999468309804797,0.001238820725120604,-0.39462265372276306,-0.2334219068288803,-9.995680809020996,3,1,44.0,0,0,1992,1902
25.15596500,25155965,1,-0.0025544248055666685,-0.0019994669128209352,0.0012388208415359259,-0.39462265372276306,-0.2334219068288803,-9.995680809020996,3,1,44.0,0,0,1992,1902
25.15800700,25158007,1,-0.0025544229429215193,-0.001999469008296728,0.001238820143043995,-0.39462265372276306,-0.2334219068288803,-9.995680809020996,3,1,44.0,0,0,1992,1902
25.16052200,25160522,1,-0.002554424572736025,-0.001999467145651579,0.0012388209579512477,-0.39462265372276306,-0.2334219068288803,-9.995680809020996,3,1,44.0,0,0,1992,1902
25.16295800,25162958,1,-0.0025544236414134502,-0.0019994687754660845,0.001238820143043995,-0.39462265372276306,-0.2334219068288803,-9.995680809020996,3,1,44.0,0,0,1992,1902
25.16554500,25165545,1,-0.0025544236414134502,-0.001999467611312866,0.0012388209579512477,-0.39462265372276306,-0.2334219068288803,-9.995680809020996,3,1,44.0,0,0,1992,1902
25.16898200,25168982,1,-0.002554424572736025,-0.00199946784414351,0.0012388203758746386,-0.39462265372276306,-0.2334219068288803,-9.995680809020996,3,1,44.0,0,0,1992,1902
25.17051700,25170517,1,-0.0025544229429215193,-0.0019994687754660845,0.0012388203758746386,-0.39462265372276306,-0.2334219068288803,-9.995680809020996,3,1,44.0,0,0,1992,1902
25.17298600,25172986,1,-0.0025544248055666685,-0.0019994669128209352,0.0012388208415359259,-0.39462265372276306,-0.2334219068288803,-9.995680809020996,3,1,44.0,0,0,1992,1902
25.17553800,25175538,1,-0.002554423175752163,-0.001999469008296728,0.001238820026628673,-0.39462265372276306,-0.2334219068288803,-9.995680809020996,3,1,44.0,0,0,1992,1902
25.17801800,25178018,1,-0.0025544241070747375,-0.0019994673784822226,0.0012388210743665695,-0.39462265372276306,-0.2334219068288803,-9.995680809020996,3,1,44.0,0,0,1992,1902
25.18084600,25180846,1,-0.0025544241070747375,-0.001999468309804797,0.0012388202594593167,-0.39462265372276306,-0.2334219068288803,-9.995680809020996,3,1,44.0,0,0,1992,1902
25.18300900,25183009,1,-0.002554423175752163,-0.001999468309804797,0.001238820725120604,-0.39462265372276306,-0.2334219068288803,-9.995680809020996,3,1,44.0,0,0,1992,1902
25.18554100,25185541,1,-0.0025544248055666685,-0.001999467145651579,0.001238820725120604,-0.39462265372276306,-0.2334219068288803,-9.995680809020996,3,1,44.0,0,0,1992,1902
25.18802100,25188021,1,-0.0025544229429215193,-0.001999469008296728,0.001238820143043995,-0.39462265372276306,-0.2334219068288803,-9.995680809020996,3,1,44.0,0,0,1992,1902
25.19058200,25190582,1,-0.0025544241070747375,-0.0019994673784822226,0.0012388210743665695,-0.39462265372276306,-0.2334219068288803,-9.995680809020996,3,1,44.0,0,0,1992,1902
25.19334000,25193340,1,-0.0025544236414134502,-0.0019994687754660845,0.001238820143043995,-0.39462265372276306,-0.2334219068288803,-9.995680809020996,3,1,44.0,0,0,1992,1902
25.19552500,25195525,1,-0.0025544236414134502,-0.001999467611312866,0.0012388209579512477,-0.39462265372276306,-0.2334219068288803,-9.995680809020996,3,1,44.0,0,0,1992,1902
25.19803400,25198034,1,-0.002554424572736025,-0.00199946784414351,0.0012388203758746386,-0.39462265372276306,-0.2334219068288803,-9.995680809020996,3,1,44.0,0,0,1992,1902
25.20055100,25200551,1,-0.0025544229429215193,-0.001999469008296728,0.001238820143043995,-0.39462265372276306,-0.2334219068288803,-9.995680809020996,3,1,44.0,0,0,1992,1902
25.20301200,25203012,1,-0.0025544248055666685,-0.0019994669128209352,0.0012388208415359259,-0.39462265372276306,-0.2334219068288803,-9.995680809020996,3,1,44.0,0,0,1992,1902
25.20594200,25205942,1,-0.002554423175752163,-0.001999469008296728,0.001238820026628673,-0.39462265372276306,-0.2334219068288803,-9.995680809020996,3,1,44.0,0,0,1992,1902
25.20797200,25207972,1,-0.0025544241070747375,-0.0019994673784822226,0.0012388210743665695,-0.39462265372276306,-0.2334219068288803,-9.995680809020996,3,1,44.0,0,0,1992,1902
25.21053500,25210535,1,-0.0025544241070747375,-0.001999468309804797,0.0012388202594593167,-0.39462265372276306,-0.2334219068288803,-9.995680809020996,3,1,44.0,0,0,1992,1902
25.21301900,25213019,1,-0.002554423175752163,-0.001999468309804797,0.001238820725120604,-0.39462265372276306,-0.2334219068288803,-9.995680809020996,3,1,44.0,0,0,1992,1902
25.21551200,25215512,1,-0.0025544248055666685,-0.001999467145651579,0.001238820725120604,-0.39462265372276306,-0.2334219068288803,-9.995680809020996,3,1,44.0,0,0,1992,1902
25.21835900,25218359,1,-0.002554423175752163,-0.001999469008296728,0.001238820026628673,-0.39462265372276306,-0.2334219068288803,-9.995680809020996,3,1,44.0,0,0,1992,1902
25.22051300,25220513,1,-0.002554424572736025,-0.001999467145651579,0.0012388209579512477,-0.39462265372276306,-0.2334219068288803,-9.995680809020996,3,1,44.0,0,0,1992,1902
25.22301900,25223019,1,-0.0025544236414134502,-0.0019994687754660845,0.001238820143043995,-0.39462265372276306,-0.2334219068288803,-9.995680809020996,3,1,44.0,0,0,1992,1902
25.22566200,25225662,1,-0.0025544236414134502,-0.001999467611312866,0.0012388209579512477,-0.39462265372276306,-0.2334219068288803,-9.995680809020996,3,1,44.0,0,0,1992,1902
25.22804400,25228044,1,-0.0025544248055666685,-0.001999467145651579,0.001238820725120604,-0.39462265372276306,-0.2334219068288803,-9.995680809020996,3,1,44.0,0,0,1992,1902
25.23091400,25230914,1,-0.0025544229429215193,-0.0019994687754660845,0.0012388203758746386,-0.39462265372276306,-0.2334219068288803,-9.995680809020996,3,1,44.0,0,0,1992,1902
25.23304100,25233041,1,-0.0025544248055666685,-0.0019994669128209352,0.0012388208415359259,-0.39462265372276306,-0.2334219068288803,-9.995680809020996,3,1,44.0,0,0,1992,1902
25.23545700,25235457,1,-0.002554423175752163,-0.001999469008296728,0.001238820026628673,-0.39462265372276306,-0.2334219068288803,-9.995680809020996,3,1,44.0,0,0,1992,1902
25.23802400,25238024,1,-0.0025544241070747375,-0.0019994673784822226,0.0012388210743665695,-0.39462265372276306,-0.2334219068288803,-9.995680809020996,3,1,44.0,0,0,1992,1902
25.24051600,25240516,1,-0.0025544241070747375,-0.001999468309804797,0.0012388202594593167,-0.39462265372276306,-0.2334219068288803,-9.995680809020996,3,1,44.0,0,0,1992,1902
25.24331600,25243316,1,-0.002554423175752163,-0.001999468309804797,0.001238820725120604,-0.39462265372276306,-0.2334219068288803,-9.995680809020996,3,1,44.0,0,0,1992,1902
25.24553200,25245532,1,-0.0025544248055666685,-0.001999467145651579,0.001238820725120604,-0.39462265372276306,-0.2334219068288803,-9.995680809020996,3,1,44.0,0,0,1992,1902
25.24802300,25248023,1,-0.0025544229429215193,-0.001999469008296728,0.001238820143043995,-0.39462265372276306,-0.2334219068288803,-9.995680809020996,3,1,44.0,0,0,1992,1902
25.25051000,25250510,1,-0.002554424572736025,-0.001999467145651579,0.0012388209579512477,-0.39462265372276306,-0.2334219068288803,-9.995680809020996,3,1,44.0,0,0,1992,1902
25.25299800,25252998,1,-0.0025544241070747375,-0.001999468309804797,0.0012388202594593167,-0.39462265372276306,-0.2334219068288803,-9.995680809020996,3,1,44.0,0,0,1992,1902
25.25597500,25255975,1,-0.0025544236414134502,-0.001999467611312866,0.0012388209579512477,-0.39462265372276306,-0.2334219068288803,-9.995680809020996,3,1,44.0,0,0,1992,1902
25.25802300,25258023,1,-0.002554424572736025,-0.00199946784414351,0.0012388203758746386,-0.39462265372276306,-0.2334219068288803,-9.995680809020996,3,1,44.0,0,0,1992,1902
25.26050900,25260509,1,-0.0025544229429215193,-0.0019994687754660845,0.0012388203758746386,-0.39462265372276306,-0.2334219068288803,-9.995680809020996,3,1,44.0,0,0,1992,1902
25.26304600,25263046,1,-0.002554424572736025,-0.001999467145651579,0.0012388209579512477,-0.39462265372276306,-0.2334219068288803,-9.995680809020996,3,1,44.0,0,0,1992,1902
25.26553000,25265530,1,-0.002554423175752163,-0.001999469008296728,0.001238820026628673,-0.39462265372276306,-0.2334219068288803,-9.995680809020996,3,1,44.0,0,0,1992,1902
25.26900100,25269001,1,-0.0025544241070747375,-0.0019994673784822226,0.0012388210743665695,-0.39462265372276306,-0.2334219068288803,-9.995680809020996,3,1,44.0,0,0,1992,1902
25.27045500,25270455,1,-0.0025544241070747375,-0.001999468309804797,0.0012388202594593167,-0.39462265372276306,-0.2334219068288803,-9.995680809020996,3,1,44.0,0,0,1992,1902
25.27300500,25273005,1,-0.002554423175752163,-0.001999468309804797,0.001238820725120604,-0.39462265372276306,-0.2334219068288803,-9.995680809020996,3,1,44.0,0,0,1992,1902
25.27552500,25275525,1,-0.0025544248055666685,-0.001999467145651579,0.001238820725120604,-0.39462265372276306,-0.2334219068288803,-9.995680809020996,3,1,44.0,0,0,1992,1902
25.27802400,25278024,1,-0.0025544229429215193,-0.001999469008296728,0.001238820143043995,-0.39462265372276306,-0.2334219068288803,-9.995680809020996,3,1,44.0,0,0,1992,1902
25.28092900,25280929,1,-0.0025544241070747375,-0.0019994673784822226,0.0012388210743665695,-0.39462265372276306,-0.2334219068288803,-9.995680809020996,3,1,44.0,0,0,1992,1902
25.28302100,25283021,1,-0.0025544236414134502,-0.0019994687754660845,0.001238820143043995,-0.39462265372276306,-0.2334219068288803,-9.995680809020996,3,1,44.0,0,0,1992,1902
25.28553700,25285537,1,-0.0025544236414134502,-0.001999467611312866,0.0012388209579512477,-0.39462265372276306,-0.2334219068288803,-9.995680809020996,3,1,44.0,0,0,1992,1902
25.28801000,25288010,1,-0.002554424572736025,-0.00199946784414351,0.0012388203758746386,-0.39462265372276306,-0.2334219068288803,-9.995680809020996,3,1,44.0,0,0,1992,1902
25.29052700,25290527,1,-0.0025544229429215193,-0.0019994687754660845,0.0012388203758746386,-0.39462265372276306,-0.2334219068288803,-9.995680809020996,3,1,44.0,0,0,1992,1902
25.29335600,25293356,1,-0.0025544248055666685,-0.0019994669128209352,0.0012388208415359259,-0.39462265372276306,-0.2334219068288803,-9.995680809020996,3,1,44.0,0,0,1992,1902
25.29551500,25295515,1,-0.002554423175752163,-0.001999469008296728,0.001238820026628673,-0.39462265372276306,-0.2334219068288803,-9.995680809020996,3,1,44.0,0,0,1992,1902
25.29799800,25297998,1,-0.0025544241070747375,-0.0019994673784822226,0.0012388210743665695,-0.39462265372276306,-0.2334219068288803,-9.995680809020996,3,1,44.0,0,0,1992,1902
25.30052800,25300528,1,-0.0025544241070747375,-0.001999468309804797,0.0012388202594593167,-0.39462265372276306,-0.2334219068288803,-9.995680809020996,3,1,44.0,0,0,1992,1902
25.30301900,25303019,1,-0.002554423175752163,-0.001999468309804797,0.001238820725120604,-0.39462265372276306,-0.2334219068288803,-9.995680809020996,3,1,44.0,0,0,1992,1902
25.30585700,25305857,1,-0.0025544248055666685,-0.001999467145651579,0.001238820725120604,-0.39462265372276306,-0.2334219068288803,-9.995680809020996,3,1,44.0,0,0,1992,1902
25.30801300,25308013,1,-0.0025544229429215193,-0.001999469008296728,0.001238820143043995,-0.39462265372276306,-0.2334219068288803,-9.995680809020996,3,1,44.0,0,0,1992,1902
25.31051700,25310517,1,-0.002554424572736025,-0.001999467145651579,0.0012388209579512477,-0.39462265372276306,-0.2334219068288803,-9.995680809020996,3,1,44.0,0,0,1992,1902
25.31301300,25313013,1,-0.0025544236414134502,-0.0019994687754660845,0.001238820143043995,-0.39462265372276306,-0.2334219068288803,-9.995680809020996,3,1,44.0,0,0,1992,1902
25.31555900,25315559,1,-0.002554423175752163,-0.001999468309804797,0.001238820725120604,-0.39462265372276306,-0.2334219068288803,-9.995680809020996,3,1,44.0,0,0,1992,1902
25.31834500,25318345,1,-0.002554424572736025,-0.00199946784414351,0.0012388203758746386,-0.39462265372276306,-0.2334219068288803,-9.995680809020996,3,1,44.0,0,0,1992,1902
25.32051800,25320518,1,-0.0025544229429215193,-0.0019994687754660845,0.0012388203758746386,-0.39462265372276306,-0.2334219068288803,-9.995680809020996,3,1,44.0,0,0,1992,1902
25.32302600,25323026,1,-0.0025544248055666685,-0.0019994669128209352,0.0012388208415359259,-0.39462265372276306,-0.2334219068288803,-9.995680809020996,3,1,44.0,0,0,1992,1902
25.32566100,25325661,1,-0.002554423175752163,-0.001999469008296728,0.001238820026628673,-0.39462265372276306,-0.2334219068288803,-9.995680809020996,3,1,44.0,0,0,1992,1902
25.32802600,25328026,1,-0.0025544241070747375,-0.0019994673784822226,0.0012388210743665695,-0.39462265372276306,-0.2334219068288803,-9.995680809020996,3,1,44.0,0,0,1992,1902
25.33091800,25330918,1,-0.0025544241070747375,-0.001999468309804797,0.0012388202594593167,-0.39462265372276306,-0.2334219068288803,-9.995680809020996,3,1,44.0,0,0,1992,1902
25.33305100,25333051,1,-0.0025544229429215193,-0.0019994687754660845,0.0012388203758746386,-0.39462265372276306,-0.2334219068288803,-9.995680809020996,3,1,44.0,0,0,1992,1902
25.33551200,25335512,1,-0.0025544248055666685,-0.001999467145651579,0.001238820725120604,-0.39462265372276306,-0.2334219068288803,-9.995680809020996,3,1,44.0,0,0,1992,1902
25.33802300,25338023,1,-0.0025544229429215193,-0.001999469008296728,0.001238820143043995,-0.39462265372276306,-0.2334219068288803,-9.995680809020996,3,1,44.0,0,0,1992,1902
25.34051300,25340513,1,-0.002554424572736025,-0.001999467145651579,0.0012388209579512477,-0.39462265372276306,-0.2334219068288803,-9.995680809020996,3,1,44.0,0,0,1992,1902
25.34331000,25343310,1,-0.0025544236414134502,-0.0019994687754660845,0.001238820143043995,-0.39462265372276306,-0.2334219068288803,-9.995680809020996,3,1,44.0,0,0,1992,1902
25.34554700,25345547,1,-0.0025544236414134502,-0.001999467611312866,0.0012388209579512477,-0.39462265372276306,-0.2334219068288803,-9.995680809020996,3,1,44.0,0,0,1992,1902
25.34801800,25348018,1,-0.002554424572736025,-0.00199946784414351,0.0012388203758746386,-0.39462265372276306,-0.2334219068288803,-9.995680809020996,3,1,44.0,0,0,1992,1902
25.35045400,25350454,1,-0.0025544229429215193,-0.0019994687754660845,0.0012388203758746386,-0.39462265372276306,-0.2334219068288803,-9.995680809020996,3,1,44.0,0,0,1992,1902
25.35301700,25353017,1,-0.0025544248055666685,-0.0019994669128209352,0.0012388208415359259,-0.39462265372276306,-0.2334219068288803,-9.995680809020996,3,1,44.0,0,0,1992,1902
25.35587700,25355877,1,-0.002554423175752163,-0.001999469008296728,0.001238820026628673,-0.39462265372276306,-0.2334219068288803,-9.995680809020996,3,1,44.0,0,0,1992,1902
25.35802000,25358020,1,-0.0025544241070747375,-0.0019994673784822226,0.0012388210743665695,-0.39462265372276306,-0.2334219068288803,-9.995680809020996,3,1,44.0,0,0,1992,1902
25.36054800,25360548,1,-0.002554424572736025,-0.00199946784414351,0.0012388203758746386,-0.39462265372276306,-0.2334219068288803,-9.995680809020996,3,1,44.0,0,0,1992,1902
25.36302300,25363023,1,-0.002554423175752163,-0.001999468309804797,0.001238820725120604,-0.39462265372276306,-0.2334219068288803,-9.995680809020996,3,1,44.0,0,0,1992,1902
25.36553000,25365530,1,-0.0025544248055666685,-0.001999467145651579,0.001238820725120604,-0.39462265372276306,-0.2334219068288803,-9.995680809020996,3,1,44.0,0,0,1992,1902
25.36899200,25368992,1,-0.0025544229429215193,-0.001999469008296728,0.001238820143043995,-0.39462265372276306,-0.2334219068288803,-9.995680809020996,3,1,44.0,0,0,1992,1902
25.37050900,25370509,1,-0.002554424572736025,-0.001999467145651579,0.0012388209579512477,-0.39462265372276306,-0.2334219068288803,-9.995680809020996,3,1,44.0,0,0,1992,1902
25.37302300,25373023,1,-0.0025544236414134502,-0.0019994687754660845,0.001238820143043995,-0.39462265372276306,-0.2334219068288803,-9.995680809020996,3,1,44.0,0,0,1992,1902
25.37571000,25375710,1,-0.0025544236414134502,-0.001999467611312866,0.0012388209579512477,-0.39462265372276306,-0.2334219068288803,-9.995680809020996,3,1,44.0,0,0,1992,1902
25.37826000,25378260,1,-0.0025544248055666685,-0.001999467145651579,0.001238820725120604,-0.39462265372276306,-0.2334219068288803,-9.995680809020996,3,1,44.0,0,0,1992,1902
25.38099500,25380995,1,-0.0025544229429215193,-0.0019994687754660845,0.0012388203758746386,-0.39462265372276306,-0.2334219068288803,-9.995680809020996,3,1,44.0,0,0,1992,1902
25.38303500,25383035,1,-0.0025544248055666685,-0.0019994669128209352,0.0012388208415359259,-0.39462265372276306,-0.2334219068288803,-9.995680809020996,3,1,44.0,0,0,1992,1902
25.38553300,25385533,1,-0.002554423175752163,-0.001999469008296728,0.001238820026628673,-0.39462265372276306,-0.2334219068288803,-9.995680809020996,3,1,44.0,0,0,1992,1902
25.38801000,25388010,1,-0.0025544241070747375,-0.0019994673784822226,0.0012388210743665695,-0.39462265372276306,-0.2334219068288803,-9.995680809020996,3,1,44.0,0,0,1992,1902
25.39054700,25390547,1,-0.0025544241070747375,-0.001999468309804797,0.0012388202594593167,-0.39462265372276306,-0.2334219068288803,-9.995680809020996,3,1,44.0,0,0,1993,1902
25.39330900,25393309,1,-0.0025512578431516886,-0.0019969940185546875,0.0012372860219329596,-0.39462265372276306,-0.2334219068288803,-9.995680809020996,3,1,44.0,0,0,1993,1902
25.39552100,25395521,1,-0.002551574492827058,-0.0019972471054643393,0.001237441785633564,-0.39462265372276306,-0.2334219068288803,-9.995680809020996,3,1,44.0,0,0,1993,1902
25.39805800,25398058,1,-0.0025520012713968754,-0.0019975847098976374,0.0012376501690596342,-0.39462265372276306,-0.2334219068288803,-9.995680809020996,3,1,44.0,0,0,1993,1902
25.40052000,25400520,1,-0.0025524678640067577,-0.0019979458302259445,0.001237874967046082,-0.39462265372276306,-0.2334219068288803,-9.995680809020996,3,1,44.0,0,0,1993,1902
25.40300900,25403009,1,-0.00255292234942317,-0.0019982936792075634,0.001238092896528542,-0.39462265372276306,-0.2334219068288803,-9.995680809020996,3,1,44.0,0,0,1993,1902
25.40594700,25405947,1,-0.002553332131356001,-0.0019986049737781286,0.0012382888235151768,-0.39462265372276306,-0.2334219068288803,-9.995680809020996,3,1,44.0,0,0,1993,1902
25.40801100,25408011,1,-0.0025536781176924706,-0.0019988706335425377,0.0012384557630866766,-0.39462265372276306,-0.2334219068288803,-9.995680809020996,3,1,44.0,0,0,1993,1902
25.41054300,25410543,1,-0.0025539053604006767,-0.0019990457221865654,0.0012385658919811249,-0.39462265372276306,-0.2334219068288803,-9.995680809020996,3,1,44.0,0,0,1993,1902
25.41302700,25413027,1,-0.00255416939035058,-0.0019992466550320387,0.0012386934831738472,-0.39462265372276306,-0.2334219068288803,-9.995680809020996,3,1,44.0,0,0,1993,1902
25.41552000,25415520,1,-0.0025543244555592537,-0.001999365631490946,0.0012387690367177129,-0.39462265372276306,-0.2334219068288803,-9.995680809020996,3,1,44.0,0,0,1993,1902
25.41834800,25418348,1,-0.0025544294621795416,-0.001999446889385581,0.0012388196773827076,-0.39462265372276306,-0.2334219068288803,-9.995680809020996,3,1,44.0,0,0,1993,1902
25.42054500,25420545,1,-0.0025544927921146154,-0.001999498112127185,0.0012388501781970263,-0.39462265372276306,-0.2334219068288803,-9.995680809020996,3,1,44.0,0,0,1993,1902
25.42303000,25423030,1,-0.0025545265525579453,-0.0019995258189737797,0.0012388656614348292,-0.39462265372276306,-0.2334219068288803,-9.995680809020996,3,1,44.0,0,0,1993,1902
25.42561100,25425611,1,-0.0025545384269207716,-0.001999535597860813,0.001238870550878346,-0.39462265372276306,-0.2334219068288803,-9.995680809020996,3,1,44.0,0,0,1993,1902
25.42805100,25428051,1,-0.002554537495598197,-0.0019995360635221004,0.0012388688046485186,-0.39462265372276306,-0.2334219068288803,-9.995680809020996,3,1,44.0,0,0,1993,1902
25.43091700,25430917,1,-0.002554522827267647,-0.0019995293114334345,0.0012388608884066343,-0.39462265372276306,-0.2334219068288803,-9.995680809020996,3,1,44.0,0,0,1993,1902
25.43302000,25433020,1,-0.0025545028038322926,-0.001999516040086746,0.0012388513423502445,-0.39462265372276306,-0.2334219068288803,-9.995680809020996,3,1,44.0,0,0,1993,1902
25.43553300,25435533,1,-0.00255448161624372,-0.001999499974772334,0.0012388412142172456,-0.39462265372276306,-0.2334219068288803,-9.995680809020996,3,1,44.0,0,0,1993,1902
25.43804700,25438047,1,-0.0025544650852680206,-0.0019994869362562895,0.0012388338800519705,-0.39462265372276306,-0.2334219068288803,-9.995680809020996,3,1,44.0,0,0,1993,1902
25.44051700,25440517,1,-0.0025544436648488045,-0.001999469241127372,0.001238824101164937,-0.39462265372276306,-0.2334219068288803,-9.995680809020996,3,1,44.0,0,0,1993,1902
25.44335600,25443356,1,-0.002554429927840829,-0.001999457599595189,0.00123881665058434,-0.39462265372276306,-0.2334219068288803,-9.995680809020996,3,1,44.0,0,0,1993,1902
25.44554700,25445547,1,-0.0025544187519699335,-0.0019994492176920176,0.0012388104805722833,-0.39462265372276306,-0.2334219068288803,-9.995680809020996,3,1,44.0,0,0,1993,1902
25.44801400,25448014,1,-0.0025544087402522564,-0.001999443396925926,0.001238805940374732,-0.39462265372276306,-0.2334219068288803,-9.995680809020996,3,1,44.0,0,0,1993,1902
25.45051800,25450518,1,-0.002554400824010372,-0.001999438274651766,0.0012388031464070082,-0.39462265372276306,-0.2334219068288803,-9.995680809020996,3,1,44.0,0,0,1993,1902
25.45301800,25453018,1,-0.002554395468905568,-0.001999434782192111,0.001238801865838468,-0.39462265372276306,-0.2334219068288803,-9.995680809020996,3,1,44.0,0,0,1993,1902
25.45585800,25455858,1,-0.0025543926749378443,-0.001999432686716318,0.0012388009345158935,-0.39462265372276306,-0.2334219068288803,-9.995680809020996,3,1,44.0,0,0,1993,1902
25.45802700,25458027,1,-0.0025543905794620514,-0.0019994296599179506,0.0012388016330078244,-0.39462265372276306,-0.2334219068288803,-9.995680809020996,3,1,44.0,0,0,1993,1902
25.46051400,25460514,1,-0.002554389415308833,-0.001999430824071169,0.0012388017494231462,-0.39462265372276306,-0.2334219068288803,-9.995680809020996,3,1,44.0,0,0,1993,1902
25.46301700,25463017,1,-0.002554387552663684,-0.0019994315225631,0.0012388017494231462,-0.39462265372276306,-0.2334219068288803,-9.995680809020996,3,1,44.0,0,0,1993,1902
25.46556200,25465562,1,-0.0025543870870023966,-0.0019994315225631,0.0012388017494231462,-0.39462265372276306,-0.2334219068288803,-9.995680809020996,3,1,44.0,0,0,1993,1902
25.46898800,25468988,1,-0.002554388716816902,-0.0019994315225631,0.0012388017494231462,-0.39462265372276306,-0.2334219068288803,-9.995680809020996,3,1,44.0,0,0,1993,1902
25.47051100,25470511,1,-0.0025543870870023966,-0.0019994315225631,0.0012388017494231462,-0.39462265372276306,-0.2334219068288803,-9.995680809020996,3,1,44.0,0,0,1993,1902
25.47302400,25473024,1,-0.002554388716816902,-0.0019994315225631,0.0012388017494231462,-0.39462265372276306,-0.2334219068288803,-9.995680809020996,3,1,44.0,0,0,1993,1902
25.47551500,25475515,1,-0.0025543870870023966,-0.0019994315225631,0.0012388017494231462,-0.39462265372276306,-0.2334219068288803,-9.995680809020996,3,1,44.0,0,0,1993,1902
25.47801700,25478017,1,-0.002554388251155615,-0.0019994315225631,0.0012388017494231462,-0.39462265372276306,-0.2334219068288803,-9.995680809020996,3,1,44.0,0,0,1993,1902
25.48090400,25480904,1,-0.002554388018324971,-0.0019994315225631,0.0012388017494231462,-0.39462265372276306,-0.2334219068288803,-9.995680809020996,3,1,44.0,0,0,1993,1902
25.48305300,25483053,1,-0.0025543870870023966,-0.0019994315225631,0.0012388017494231462,-0.39462265372276306,-0.2334219068288803,-9.995680809020996,3,1,44.0,0,0,1993,1902
25.48554100,25485541,1,-0.002554388949647546,-0.0019994315225631,0.0012388017494231462,-0.39462265372276306,-0.2334219068288803,-9.995680809020996,3,1,44.0,0,0,1993,1902
25.48802800,25488028,1,-0.002554386854171753,-0.0019994315225631,0.0012388017494231462,-0.39462265372276306,-0.2334219068288803,-9.995680809020996,3,1,44.0,0,0,1993,1902
25.49054000,25490540,1,-0.0025543884839862585,-0.0019994315225631,0.0012388017494231462,-0.39462265372276306,-0.2334219068288803,-9.995680809020996,3,1,44.0,0,0,1993,1902
25.49335900,25493359,1,-0.002554387552663684,-0.0019994315225631,0.0012388017494231462,-0.39462265372276306,-0.2334219068288803,-9.995680809020996,3,1,44.0,0,0,1993,1902
25.49551700,25495517,1,-0.002554387552663684,-0.0019994315225631,0.0012388017494231462,-0.39462265372276306,-0.2334219068288803,-9.995680809020996,3,1,44.0,0,0,1993,1902
25.49803900,25498039,1,-0.002554388716816902,-0.0019994315225631,0.0012388017494231462,-0.39462265372276306,-0.2334219068288803,-9.995680809020996,3,1,44.0,0,0,1993,1902
25.50052700,25500527,1,-0.002554386854171753,-0.0019994315225631,0.0012388017494231462,-0.39462265372276306,-0.2334219068288803,-9.995680809020996,3,1,44.0,0,0,1993,1902
25.50302400,25503024,1,-0.002554388716816902,-0.0019994315225631,0.0012388017494231462,-0.39462265372276306,-0.2334219068288803,-9.995680809020996,3,1,44.0,0,0,1993,1902
25.50593800,25505938,1,-0.0025543870870023966,-0.0019994315225631,0.0012388017494231462,-0.39462265372276306,-0.2334219068288803,-9.995680809020996,3,1,44.0,0,0,1993,1902
25.50800700,25508007,1,-0.002554388251155615,-0.0019994315225631,0.0012388017494231462,-0.39462265372276306,-0.2334219068288803,-9.995680809020996,3,1,44.0,0,0,1993,1902
25.51055600,25510556,1,-0.002554388716816902,-0.0019994315225631,0.0012388017494231462,-0.39462265372276306,-0.2334219068288803,-9.995680809020996,3,1,44.0,0,0,1993,1902
25.51301400,25513014,1,-0.0025543870870023966,-0.0019994315225631,0.0012388017494231462,-0.39462265372276306,-0.2334219068288803,-9.995680809020996,3,1,44.0,0,0,1993,1902
25.51552000,25515520,1,-0.002554388949647546,-0.0019994315225631,0.0012388017494231462,-0.39462265372276306,-0.2334219068288803,-9.995680809020996,3,1,44.0,0,0,1993,1902
25.51833400,25518334,1,-0.002554386854171753,-0.0019994315225631,0.0012388017494231462,-0.39462265372276306,-0.2334219068288803,-9.995680809020996,3,1,44.0,0,0,1993,1902
25.52052300,25520523,1,-0.0025543884839862585,-0.0019994315225631,0.0012388017494231462,-0.39462265372276306,-0.2334219068288803,-9.995680809020996,3,1,44.0,0,0,1993,1902
25.52301300,25523013,1,-0.002554387552663684,-0.0019994315225631,0.0012388017494231462,-0.39462265372276306,-0.2334219068288803,-9.995680809020996,3,1,44.0,0,0,1993,1902
25.52562200,25525622,1,-0.002554387552663684,-0.0019994315225631,0.0012388017494231462,-0.39462265372276306,-0.2334219068288803,-9.995680809020996,3,1,44.0,0,0,1993,1902
25.52800100,25528001,1,-0.002554388949647546,-0.0019994315225631,0.0012388017494231462,-0.39462265372276306,-0.2334219068288803,-9.995680809020996,3,1,44.0,0,0,1993,1902
25.53092100,25530921,1,-0.0025543870870023966,-0.0019994315225631,0.0012388017494231462,-0.39462265372276306,-0.2334219068288803,-9.995680809020996,3,1,44.0,0,0,1993,1902
25.53301300,25533013,1,-0.002554388716816902,-0.0019994315225631,0.0012388017494231462,-0.39462265372276306,-0.2334219068288803,-9.995680809020996,3,1,44.0,0,0,1993,1902
25.53547500,25535475,1,-0.0025543870870023966,-0.0019994315225631,0.0012388017494231462,-0.39462265372276306,-0.2334219068288803,-9.995680809020996,3,1,44.0,0,0,1993,1902
25.53801000,25538010,1,-0.002554388251155615,-0.0019994315225631,0.0012388017494231462,-0.39462265372276306,-0.2334219068288803,-9.995680809020996,3,1,44.0,0,0,1993,1902
25.54054400,25540544,1,-0.002554388018324971,-0.0019994315225631,0.0012388017494231462,-0.39462265372276306,-0.2334219068288803,-9.995680809020996,3,1,44.0,0,0,1993,1902
25.54330100,25543301,1,-0.0025543870870023966,-0.0019994315225631,0.0012388017494231462,-0.39462265372276306,-0.2334219068288803,-9.995680809020996,3,1,44.0,0,0,1993,1902
25.54554800,25545548,1,-0.002554388949647546,-0.0019994315225631,0.0012388017494231462,-0.39462265372276306,-0.2334219068288803,-9.995680809020996,3,1,44.0,0,0,1993,1902
25.54802500,25548025,1,-0.002554386854171753,-0.0019994315225631,0.0012388017494231462,-0.39462265372276306,-0.2334219068288803,-9.995680809020996,3,1,44.0,0,0,1993,1902
25.55048300,25550483,1,-0.0025543884839862585,-0.0019994315225631,0.0012388017494231462,-0.39462265372276306,-0.2334219068288803,-9.995680809020996,3,1,44.0,0,0,1993,1902
25.55302500,25553025,1,-0.002554387552663684,-0.0019994315225631,0.0012388017494231462,-0.39462265372276306,-0.2334219068288803,-9.995680809020996,3,1,44.0,0,0,1993,1902
25.55586300,25555863,1,-0.002554387552663684,-0.0019994315225631,0.0012388017494231462,-0.39462265372276306,-0.2334219068288803,-9.995680809020996,3,1,44.0,0,0,1993,1902
25.55795400,25557954,1,-0.002554388716816902,-0.0019994315225631,0.0012388017494231462,-0.39462265372276306,-0.2334219068288803,-9.995680809020996,3,1,44.0,0,0,1993,1902
25.56050500,25560505,1,-0.0025543870870023966,-0.0019994315225631,0.0012388017494231462,-0.39462265372276306,-0.2334219068288803,-9.995680809020996,3,1,44.0,0,0,1993,1902
25.56301900,25563019,1,-0.002554388716816902,-0.0019994315225631,0.0012388017494231462,-0.39462265372276306,-0.2334219068288803,-9.995680809020996,3,1,44.0,0,0,1993,1902
25.56553400,25565534,1,-0.0025543870870023966,-0.0019994315225631,0.0012388017494231462,-0.39462265372276306,-0.2334219068288803,-9.995680809020996,3,1,44.0,0,0,1993,1902
25.56898800,25568988,1,-0.002554387552663684,-0.0019994315225631,0.0012388017494231462,-0.39462265372276306,-0.2334219068288803,-9.995680809020996,3,1,44.0,0,0,1993,1902
25.57052200,25570522,1,-0.002554388018324971,-0.0019994315225631,0.0012388017494231462,-0.39462265372276306,-0.2334219068288803,-9.995680809020996,3,1,44.0,0,0,1993,1902
25.57301800,25573018,1,-0.0025543870870023966,-0.0019994315225631,0.0012388017494231462,-0.39462265372276306,-0.2334219068288803,-9.995680809020996,3,1,44.0,0,0,1993,1902
25.57552100,25575521,1,-0.002554388949647546,-0.0019994315225631,0.0012388017494231462,-0.39462265372276306,-0.2334219068288803,-9.995680809020996,3,1,44.0,0,0,1993,1902
25.57801200,25578012,1,-0.002554386854171753,-0.0019994315225631,0.0012388017494231462,-0.39462265372276306,-0.2334219068288803,-9.995680809020996,3,1,44.0,0,0,1993,1902
25.58091200,25580912,1,-0.0025543884839862585,-0.0019994315225631,0.0012388017494231462,-0.39462265372276306,-0.2334219068288803,-9.995680809020996,3,1,44.0,0,0,1993,1902
25.58301600,25583016,1,-0.002554387552663684,-0.0019994315225631,0.0012388017494231462,-0.39462265372276306,-0.2334219068288803,-9.995680809020996,3,1,44.0,0,0,1993,1902
25.58558100,25585581,1,-0.0025543870870023966,-0.0019994315225631,0.0012388017494231462,-0.39462265372276306,-0.2334219068288803,-9.995680809020996,3,1,44.0,0,0,1993,1902
25.58801800,25588018,1,-0.002554388716816902,-0.0019994315225631,0.0012388017494231462,-0.39462265372276306,-0.2334219068288803,-9.995680809020996,3,1,44.0,0,0,1993,1902
25.59053600,25590536,1,-0.0025543870870023966,-0.0019994315225631,0.0012388017494231462,-0.39462265372276306,-0.2334219068288803,-9.995680809020996,3,1,44.0,0,0,1993,1902
25.59340900,25593409,1,-0.002554388716816902,-0.0019994315225631,0.0012388017494231462,-0.39462265372276306,-0.2334219068288803,-9.995680809020996,3,1,44.0,0,0,1993,1902
25.59552200,25595522,1,-0.0025543870870023966,-0.0019994315225631,0.0012388017494231462,-0.39462265372276306,-0.2334219068288803,-9.995680809020996,3,1,44.0,0,0,1993,1902
25.59804500,25598045,1,-0.002554388251155615,-0.0019994315225631,0.0012388017494231462,-0.39462265372276306,-0.2334219068288803,-9.995680809020996,3,1,44.0,0,0,1993,1902
25.60051100,25600511,1,-0.002554388018324971,-0.0019994315225631,0.0012388017494231462,-0.39462265372276306,-0.2334219068288803,-9.995680809020996,3,1,44.0,0,0,1993,1902
25.60300600,25603006,1,-0.0025543870870023966,-0.0019994315225631,0.0012388017494231462,-0.39462265372276306,-0.2334219068288803,-9.995680809020996,3,1,44.0,0,0,1993,1902
25.60594500,25605945,1,-0.002554388949647546,-0.0019994315225631,0.0012388017494231462,-0.39462265372276306,-0.2334219068288803,-9.995680809020996,3,1,44.0,0,0,1993,1902
25.60801600,25608016,1,-0.002554386854171753,-0.0019994315225631,0.0012388017494231462,-0.39462265372276306,-0.2334219068288803,-9.995680809020996,3,1,44.0,0,0,1993,1902
25.61053000,25610530,1,-0.0025543884839862585,-0.0019994315225631,0.0012388017494231462,-0.39462265372276306,-0.2334219068288803,-9.995680809020996,3,1,44.0,0,0,1993,1902
25.61304100,25613041,1,-0.002554388018324971,-0.0019994315225631,0.0012388017494231462,-0.39462265372276306,-0.2334219068288803,-9.995680809020996,3,1,44.0,0,0,1993,1902
25.61553300,25615533,1,-0.002554387552663684,-0.0019994315225631,0.0012388017494231462,-0.39462265372276306,-0.2334219068288803,-9.995680809020996,3,1,44.0,0,0,1993,1902
25.61836500,25618365,1,-0.002554388716816902,-0.0019994315225631,0.0012388017494231462,-0.39462265372276306,-0.2334219068288803,-9.995680809020996,3,1,44.0,0,0,1993,1902
25.62045700,25620457,1,-0.0025543870870023966,-0.0019994315225631,0.0012388017494231462,-0.39462265372276306,-0.2334219068288803,-9.995680809020996,3,1,44.0,0,0,1993,1902
25.62301000,25623010,1,-0.002554388716816902,-0.0019994315225631,0.0012388017494231462,-0.39462265372276306,-0.2334219068288803,-9.995680809020996,3,1,44.0,0,0,1993,1902
25.62570700,25625707,1,-0.0025543870870023966,-0.0019994315225631,0.0012388017494231462,-0.39462265372276306,-0.2334219068288803,-9.995680809020996,3,1,44.0,0,0,1993,1902
25.62801600,25628016,1,-0.002554388251155615,-0.0019994315225631,0.0012388017494231462,-0.39462265372276306,-0.2334219068288803,-9.995680809020996,3,1,44.0,0,0,1993,1902
25.63092200,25630922,1,-0.002554388716816902,-0.0019994315225631,0.0012388017494231462,-0.39462265372276306,-0.2334219068288803,-9.995680809020996,3,1,44.0,0,0,1993,1902
25.63302200,25633022,1,-0.0025543870870023966,-0.0019994315225631,0.0012388017494231462,-0.39462265372276306,-0.2334219068288803,-9.995680809020996,3,1,44.0,0,0,1993,1902
25.63552000,25635520,1,-0.002554388949647546,-0.0019994315225631,0.0012388017494231462,-0.39462265372276306,-0.2334219068288803,-9.995680809020996,3,1,44.0,0,0,1993,1902
25.63801900,25638019,1,-0.002554386854171753,-0.0019994315225631,0.0012388017494231462,-0.39462265372276306,-0.2334219068288803,-9.995680809020996,3,1,44.0,0,0,1993,1902
25.64052500,25640525,1,-0.0025543884839862585,-0.0019994315225631,0.0012388017494231462,-0.39462265372276306,-0.2334219068288803,-9.995680809020996,3,1,44.0,0,0,1993,1902
25.64337400,25643374,1,-0.002554387552663684,-0.0019994315225631,0.0012388017494231462,-0.39462265372276306,-0.2334219068288803,-9.995680809020996,3,1,44.0,0,0,1993,1902
25.64555400,25645554,1,-0.002554387552663684,-0.0019994315225631,0.0012388017494231462,-0.39462265372276306,-0.2334219068288803,-9.995680809020996,3,1,44.0,0,0,1993,1902
25.64800200,25648002,1,-0.002554388949647546,-0.0019994315225631,0.0012388017494231462,-0.39462265372276306,-0.2334219068288803,-9.995680809020996,3,1,44.0,0,0,1993,1902
25.65052500,25650525,1,-0.0025543870870023966,-0.0019994315225631,0.0012388017494231462,-0.39462265372276306,-0.2334219068288803,-9.995680809020996,3,1,44.0,0,0,1993,1902
25.65305400,25653054,1,-0.002554388716816902,-0.0019994315225631,0.0012388017494231462,-0.39462265372276306,-0.2334219068288803,-9.995680809020996,3,1,44.0,0,0,1993,1712
25.65588400,25655884,1,-0.0025543870870023966,-0.0019994315225631,0.0012388017494231462,-0.3670264780521393,-0.2297910749912262,-9.992348670959473,3,1,44.0,0,0,1993,1712
25.65803800,25658038,1,-0.002554388251155615,-0.0019994315225631,0.0012388017494231462,-0.34354037046432495,-0.22861191630363464,-9.986052513122559,3,1,44.0,0,0,1993,1712
25.66056500,25660565,1,-0.002554388018324971,-0.0019994315225631,0.0012388017494231462,-0.3312757611274719,-0.22859326004981995,-9.98157024383545,3,1,44.0,0,0,1993,1712
25.66304900,25663049,1,-0.0025543870870023966,-0.0019994315225631,0.0012388017494231462,-0.3266635835170746,-0.22684712707996368,-9.981040954589844,3,1,44.0,0,0,1993,1712
25.66555000,25665550,1,-0.002554388949647546,-0.0019994315225631,0.0012388017494231462,-0.32818666100502014,-0.2269536703824997,-9.984594345092773,3,1,44.0,0,0,1993,1712
25.66908400,25669084,1,-0.002554386854171753,-0.0019994315225631,0.0012388017494231462,-0.33502909541130066,-0.2297019213438034,-9.988604545593262,3,1,44.0,0,0,1993,1712
25.67048300,25670483,1,-0.0025543884839862585,-0.0019994315225631,0.0012388017494231462,-0.34375637769699097,-0.2331078201532364,-9.987826347351074,3,1,44.0,0,0,1993,1712
25.67304000,25673040,1,-0.002554387552663684,-0.0019994315225631,0.0012388017494231462,-0.3581579625606537,-0.2363637387752533,-9.982148170471191,3,1,44.0,0,0,1993,1712
25.67554400,25675544,1,-0.002554387552663684,-0.0019994315225631,0.0012388017494231462,-0.3713683485984802,-0.23933511972427368,-9.979352951049805,3,1,44.0,0,0,1993,1712
25.67802700,25678027,1,-0.002553376369178295,-0.0019963940139859915,0.001251964713446796,-0.3830854296684265,-0.24057775735855103,-9.977624893188477,4,1,44.0,0,0,1993,1712
25.68179000,25681790,1,-0.002553376369178295,-0.0019963940139859915,0.001251964713446796,-0.3973684310913086,-0.24200309813022614,-9.975428581237793,4,1,44.0,0,0,1993,1712
25.68300000,25683000,1,-0.002553376369178295,-0.0019963940139859915,0.001251964713446796,-0.4027687907218933,-0.24245065450668335,-9.976913452148438,4,1,44.0,0,0,1993,1712
25.68553000,25685530,1,-0.002553376369178295,-0.0019963940139859915,0.001251964713446796,-0.4068920612335205,-0.24076995253562927,-9.982132911682129,4,1,44.0,0,0,1993,1712
25.68799200,25687992,1,-0.002553376369178295,-0.0019963940139859915,0.001251964713446796,-0.40746885538101196,-0.2370145618915558,-9.98648738861084,4,1,44.0,0,0,1993,1712
25.69052800,25690528,1,-0.002553376369178295,-0.0019963940139859915,0.001251964713446796,-0.40729883313179016,-0.23403261601924896,-9.991064071655273,4,1,44.0,0,0,1993,1712
25.69343900,25693439,1,-0.0027548670768737793,-0.001789479749277234,0.0019795771222561598,-0.4063219130039215,-0.236327663064003,-9.992593765258789,4,1,44.0,0,0,1993,1712
25.69545900,25695459,1,-0.0017653085524216294,-1.621786032046657e-05,0.0037180837243795395,-0.4073113203048706,-0.2373197227716446,-9.99422836303711,4,1,44.0,0,0,1993,1712
25.69812100,25698121,1,-0.0003505132917780429,0.001708011724986136,0.004245151299983263,-0.41098982095718384,-0.2391623705625534,-9.995484352111816,4,1,44.0,0,0,1993,1712
25.70051700,25700517,1,0.0015221727080643177,0.0039998916909098625,0.003998615313321352,-0.41434213519096375,-0.23965156078338623,-9.994328498840332,4,1,44.0,0,0,1993,1712
25.70306900,25703069,1,0.003374964464455843,0.005138056818395853,0.002998366951942444,-0.41682296991348267,-0.23846375942230225,-9.996466636657715,4,1,44.0,0,0,1993,1712
25.70597500,25705975,1,0.003992851823568344,0.005014006048440933,0.0022037688177078962,-0.4193737506866455,-0.23667040467262268,-9.998132705688477,4,1,44.0,0,0,1993,1712
25.70804400,25708044,1,0.0043378062546253204,0.004934210330247879,0.0016484248917549849,-0.4217604398727417,-0.2361895591020584,-9.99987506866455,4,1,44.0,0,0,1993,1712
25.71051600,25710516,1,0.004263473208993673,0.004255387932062149,0.0007876639137975872,-0.42094579339027405,-0.23566079139709473,-9.996853828430176,4,1,44.0,0,0,1993,1712
25.71304200,25713042,1,0.0038663202431052923,0.003688297001644969,0.0006549321697093546,-0.41783276200294495,-0.23552368581295013,-9.991518020629883,4,1,44.0,0,0,1993,1712
25.71553800,25715538,1,0.003668032120913267,0.0025155951734632254,0.000440916366642341,-0.4154943525791168,-0.2363138496875763,-9.987330436706543,4,1,44.0,0,0,1993,1712
25.71838600,25718386,1,0.0027352147735655308,0.0014553648652508855,0.001289796899072826,-0.414323627948761,-0.23748499155044556,-9.982760429382324,4,1,44.0,0,0,1993,1712
25.72056800,25720568,1,0.0022444066125899553,0.0010860594920814037,0.0016089670825749636,-0.41456618905067444,-0.23749172687530518,-9.983415603637695,4,1,44.0,0,0,1993,1712
25.72304000,25723040,1,0.0016353739192709327,0.0006537450244650245,0.001782040810212493,-0.41654860973358154,-0.23628421127796173,-9.985967636108398,4,1,44.0,0,0,1993,1712
25.72565100,25725651,1,0.0011513405479490757,-0.00016794238763395697,0.0015785382129251957,-0.41737568378448486,-0.23326422274112701,-9.988326072692871,4,1,44.0,0,0,1993,1712
25.72800400,25728004,1,0.0010779479052871466,-0.0003986319643445313,0.0013986938865855336,-0.41820308566093445,-0.2315858155488968,-9.99048900604248,4,1,44.0,0,0,1993,1712
25.73095200,25730952,1,0.0007708708290010691,-0.0006726985448040068,0.0015024584718048573,-0.4215218424797058,-0.23159456253051758,-9.99360179901123,4,1,44.0,0,0,1993,1712
25.73305200,25733052,1,0.0004756150592584163,-0.0006786754820495844,0.0007908889092504978,-0.42305153608322144,-0.23259608447551727,-9.993208885192871,4,1,44.0,0,0,1993,1712
25.73555000,25735550,1,0.00028038868913426995,-0.0005234629497863352,-8.93608303158544e-05,-0.4234144389629364,-0.2372349202632904,-9.989954948425293,4,1,44.0,0,0,1993,1712
25.73803300,25738033,1,0.0003470075607765466,-0.0007198688690550625,-0.00024391601618845016,-0.4222981333732605,-0.238872230052948,-9.987558364868164,4,1,44.0,0,0,1993,1712
25.74054300,25740543,1,0.0001843222271418199,-0.0008551511564292014,0.0002406061685178429,-0.4187694191932678,-0.23973865807056427,-9.984969139099121,4,1,44.0,0,0,1993,1712
25.74337500,25743375,1,0.0001978899963432923,-0.0010142124956473708,9.878251876216382e-05,-0.41361203789711,-0.2404486984014511,-9.98182201385498,4,1,44.0,0,0,1993,1712
25.74551900,25745519,1,-0.00011195027036592364,-0.00139152305200696,0.00016011828847695142,-0.4099167585372925,-0.24048741161823273,-9.978378295898438,4,1,44.0,0,0,1993,1712
25.74806200,25748062,1,-9.88974716165103e-05,-0.001138571067713201,0.00025584790273569524,-0.4090879559516907,-0.24001963436603546,-9.976374626159668,4,1,44.0,0,0,1993,1712
25.75055300,25750553,1,-0.00019048215472139418,-0.0007790788658894598,0.00014797951735090464,-0.40914738178253174,-0.24037420749664307,-9.974139213562012,4,1,44.0,0,0,1993,1712
25.75308300,25753083,1,-7.554690819233656e-05,-0.0008771817083470523,-0.00016780017176643014,-0.4090119004249573,-0.24161987006664276,-9.972213745117188,4,1,44.0,0,0,1993,1712
25.75595800,25755958,1,-0.0004689986235462129,-0.0005289553664624691,0.00012191398855065927,-0.4096851944923401,-0.24711266160011292,-9.975249290466309,4,1,44.0,0,0,1993,1712
25.75804300,25758043,1,-0.0005728810792788863,-0.0004892146680504084,0.000562550441827625,-0.410200297832489,-0.25179168581962585,-9.977655410766602,4,1,44.0,0,0,1993,1712
25.76053700,25760537,1,-0.0003189458220731467,-0.0002844544651452452,0.0005970191559754312,-0.4093877971172333,-0.25231438875198364,-9.983417510986328,4,1,44.0,0,0,1993,1712
25.76299600,25762996,1,0.0002817925123963505,-0.00010079290223075077,0.00011175597319379449,-0.40802285075187683,-0.2506484091281891,-9.987956047058105,4,1,44.0,0,0,1993,1712
25.76557200,25765572,1,0.0007475028978660703,0.00018191493290942162,-0.0002869667951017618,-0.40733110904693604,-0.24801205098628998,-9.991788864135742,4,1,44.0,0,0,1993,1712
25.76905300,25769053,1,0.0012273973552510142,0.0002694518188945949,-0.0005651107640005648,-0.4035114049911499,-0.24389995634555817,-9.990694046020508,4,1,44.0,0,0,1993,1712
25.77060900,25770609,1,0.0015211798017844558,0.0003546529042068869,-0.00048558367416262627,-0.4020095467567444,-0.24145928025245667,-9.987196922302246,4,1,44.0,0,0,1993,1712
25.77304600,25773046,1,0.0018216778989881277,0.0008457470103166997,-0.00045172960381023586,-0.403108149766922,-0.2374679148197174,-9.982475280761719,4,1,44.0,0,0,1993,1712
25.77555300,25775553,1,0.0022045148070901632,0.0010077990591526031,-0.0007078670314513147,-0.4061584770679474,-0.23568052053451538,-9.980040550231934,4,1,44.0,0,0,1993,1712
25.77798600,25777986,1,0.0027053928934037685,0.0012765642022714019,-0.0005542478756979108,-0.411126971244812,-0.23212561011314392,-9.981361389160156,4,1,44.0,0,0,1993,1712
25.78097000,25780970,1,0.0029540215618908405,0.0016893973806872964,-0.0006434495444409549,-0.4172389805316925,-0.2297595739364624,-9.981295585632324,4,1,44.0,0,0,1993,1712
25.78305300,25783053,1,0.0020706779323518276,0.0017916556680575013,-0.0007070624269545078,-0.42051663994789124,-0.2314499020576477,-9.980149269104004,4,1,44.0,0,0,1993,1712
25.78555000,25785550,1,0.0013106080004945397,0.0014670774107798934,-0.0007327281637117267,-0.4185544550418854,-0.23311050236225128,-9.982765197753906,4,1,44.0,0,0,1993,1712
25.78803900,25788039,1,0.0008981850696727633,0.0011498203966766596,-0.0006649263668805361,-0.41499778628349304,-0.2337924838066101,-9.985488891601562,4,1,44.0,0,0,1993,1712
25.79056500,25790565,1,0.00044951390009373426,0.001385651994496584,-5.583332313108258e-05,-0.40933114290237427,-0.23598092794418335,-9.986727714538574,4,1,44.0,0,0,1993,1712
25.79343800,25793438,1,-5.8723737311083823e-05,0.0020212968811392784,-0.00044788941158913076,-0.4054592549800873,-0.2388768494129181,-9.98495864868164,4,1,44.0,0,0,1993,1712
25.79553400,25795534,1,-0.0006941644242033362,0.0019585906993597746,-0.0002776682667899877,-0.4034215211868286,-0.24006937444210052,-9.984472274780273,4,1,44.0,0,0,1993,1712
25.79806700,25798067,1,-0.0011268651578575373,0.0018265580292791128,0.0007718636770732701,-0.405362069606781,-0.23947758972644806,-9.986197471618652,4,1,44.0,0,0,1993,1712
25.80053700,25800537,1,-0.001272138673812151,0.0015913150273263454,0.0007115492480807006,-0.40783804655075073,-0.23836225271224976,-9.98747730255127,4,1,44.0,0,0,1993,1712
25.80306300,25803063,1,-0.0011842551175504923,0.0006548698293045163,-0.00031052593840286136,-0.40942516922950745,-0.23461119830608368,-9.987658500671387,4,1,44.0,0,0,1993,1712
25.80598000,25805980,1,-0.0013999850489199162,-0.000686595740262419,-0.0008013192564249039,-0.4102325439453125,-0.23160427808761597,-9.987940788269043,4,1,44.0,0,0,1993,1712
25.80802000,25808020,1,-0.0009351328480988741,-0.0019307284383103251,-0.00041369631071574986,-0.4108501970767975,-0.22992174327373505,-9.988948822021484,4,1,44.0,0,0,1993,1712
25.81055700,25810557,1,-0.0008215423440560699,-0.0020306571386754513,-5.6804226915119216e-05,-0.4102674424648285,-0.23152023553848267,-9.987025260925293,4,1,44.0,0,0,1993,1712
25.81305300,25813053,1,-0.0009666461264714599,-0.0021063918247818947,-0.00017808261327445507,-0.40966036915779114,-0.2347564995288849,-9.985506057739258,4,1,44.0,0,0,1993,1712
25.81556700,25815567,1,-0.0009961886098608375,-0.002106436062604189,-0.00023845334362704307,-0.4108511507511139,-0.23603570461273193,-9.984403610229492,4,1,44.0,0,0,1993,1712
25.81846000,25818460,1,-0.0009600406046956778,-0.0021147464867681265,-0.0003621016221586615,-0.4135282337665558,-0.23534461855888367,-9.984939575195312,4,1,44.0,0,0,1993,1712
25.82054800,25820548,1,-0.0012687999987974763,-0.0018396236700937152,-0.0001638332469156012,-0.41366711258888245,-0.23783524334430695,-9.984837532043457,4,1,44.0,0,0,1993,1712
25.82302700,25823027,1,-0.0011816349579021335,-0.001059410860762,-6.371932977344841e-05,-0.4115678668022156,-0.24177765846252441,-9.983756065368652,4,1,44.0,0,0,1993,1712
25.82567800,25825678,1,-0.0013584124390035868,-0.0003136960731353611,0.00015447131590917706,-0.40907153487205505,-0.24285173416137695,-9.981818199157715,4,1,44.0,0,0,1993,1712
25.82806100,25828061,1,-0.0015688547864556313,-0.0002919016405940056,0.0004384877101983875,-0.4029723107814789,-0.24232780933380127,-9.985276222229004,4,1,44.0,0,0,1993,1712
25.83090900,25830909,1,-0.001186281442642212,-0.00024493320961482823,0.0007402166374959052,-0.3967205286026001,-0.241925910115242,-9.986686706542969,4,1,44.0,0,0,1993,1712
25.83304400,25833044,1,-0.00071375333936885,9.368963219458237e-05,0.0002504137810319662,-0.39386069774627686,-0.2406342327594757,-9.985491752624512,4,1,44.0,0,0,1993,1712
25.83554800,25835548,1,-0.0009349513566121459,0.0007310108630917966,1.32368386402959e-05,-0.396102637052536,-0.23905248939990997,-9.980740547180176,4,1,44.0,0,0,1993,1712
25.83804500,25838045,1,-0.0008360243518836796,0.001130218617618084,0.00010880525223910809,-0.3994281589984894,-0.23718702793121338,-9.979511260986328,4,1,44.0,0,0,1993,1712
25.84053700,25840537,1,-6.845819734735414e-05,0.001360084512270987,0.0002885783324018121,-0.4030967354774475,-0.2372148185968399,-9.982254981994629,4,1,44.0,0,0,1993,1712
25.84346100,25843461,1,0.00010963121894747019,0.0013273959048092365,0.0003164969675708562,-0.4067875146865845,-0.23843523859977722,-9.983165740966797,4,1,44.0,0,0,1993,1712
25.84559100,25845591,1,0.00012691917072515935,0.0004977639764547348,0.00030424719443544745,-0.40867969393730164,-0.24030724167823792,-9.983550071716309,4,1,44.0,0,0,1993,1712
25.84798700,25847987,1,0.0004456806927919388,0.00030367961153388023,4.4509160943562165e-05,-0.41138842701911926,-0.2400183230638504,-9.98348617553711,4,1,44.0,0,0,1993,1712
25.85055700,25850557,1,0.0008239964954555035,0.0003050591913051903,0.00023715464340057224,-0.4124234914779663,-0.2370717078447342,-9.982706069946289,4,1,44.0,0,0,1993,1712
25.85303500,25853035,1,0.0012619548942893744,0.0003990987897850573,0.00033526268089190125,-0.40931183099746704,-0.23468419909477234,-9.977751731872559,4,1,44.0,0,0,1993,1712
25.85600100,25856001,1,0.0012177500175312161,-0.0002420835808152333,-6.277518696151674e-05,-0.4070167541503906,-0.2346968948841095,-9.973359107971191,4,1,44.0,0,0,1993,1712
25.85802500,25858025,1,0.0009332426125183702,-0.0006626950344070792,0.00019830452220048755,-0.4049365818500519,-0.2361009567975998,-9.966560363769531,4,1,44.0,0,0,1993,1712
25.86055800,25860558,1,0.0006873588426969945,-0.0008833634783513844,0.00038440129719674587,-0.40426328778266907,-0.23728351294994354,-9.960061073303223,4,1,44.0,0,0,1993,1712
25.86297100,25862971,1,0.0005808161222375929,-0.000807663076557219,-0.00023909108131192625,-0.40650853514671326,-0.23689956963062286,-9.958608627319336,4,1,44.0,0,0,1993,1712
25.86556200,25865562,1,0.00044507745769806206,-0.0003783416177611798,-0.0005972941289655864,-0.4093537926673889,-0.23536580801010132,-9.961756706237793,4,1,44.0,0,0,1993,1712
25.86904700,25869047,1,0.0002406586572760716,6.192769069457427e-05,-0.0005416120984591544,-0.4081105887889862,-0.23758740723133087,-9.965131759643555,4,1,44.0,0,0,1993,1712
25.87053600,25870536,1,0.0002777445479296148,0.0004504121607169509,0.00017813642625696957,-0.4050404131412506,-0.23991931974887848,-9.966947555541992,4,1,44.0,0,0,1993,1712
25.87305400,25873054,1,-8.646022615721449e-05,0.0004237378016114235,0.0007330852095037699,-0.40392717719078064,-0.23999427258968353,-9.969101905822754,4,1,44.0,0,0,1993,1712
25.87580400,25875804,1,-0.00013856845907866955,0.00040635745972394943,0.0012201117351651192,-0.40404415130615234,-0.23923355340957642,-9.970965385437012,4,1,44.0,0,0,1993,1712
25.87820400,25878204,1,0.0002927318855654448,0.0009440467692911625,0.0012569050304591656,-0.40169578790664673,-0.23906661570072174,-9.971078872680664,4,1,44.0,0,0,1993,1712
25.88105300,25881053,1,0.0006587187526747584,0.0008761901990510523,0.0014764672378078103,-0.39695242047309875,-0.23958006501197815,-9.970251083374023,4,1,44.0,0,0,1993,1712
25.88307200,25883072,1,0.0010826619109138846,0.00015078789147082716,0.0011323915095999837,-0.391855925321579,-0.23999205231666565,-9.969330787658691,4,1,44.0,0,0,1993,1712
25.88558300,25885583,1,0.0015942228492349386,-0.000566028815228492,0.001144643872976303,-0.3904731571674347,-0.242029070854187,-9.96904182434082,4,1,44.0,0,0,1993,1712
25.88804200,25888042,1,0.0021625228691846132,-0.0012442572042346,0.0006761603290215135,-0.38857388496398926,-0.2436748892068863,-9.972423553466797,4,1,44.0,0,0,1993,1712
25.89056100,25890561,1,0.0031336264219135046,-0.0013236707309260964,0.0002792403392959386,-0.38706088066101074,-0.24351686239242554,-9.973885536193848,4,1,44.0,0,0,1993,1712
25.89337400,25893374,1,0.0035765734501183033,-0.0019365707412362099,-0.00023113127099350095,-0.3867979347705841,-0.24239477515220642,-9.972098350524902,4,1,44.0,0,0,1993,1712
25.89553600,25895536,1,0.0036540941800922155,-0.0025463607162237167,-0.0004683998122345656,-0.385444700717926,-0.24089473485946655,-9.968832015991211,4,1,44.0,0,0,1993,1712
25.89806700,25898067,1,0.0034980294294655323,-0.0029528525192290545,-0.0009318168158642948,-0.3858022391796112,-0.23992891609668732,-9.966503143310547,4,1,44.0,0,0,1993,1712
25.90051600,25900516,1,0.0035940823145210743,-0.0031826524063944817,-0.0013879492180421948,-0.3876190781593323,-0.23758412897586823,-9.964539527893066,4,1,44.0,0,0,1993,1712
25.90305900,25903059,1,0.003476672573015094,-0.003436486003920436,-0.0012206610990688205,-0.3890875279903412,-0.23616452515125275,-9.968575477600098,4,1,44.0,0,0,1993,1712
25.90603000,25906030,1,0.003054110100492835,-0.003669730620458722,-0.0011587860062718391,-0.3917773962020874,-0.23371535539627075,-9.970560073852539,4,1,44.0,0,0,1993,1712
25.90804500,25908045,1,0.0025120254140347242,-0.0034880386665463448,-0.000935518357437104,-0.39523372054100037,-0.2320510745048523,-9.970537185668945,4,1,44.0,0,0,1993,1712
25.91053600,25910536,1,0.0020636531990021467,-0.003518044948577881,-0.00017239878070540726,-0.403152734041214,-0.2284660041332245,-9.97027587890625,4,1,44.0,0,0,1993,1712
25.91305000,25913050,1,0.0019507677061483264,-0.0029864883981645107,-0.0004767790378537029,-0.4091174304485321,-0.2260281890630722,-9.969883918762207,4,1,44.0,0,0,1993,1712
25.91552300,25915523,1,0.0015466128243133426,-0.0026676354464143515,-0.000753501954022795,-0.41295725107192993,-0.22661103308200836,-9.97137451171875,4,1,44.0,0,0,1993,1712
25.91846000,25918460,1,0.0008398080826736987,-0.0022512581199407578,-0.00038037411286495626,-0.4144994020462036,-0.22957593202590942,-9.972146987915039,4,1,44.0,0,0,1993,1712
25.92054000,25920540,1,0.0006251831655390561,-0.0018371575279161334,0.00012088488438166678,-0.4176739454269409,-0.23220038414001465,-9.972552299499512,4,1,44.0,0,0,1993,1712
25.92305500,25923055,1,0.0004334402910899371,-0.0017800171626731753,0.0011574316304177046,-0.41970089077949524,-0.23560453951358795,-9.972761154174805,4,1,44.0,0,0,1993,1712
25.92569800,25925698,1,0.0005188336363062263,-0.001593855326063931,0.0010522332740947604,-0.42018526792526245,-0.2389722764492035,-9.972991943359375,4,1,44.0,0,0,1993,1712
25.92805600,25928056,1,0.000670730834826827,-0.0016456313896924257,0.0009666518308222294,-0.41863352060317993,-0.2395739108324051,-9.974579811096191,4,1,44.0,0,0,1993,1712
25.93091700,25930917,1,0.0009275805787183344,-0.0014780985657125711,0.0006153657450340688,-0.4158470928668976,-0.2387693226337433,-9.97679328918457,4,1,44.0,0,0,1993,1712
25.93305200,25933052,1,0.0012367796152830124,-0.001158968429081142,0.0007880026241764426,-0.41337278485298157,-0.23618429899215698,-9.98054313659668,4,1,44.0,0,0,1993,1712
25.93554200,25935542,1,0.0016295828390866518,-0.00044818915193900466,0.0009121248149313033,-0.40868502855300903,-0.23247185349464417,-9.981215476989746,4,1,44.0,0,0,1993,1712
25.93800800,25938008,1,0.0020194915123283863,4.306113987695426e-05,0.0011859859805554152,-0.40505149960517883,-0.2292655110359192,-9.97933292388916,4,1,44.0,0,0,1993,1712
25.94049500,25940495,1,0.0021047687623649836,0.00010496591130504385,0.0013163050170987844,-0.4031209945678711,-0.22634872794151306,-9.978774070739746,4,1,44.0,0,0,1993,1712
25.94346400,25943464,1,0.0026394943706691265,-0.00011945353617193177,0.0012068802025169134,-0.40247905254364014,-0.2238321155309677,-9.980149269104004,4,1,44.0,0,0,1993,1712
25.94557600,25945576,1,0.0027230402920395136,-0.000637425051536411,0.0012429960770532489,-0.4004415273666382,-0.22405104339122772,-9.981206893920898,4,1,44.0,0,0,1993,1712
25.94805500,25948055,1,0.0018732799217104912,-0.0009825759334489703,0.0015256869373843074,-0.4001292586326599,-0.22787000238895416,-9.981854438781738,4,1,44.0,0,0,1993,1712
25.95055200,25950552,1,0.0010416714940220118,-0.001202576793730259,0.0017800346249714494,-0.4019159972667694,-0.23068249225616455,-9.98107624053955,4,1,44.0,0,0,1993,1712
25.95304200,25953042,1,0.0003778854734264314,-0.001692072139121592,0.002516317879781127,-0.4019140899181366,-0.23232349753379822,-9.981405258178711,4,1,44.0,0,0,1993,1712
25.95588800,25955888,1,0.00026424616225995123,-0.0020632625091820955,0.0027349675074219704,-0.40067118406295776,-0.2344030886888504,-9.982759475708008,4,1,44.0,0,0,1993,1712
25.95804400,25958044,1,-0.000293244345812127,-0.0023417905904352665,0.002257433719933033,-0.4016331136226654,-0.23452237248420715,-9.983901977539062,4,1,44.0,0,0,1993,1712
25.96055400,25960554,1,-0.0008839901420287788,-0.0025142068043351173,0.0022354484535753727,-0.40188440680503845,-0.23464293777942657,-9.983781814575195,4,1,44.0,0,0,1993,1712
25.96296100,25962961,1,-0.001235138508491218,-0.002274941885843873,0.0019426393555477262,-0.4040830731391907,-0.23405368626117706,-9.985038757324219,4,1,44.0,0,0,1993,1712
25.96556200,25965562,1,-0.002270472003147006,-0.0017865595873445272,0.001771876821294427,-0.4060060977935791,-0.23280003666877747,-9.987737655639648,4,1,44.0,0,0,1993,1712
25.96904800,25969048,1,-0.002777098910883069,-0.001247224397957325,0.0017024518456310034,-0.407544881105423,-0.23236888647079468,-9.991620063781738,4,1,44.0,0,0,1993,1712
25.97046600,25970466,1,-0.0027051472570747137,-0.0004380133468657732,0.0013682658318430185,-0.40728262066841125,-0.2323092371225357,-9.99608325958252,4,1,44.0,0,0,1993,1712
25.97304200,25973042,1,-0.0019180829403921962,0.0005465566646307707,0.0010403045453131199,-0.40405115485191345,-0.23160147666931152,-9.996334075927734,4,1,44.0,0,0,1993,1712
25.97555200,25975552,1,-0.0011590359499678016,0.0015350936446338892,0.0001313340471824631,-0.3998928964138031,-0.2330794632434845,-9.999689102172852,4,1,44.0,0,0,1993,1712
25.97797800,25977978,1,-0.0010324937757104635,0.0012853972148150206,-0.000394067115848884,-0.3956860899925232,-0.23527725040912628,-10.001543998718262,4,1,44.0,0,0,1993,1712
25.98087200,25980872,1,-0.0008019412634894252,0.0011733596911653876,-0.0005442883702926338,-0.39238637685775757,-0.23630155622959137,-10.001696586608887,4,1,44.0,0,0,1993,1712
25.98306400,25983064,1,-0.0003979469765909016,0.0007646289886906743,-0.0011227765353396535,-0.391215056180954,-0.23827435076236725,-10.000044822692871,4,1,44.0,0,0,1993,1712
25.98556400,25985564,1,0.00027027580654248595,0.0007489277049899101,-0.001202899031341076,-0.3940340578556061,-0.24041901528835297,-9.995514869689941,4,1,44.0,0,0,1993,1712
25.98807400,25988074,1,0.0009639186318963766,0.0006182108772918582,-0.0014290336985141039,-0.39560675621032715,-0.2410174012184143,-9.990872383117676,4,1,44.0,0,0,1993,1712
25.99055400,25990554,1,0.0008408058201894164,0.000802992784883827,-0.0009475455735810101,-0.39831140637397766,-0.24006541073322296,-9.987464904785156,4,1,44.0,0,0,1993,1712
25.99343700,25993437,1,0.0007282035076059401,0.000475624343380332,-0.00028914090944454074,-0.40159550309181213,-0.23932693898677826,-9.985586166381836,4,1,44.0,0,0,1993,1712
25.99557200,25995572,1,0.0004728909698314965,-0.00018497600103728473,9.668259735917673e-05,-0.4035947322845459,-0.23907555639743805,-9.983954429626465,4,1,44.0,0,0,1993,1712
25.99806700,25998067,1,-0.0002031960029853508,-0.0004698460397776216,-4.0673425246495754e-05,-0.40361514687538147,-0.23817816376686096,-9.984021186828613,4,1,44.0,0,0,1993,1712
26.00054600,26000546,1,-0.0010880115441977978,-0.0007469768752343953,0.0002970746427308768,-0.4013962149620056,-0.23738320171833038,-9.979950904846191,4,1,44.0,0,0,1993,1712
26.00303300,26003033,1,-0.0010357038117945194,-0.0007197370869107544,0.0005671408143825829,-0.4002532660961151,-0.23547960817813873,-9.97779369354248,4,1,44.0,0,0,1993,1712
26.00602700,26006027,1,-0.0010667218593880534,-0.00044781039468944073,0.000600549450609833,-0.39928963780403137,-0.23463302850723267,-9.978699684143066,4,1,44.0,0,0,1993,1712
26.00803400,26008034,1,-0.0004836971056647599,-0.0003220572543796152,2.7802529075415805e-05,-0.39760711789131165,-0.2331209033727646,-9.979453086853027,4,1,44.0,0,0,1993,1712
26.01053800,26010538,1,-0.000550317985471338,-0.0002278700703755021,-0.0005343277589417994,-0.39565765857696533,-0.23210187256336212,-9.978782653808594,4,1,44.0,0,0,1993,1712
26.01310500,26013105,1,-0.000795902858953923,0.00034226704156026244,-0.0009256463963538408,-0.39101114869117737,-0.23139077425003052,-9.97263240814209,4,1,44.0,0,0,1993,1712
26.01553700,26015537,1,-0.0009376521920785308,0.0010004144860431552,-0.0014810793800279498,-0.38708576560020447,-0.23301655054092407,-9.96691608428955,4,1,44.0,0,0,1993,1712
26.01851100,26018511,1,-0.0008393641910515726,0.0016103672096505761,-0.0011325246887281537,-0.38679417967796326,-0.23571021854877472,-9.961268424987793,4,1,44.0,0,0,1993,1712
26.02049500,26020495,1,-0.00031354662496596575,0.0018535117851570249,-0.00030365894781425595,-0.38565972447395325,-0.23702877759933472,-9.958760261535645,4,1,44.0,0,0,1993,1712
26.02304200,26023042,1,0.0004158926603849977,0.0012463816674426198,0.00037042450276203454,-0.38497626781463623,-0.2374042123556137,-9.956348419189453,4,1,44.0,0,0,1993,1712
26.02564200,26025642,1,0.00019999503274448216,0.00039493583608418703,0.0006495586130768061,-0.3853961229324341,-0.2359752506017685,-9.958229064941406,4,1,44.0,0,0,1993,1712
26.02805100,26028051,1,0.00023827749828342348,-0.00010226380982203409,0.000979754375293851,-0.387140154838562,-0.2345677763223648,-9.964202880859375,4,1,44.0,0,0,1993,1712
26.03095200,26030952,1,4.356711360742338e-05,-0.0011358519550412893,0.000783889670856297,-0.3884763717651367,-0.233285591006279,-9.971064567565918,4,1,44.0,0,0,1993,1712
26.03304700,26033047,1,-0.00027279381174594164,-0.0021019363775849342,-1.631291706871707e-05,-0.39073601365089417,-0.23346877098083496,-9.977136611938477,4,1,44.0,0,0,1993,1712
26.03553500,26035535,1,-0.0001029219783958979,-0.0026273448020219803,-0.0004964942345395684,-0.3906024694442749,-0.2336568534374237,-9.980871200561523,4,1,44.0,0,0,1993,1712
26.03809600,26038096,1,0.00015248074487317353,-0.002594125922769308,-0.00042497634422034025,-0.3923712968826294,-0.2347094565629959,-9.982977867126465,4,1,44.0,0,0,1993,1712
26.04054900,26040549,1,0.0005781473591923714,-0.0027235853485763073,-0.0006782401469536126,-0.39313915371894836,-0.23551954329013824,-9.98851203918457,4,1,44.0,0,0,1993,1712
26.04337600,26043376,1,0.0008565912721678615,-0.002929743379354477,-0.0004985384293831885,-0.3928545117378235,-0.2345159947872162,-9.990485191345215,4,1,44.0,0,0,1993,1712
26.04561500,26045615,1,0.0007418207824230194,-0.0027514519169926643,-0.00045178530854173005,-0.3930176794528961,-0.23369722068309784,-9.990087509155273,4,1,44.0,0,0,1993,1712
26.04804800,26048048,1,0.0003791193012148142,-0.002964957617223263,-0.0007217189413495362,-0.3949970006942749,-0.23233221471309662,-9.990222930908203,4,1,44.0,0,0,1993,1712
26.05053300,26050533,1,0.0004403749480843544,-0.0031701463740319014,-0.0013538255589082837,-0.39577025175094604,-0.2329661250114441,-9.985809326171875,4,1,44.0,0,0,1993,1712
26.05302800,26053028,1,0.0002968562475871295,-0.0031346208415925503,-0.001322245690971613,-0.3934602439403534,-0.2375318855047226,-9.981000900268555,4,1,44.0,0,0,1993,1712
26.05595200,26055952,1,0.0001274667592952028,-0.0029839552007615566,-0.0010026629315689206,-0.3884654939174652,-0.23931723833084106,-9.975384712219238,4,1,44.0,0,0,1993,1712
26.05804700,26058047,1,0.00010565347474766895,-0.002890524221584201,-0.0008749034022912383,-0.3839890658855438,-0.2384195476770401,-9.971573829650879,4,1,44.0,0,0,1993,1712
26.06047600,26060476,1,9.428596240468323e-05,-0.0025045310612767935,-0.00017063102859538049,-0.38576623797416687,-0.2354312390089035,-9.971725463867188,4,1,44.0,0,0,1993,1712
26.06305300,26063053,1,0.00046417792327702045,-0.0021188959944993258,0.0003131489211227745,-0.3898109495639801,-0.2337842583656311,-9.977094650268555,4,1,44.0,0,0,1993,1712
26.06559000,26065590,1,0.0004517233173828572,-0.001505340333096683,0.0007670835475437343,-0.3939337134361267,-0.23200367391109467,-9.980633735656738,4,1,44.0,0,0,1993,1712
26.06898300,26068983,1,0.0005087213357910514,-0.0008684625499881804,0.0007638402166776359,-0.39617764949798584,-0.23031620681285858,-9.984943389892578,4,1,44.0,0,0,1993,1712
26.07053900,26070539,1,0.00035339733585715294,-7.858888420742005e-05,0.0006648336420767009,-0.39834946393966675,-0.22930583357810974,-9.98956298828125,4,1,44.0,0,0,1993,1712
26.07303800,26073038,1,-0.00034904503263533115,0.0005501779960468411,0.0007711683865636587,-0.39948365092277527,-0.22838419675827026,-9.992809295654297,4,1,44.0,0,0,1993,1712
26.07555000,26075550,1,-0.001089820172637701,0.0005777652258984745,0.0009772528428584337,-0.3951963484287262,-0.22887790203094482,-9.99355697631836,4,1,44.0,0,0,1993,1712
26.07815800,26078158,1,-0.0013717345427721739,1.6055342712206766e-05,0.0007299035787582397,-0.39347508549690247,-0.23054280877113342,-9.993854522705078,4,1,44.0,0,0,1993,1712
26.08095400,26080954,1,-0.0023656233679503202,-0.0008677276782691479,0.0006384504958987236,-0.3905605375766754,-0.23145674169063568,-9.997111320495605,4,1,44.0,0,0,1993,1712
26.08304100,26083041,1,-0.0025605326518416405,-0.0013497755862772465,0.0004824332718271762,-0.3915315270423889,-0.2333429902791977,-9.997897148132324,4,1,44.0,0,0,1993,1712
26.08558300,26085583,1,-0.0019269296899437904,-0.001685036113485694,0.0004187705344520509,-0.39661139249801636,-0.23404991626739502,-9.998390197753906,4,1,44.0,0,0,1993,1712
26.08804800,26088048,1,-0.0015916520496830344,-0.0011025879066437483,0.0005539368139579892,-0.3994373083114624,-0.23357942700386047,-9.999731063842773,4,1,44.0,0,0,1993,1712
26.09057800,26090578,1,-0.0015451234066858888,-0.0008228457882069051,-4.927321060677059e-05,-0.39830952882766724,-0.23240043222904205,-10.002253532409668,4,1,44.0,0,0,1993,1712
26.09335500,26093355,1,-0.001515451935119927,-0.0005121098947711289,-0.00016166096611414105,-0.3966579735279083,-0.23020440340042114,-10.001618385314941,4,1,44.0,0,0,1993,1712
26.09554900,26095549,1,-0.0013967071427032351,-0.00031692985794506967,-0.0001790230453480035,-0.3961256444454193,-0.23051460087299347,-9.998504638671875,4,1,44.0,0,0,1993,1712
26.11357400,26113574,1,-0.0011391465086489916,-0.0010886831441894174,-0.0002105829189531505,-0.391576886177063,-0.23786351084709167,-9.9979829788208,4,1,44.0,0,0,1993,1712
26.11571100,26115711,1,-0.0008472422487102449,-0.0007510518771596253,-0.0003945008502341807,-0.39656293392181396,-0.2393123358488083,-9.999404907226562,4,1,44.0,0,0,1993,1712
26.11822500,26118225,1,-0.0014349016128107905,-0.0006376468809321523,0.0001111332094296813,-0.40299832820892334,-0.2399713546037674,-9.999541282653809,4,1,44.0,0,0,1993,1712
26.12069500,26120695,1,-0.0013334440300241113,-0.00025164763792417943,0.0007427591481246054,-0.4086751639842987,-0.23997968435287476,-10.00197982788086,4,1,44.0,0,0,1993,1712
26.12319700,26123197,1,-0.0012212080182507634,-9.680348011897877e-05,0.001316866255365312,-0.41380247473716736,-0.23984548449516296,-10.003313064575195,4,1,44.0,0,0,1993,1712
26.12617300,26126173,1,-0.001475604483857751,3.5009568819077685e-05,0.0010768650099635124,-0.41764551401138306,-0.24088376760482788,-9.998600006103516,4,1,44.0,0,0,1993,1712
26.12818800,26128188,1,-0.0015669881831854582,0.0001468934933654964,0.0014258972369134426,-0.4205069839954376,-0.24095508456230164,-9.991443634033203,4,1,44.0,0,0,1993,1712
26.13071700,26130717,1,-0.0014608085621148348,-0.00032827863469719887,0.001467436202801764,-0.4209587275981903,-0.24121007323265076,-9.986419677734375,4,1,44.0,0,0,1993,1712
26.13319500,26133195,1,-0.0011207668576389551,-0.0004402651102282107,0.0010863094357773662,-0.41875067353248596,-0.2398686408996582,-9.986077308654785,4,1,44.0,0,0,1993,1712
26.13569900,26135699,1,7.47941667214036e-05,-0.0003651822335086763,0.0012021824950352311,-0.41570931673049927,-0.23630191385746002,-9.98314380645752,4,1,44.0,0,0,1993,1712
26.13869100,26138691,1,-0.00019401204190216959,-0.0005005201091989875,0.0020212822128087282,-0.4149126708507538,-0.23374037444591522,-9.984896659851074,4,1,44.0,0,0,1993,1712
26.14068800,26140688,1,6.475172995124012e-05,-0.0010301467264071107,0.0020797760225832462,-0.4144064784049988,-0.23369699716567993,-9.98789119720459,4,1,44.0,0,0,1993,1712
26.14319700,26143197,1,-0.0001381397305522114,-0.000970834051258862,0.0015293665928766131,-0.41150879859924316,-0.23583492636680603,-9.991687774658203,4,1,44.0,0,0,1993,1712
26.14569900,26145699,1,-0.0004056229372508824,-0.0008890089811757207,0.0011746813543140888,-0.40926113724708557,-0.23839406669139862,-9.995671272277832,4,1,44.0,0,0,1993,1712
26.14819900,26148199,1,-0.0004339165170677006,-0.0007377106812782586,0.0011381655931472778,-0.4063628017902374,-0.24088910222053528,-9.998493194580078,4,1,44.0,0,0,1993,1712
26.15106700,26151067,1,-0.00046290771570056677,-0.00036833432386629283,0.0007069885614328086,-0.40627309679985046,-0.2400444895029068,-9.999635696411133,4,1,44.0,0,0,1993,1712
26.15322300,26153223,1,-0.000510138226673007,-0.00020306407532189041,6.0873848269693553e-05,-0.40791335701942444,-0.23876576125621796,-9.998584747314453,4,1,44.0,0,0,1993,1712
26.15568500,26155685,1,-3.4690176107687876e-05,4.472391083254479e-05,-0.00029722953331656754,-0.41157296299934387,-0.23866091668605804,-9.995654106140137,4,1,44.0,0,0,1993,1712
26.15822700,26158227,1,0.00032168932375498116,0.00024070209474302828,-0.000517721869982779,-0.41442567110061646,-0.23892763257026672,-9.990221977233887,4,1,44.0,0,0,1993,1712
26.16069300,26160693,1,0.0004939142381772399,0.0005215892451815307,-0.00042808603029698133,-0.4160127639770508,-0.23926346004009247,-9.984944343566895,4,1,44.0,0,0,1993,1712
26.16361500,26163615,1,0.0008027987787500024,0.00037995012826286256,-0.00033518552663736045,-0.41775521636009216,-0.23763521015644073,-9.981319427490234,4,1,44.0,0,0,1993,1712
26.16568900,26165689,1,0.0010365241905674338,0.00034607990528456867,-0.00029466295382007957,-0.4186370372772217,-0.2368517518043518,-9.979846000671387,4,1,44.0,0,0,1993,1712
26.16824500,26168245,1,0.0013044088846072555,0.000610450457315892,-0.000627060595434159,-0.4191582202911377,-0.2357080578804016,-9.97703742980957,4,1,44.0,0,0,1993,1712
26.17070000,26170700,1,0.001959538785740733,0.0001992035540752113,-0.0005912780179642141,-0.41895654797554016,-0.2338503748178482,-9.974515914916992,4,1,44.0,0,0,1993,1712
26.17319700,26173197,1,0.0021350395400077105,-0.00023887761926744133,-0.000346159067703411,-0.4212482273578644,-0.23106881976127625,-9.976814270019531,4,1,44.0,0,0,1993,1712
26.17613900,26176139,1,0.002060297876596451,-0.00048780854558572173,-0.00024823436979204416,-0.42166122794151306,-0.23139238357543945,-9.97781753540039,4,1,44.0,0,0,1993,1712
26.17820200,26178202,1,0.0018771948525682092,-0.0007693995139561594,-0.00020359476911835372,-0.4182107746601105,-0.2334267497062683,-9.978074073791504,4,1,44.0,0,0,1993,1712
26.18069000,26180690,1,0.0019452351843938231,-0.0016128671122714877,-0.0002136795228580013,-0.4126069247722626,-0.23690937459468842,-9.977692604064941,4,1,44.0,0,0,1993,1712
26.18320300,26183203,1,0.0019447311060503125,-0.0017527699237689376,-9.054232941707596e-05,-0.4115573763847351,-0.24150840938091278,-9.975408554077148,4,1,44.0,0,0,1993,1712
26.18567700,26185677,1,0.002467853482812643,-0.001964070601388812,-0.00020550221961457282,-0.4133888781070709,-0.2451694756746292,-9.974557876586914,4,1,44.0,0,0,1993,1712
26.18900800,26189008,1,0.0025042404886335135,-0.002192102838307619,0.00016792351379990578,-0.4166467785835266,-0.24557164311408997,-9.976858139038086,4,1,44.0,0,0,1993,1712
26.19071900,26190719,1,0.002558399923145771,-0.0025030295364558697,0.0007164789130911231,-0.42371830344200134,-0.24499472975730896,-9.980208396911621,4,1,44.0,0,0,1993,1712
26.19321400,26193214,1,0.0025260266847908497,-0.0021837649401277304,0.0008582256850786507,-0.4296225607395172,-0.24424539506435394,-9.983820915222168,4,1,44.0,0,0,1993,1712
26.19568900,26195689,1,0.0019165838602930307,-0.0015445493627339602,0.0006133306887932122,-0.43036171793937683,-0.240870401263237,-9.987775802612305,4,1,44.0,0,0,1993,1712
26.19828900,26198289,1,0.001443329849280417,-0.0015482198214158416,0.0003211227594874799,-0.4288170039653778,-0.23670220375061035,-9.99130630493164,4,1,44.0,0,0,1993,1712
26.20130600,26201306,1,0.0008086635498329997,-0.0016032254789024591,0.00011230304517084733,-0.42616936564445496,-0.23354646563529968,-9.995549201965332,4,1,44.0,0,0,1993,1712
26.20319600,26203196,1,0.0005298154428601265,-0.0013651836197823286,0.0005217858706600964,-0.42304182052612305,-0.23282687366008759,-9.995697975158691,4,1,44.0,0,0,1993,1712
26.20569100,26205691,1,0.0009315389906987548,-0.0008166650077328086,0.001135198981501162,-0.4212951362133026,-0.23364140093326569,-9.994318008422852,4,1,44.0,0,0,1993,1712
26.20819800,26208198,1,0.0013635099167004228,-0.0004500095674302429,0.0013078596675768495,-0.41466766595840454,-0.23532074689865112,-9.989928245544434,4,1,44.0,0,0,1993,1712
26.21068200,26210682,1,0.0012007448822259903,-0.0008646229398436844,0.0009451008518226445,-0.4079836308956146,-0.23706823587417603,-9.987933158874512,4,1,44.0,0,0,1993,1712
26.21361700,26213617,1,0.0012065647169947624,-0.0003509707166813314,0.0005000286619178951,-0.4008571207523346,-0.23951390385627747,-9.983036041259766,4,1,44.0,0,0,1993,1712
26.21569400,26215694,1,0.001087005017325282,5.2918418077751994e-05,0.00023842031077947468,-0.39645230770111084,-0.24009764194488525,-9.979462623596191,4,1,44.0,0,0,1993,1712
26.21821100,26218211,1,0.0007503976812586188,1.3192186088417657e-05,0.00027794335619546473,-0.39538490772247314,-0.2401830106973648,-9.980106353759766,4,1,44.0,0,0,1993,1712
26.22070400,26220704,1,0.0006926445057615638,-0.000562933913897723,0.0004450669512152672,-0.3960070013999939,-0.2410394251346588,-9.98047924041748,4,1,44.0,0,0,1993,1712
26.22321000,26223210,1,-6.481620948761702e-05,-0.0007108270656317472,0.0002545429451856762,-0.3971329927444458,-0.24195793271064758,-9.978596687316895,4,1,44.0,0,0,1993,1712
26.22611100,26226111,1,0.0001344051124760881,-0.0008207906503230333,0.0003104209608864039,-0.39777323603630066,-0.24179014563560486,-9.97934341430664,4,1,44.0,0,0,1993,1712
26.22819700,26228197,1,-0.00011035936768166721,-0.0008497452363371849,-0.0002177115820813924,-0.39973312616348267,-0.2405228614807129,-9.980156898498535,4,1,44.0,0,0,1993,1712
26.23073400,26230734,1,-0.00035112700425088406,-0.0004150287131778896,-7.194130012067035e-05,-0.39971327781677246,-0.24066291749477386,-9.97903823852539,4,1,44.0,0,0,1993,1712
26.23318600,26233186,1,-0.0006642939406447113,-0.00019159210205543786,0.00045962215517647564,-0.39779287576675415,-0.2380630522966385,-9.981064796447754,4,1,44.0,0,0,1993,1712
26.23570000,26235700,1,-0.00046388234477490187,0.0003474996192380786,-0.0001878372859209776,-0.39695122838020325,-0.23394882678985596,-9.985676765441895,4,1,44.0,0,0,1993,1712
26.23869500,26238695,1,-0.0005104991723783314,0.0009872610680758953,-0.0004152563924435526,-0.394230455160141,-0.23004676401615143,-9.986733436584473,4,1,44.0,0,0,1993,1712
26.24069800,26240698,1,-0.0002455228241160512,0.0012938558356836438,-0.00010136825585504994,-0.393379807472229,-0.22790002822875977,-9.988969802856445,4,1,44.0,0,0,1993,1712
26.24322000,26243220,1,4.6439239667961374e-05,0.00084102270193398,-0.00018188929243478924,-0.3928016424179077,-0.22638805210590363,-9.990290641784668,4,1,44.0,0,0,1993,1712
26.24569900,26245699,1,9.786782902665436e-05,0.0003213838499505073,-0.00024732123711146414,-0.39266207814216614,-0.22502218186855316,-9.988726615905762,4,1,44.0,0,0,1993,1712
26.24820700,26248207,1,0.0003469446673989296,0.0003943868214264512,0.0005761743523180485,-0.3930896520614624,-0.2237151712179184,-9.984113693237305,4,1,44.0,0,0,1993,1712
26.25110500,26251105,1,0.0003307508595753461,6.607650720980018e-05,0.0011344535741955042,-0.3949602246284485,-0.22236523032188416,-9.975545883178711,4,1,44.0,0,0,1993,1712
26.25319200,26253192,1,0.0006490632658824325,-0.00019263844296801835,0.001576744019985199,-0.3963414132595062,-0.22251559793949127,-9.970946311950684,4,1,44.0,0,0,1993,1712
26.25569300,26255693,1,0.0008545067394152284,-0.00017292940174229443,0.0017414779867976904,-0.39821913838386536,-0.22063317894935608,-9.96987247467041,4,1,44.0,0,0,1993,1712
26.25820800,26258208,1,0.00153791019693017,-0.0005526051390916109,0.0018214830197393894,-0.3958929181098938,-0.21985197067260742,-9.966646194458008,4,1,44.0,0,0,1993,1712
26.26069600,26260696,1,0.001961873611435294,-4.0282491681864485e-05,0.0019627532456070185,-0.3937408924102783,-0.22196947038173676,-9.968920707702637,4,1,44.0,0,0,1993,1712
26.26360600,26263606,1,0.0014212718233466148,4.1119183151749894e-05,0.0017700321041047573,-0.39143192768096924,-0.22712700068950653,-9.972784042358398,4,1,44.0,0,0,1993,1712
26.26571000,26265710,1,0.0008298067259602249,-0.0008220982272177935,0.0019167382270097733,-0.38810890913009644,-0.2323019653558731,-9.980278015136719,4,1,44.0,0,0,1993,1712
26.26820000,26268200,1,-1.654029233577603e-06,-0.001204199274070561,0.0016101653454825282,-0.38522592186927795,-0.23830866813659668,-9.982427597045898,4,1,44.0,0,0,1993,1712
26.27068600,26270686,1,-0.001197002362459898,-0.001269890577532351,0.0011223783949390054,-0.38292109966278076,-0.24342069029808044,-9.97895622253418,4,1,44.0,0,0,1993,1712
26.27319500,26273195,1,-0.001842707279138267,-0.0012162327766418457,0.0008502370328642428,-0.38362589478492737,-0.24552108347415924,-9.973697662353516,4,1,44.0,0,0,1993,1712
26.27657200,26276572,1,-0.0021135767456144094,-0.0012103405315428972,0.0006998307071626186,-0.3830714821815491,-0.2461588978767395,-9.970340728759766,4,1,44.0,0,0,1993,1712
26.27820300,26278203,1,-0.002287965966388583,-0.0014880840899422765,0.000527690805029124,-0.3832367956638336,-0.24365130066871643,-9.969968795776367,4,1,44.0,0,0,1993,1712
26.28069300,26280693,1,-0.00178305443841964,-0.0019260928966104984,0.0008676595753058791,-0.38464564085006714,-0.2409566044807434,-9.97404956817627,4,1,44.0,0,0,1993,1712
26.28321000,26283210,1,-0.00206196797080338,-0.001441045431420207,0.0010291336802765727,-0.3845885396003723,-0.2383614182472229,-9.97792911529541,4,1,44.0,0,0,1993,1712
26.28569800,26285698,1,-0.0019005403155460954,-0.0017870321171358228,0.0009029837092384696,-0.38604801893234253,-0.235306054353714,-9.980758666992188,4,1,44.0,0,0,1993,1712
26.28883100,26288831,1,-0.001657290500588715,-0.001873520901426673,0.00045010491157881916,-0.387856125831604,-0.23226401209831238,-9.985916137695312,4,1,44.0,0,0,1993,1712
26.29070700,26290707,1,-0.0016092442674562335,-0.0018324562115594745,0.00017570224008522928,-0.39178529381752014,-0.23125942051410675,-9.993058204650879,4,1,44.0,0,0,1993,1712
26.29321100,26293211,1,-0.0013837431324645877,-0.0011589863570407033,-8.661419997224584e-05,-0.39710405468940735,-0.2307317554950714,-9.997485160827637,4,1,44.0,0,0,1993,1712
26.29569000,26295690,1,-0.0012438007397577167,-0.00022118767083156854,-0.00028816802660003304,-0.4005619287490845,-0.22893358767032623,-9.998137474060059,4,1,44.0,0,0,1993,1712
26.29824800,26298248,1,-0.0013976313639432192,-6.550778925884515e-05,-0.0002575826656538993,-0.39690321683883667,-0.22909769415855408,-9.990739822387695,4,1,44.0,0,0,1993,1712
26.30109700,26301097,1,-0.0011738940374925733,0.0002473212662152946,-0.0010621044784784317,-0.39095455408096313,-0.2302037626504898,-9.981169700622559,4,1,44.0,0,0,1993,1712
26.30319800,26303198,1,-0.0009304367122240365,-6.545618816744536e-05,-0.0007754346588626504,-0.3884875476360321,-0.2325090914964676,-9.977312088012695,4,1,44.0,0,0,1993,1712
26.30569100,26305691,1,-0.0006635030149482191,-0.00010238731920253485,-0.001295217196457088,-0.3902614116668701,-0.23496407270431519,-9.975098609924316,4,1,44.0,0,0,1993,1712
26.30819700,26308197,1,-0.0004989536828361452,0.0004967732238583267,-0.0019478689646348357,-0.39608997106552124,-0.23578432202339172,-9.970545768737793,4,1,44.0,0,0,1993,1712
26.31070000,26310700,1,0.0001456440077163279,0.00017286062939092517,-0.0024729284923523664,-0.4000256359577179,-0.23797322809696198,-9.967105865478516,4,1,44.0,0,0,1993,1712
26.31356800,26313568,1,0.00020912424952257425,0.0004050893185194582,-0.002423867117613554,-0.40074896812438965,-0.23816098272800446,-9.966588973999023,4,1,44.0,0,0,1993,1712
26.31569000,26315690,1,-0.0002462744596414268,0.0007563014514744282,-0.0017023436957970262,-0.4014226496219635,-0.2366531789302826,-9.965922355651855,4,1,44.0,0,0,1993,1712
26.31821700,26318217,1,-8.460121534881182e-06,0.0008298777975142002,-0.0011452678591012955,-0.40153056383132935,-0.23382487893104553,-9.968635559082031,4,1,44.0,0,0,1993,1712
26.32069300,26320693,1,0.0001386528165312484,0.001046057092025876,-0.00042941796709783375,-0.4027632176876068,-0.23204071819782257,-9.971436500549316,4,1,44.0,0,0,1993,1712
26.32319300,26323193,1,-3.5638859117170796e-05,0.00101949751842767,-0.0004620385298039764,-0.40349408984184265,-0.2324279546737671,-9.972936630249023,4,1,44.0,0,0,1993,1712
26.32611500,26326115,1,9.071728527487721e-06,0.0009717810316942632,-0.00010488327097846195,-0.4026842415332794,-0.23385755717754364,-9.974103927612305,4,1,44.0,0,0,1993,1712
26.32821300,26328213,1,-0.00029616092797368765,0.0014088561292737722,0.0003297189250588417,-0.40300461649894714,-0.2342992126941681,-9.974634170532227,4,1,44.0,0,0,1993,1712
26.33072700,26330727,1,-0.0006286934367381036,0.0014964770525693893,0.00038347142981365323,-0.4022514820098877,-0.23504890501499176,-9.973054885864258,4,1,44.0,0,0,1993,1712
26.33320700,26333207,1,-0.0005113481311127543,0.0010861520422622561,0.00043389853090047836,-0.40308281779289246,-0.23471127450466156,-9.973624229431152,4,1,44.0,0,0,1993,1712
26.33569400,26335694,1,-0.00019910208357032388,-4.134055780014023e-05,0.00018570244719740003,-0.40390312671661377,-0.23319457471370697,-9.975997924804688,4,1,44.0,0,0,1993,1712
26.33870200,26338702,1,-0.0005695490399375558,-0.0007288702763617039,0.00037846609484404325,-0.40597090125083923,-0.23295342922210693,-9.977705001831055,4,1,44.0,0,0,1993,1712
26.34068800,26340688,1,-0.0007438126485794783,-0.001379632973112166,0.0005241662147454917,-0.4090534746646881,-0.23325319588184357,-9.982935905456543,4,1,44.0,0,0,1993,1712
26.34318900,26343189,1,-0.0005471336771734059,-0.0014838171191513538,0.0007527769193984568,-0.40980252623558044,-0.23338136076927185,-9.990927696228027,4,1,44.0,0,0,1993,1712
26.34569700,26345697,1,-0.000808116456028074,-0.0015273455064743757,0.0009629419655539095,-0.4093550145626068,-0.23312817513942719,-9.996797561645508,4,1,44.0,0,0,1993,1712
26.34818500,26348185,1,-0.000993642839603126,-0.0014912158949300647,0.0008198862196877599,-0.4086662232875824,-0.23280100524425507,-10.000980377197266,4,1,44.0,0,0,1993,1712
26.35111000,26351110,1,-0.00039074951200746,-0.0012405774323269725,0.00057210773229599,-0.40407925844192505,-0.2332882583141327,-10.000099182128906,4,1,44.0,0,0,1993,1712
26.35318900,26353189,1,-0.00039659146568737924,-0.001110600889660418,0.0008727656095288694,-0.40211912989616394,-0.23316043615341187,-9.998982429504395,4,1,44.0,0,0,1993,1712
26.35570400,26355704,1,-0.0005403452087193727,-0.0004333518445491791,0.00157063954975456,-0.40066617727279663,-0.23114195466041565,-9.993476867675781,4,1,44.0,0,0,1993,1712
26.35820900,26358209,1,-0.00010814236884471029,-0.00046783231664448977,0.0013584800763055682,-0.3984626233577728,-0.22843901813030243,-9.9880952835083,4,1,44.0,0,0,1993,1712
26.36069800,26360698,1,0.0007743592723272741,-0.0006961661856621504,0.001156694139353931,-0.39725637435913086,-0.22726404666900635,-9.985310554504395,4,1,44.0,0,0,1993,1712
26.36362700,26363627,1,0.0011737276799976826,-0.00013878585014026612,0.0012032692320644855,-0.39479830861091614,-0.22718048095703125,-9.983682632446289,4,1,44.0,0,0,1993,1712
26.36570600,26365706,1,0.0007740029250271618,0.0007802186300978065,0.0013644370483234525,-0.3941117525100708,-0.2303657829761505,-9.982014656066895,4,1,44.0,0,0,1993,1712
26.36820300,26368203,1,0.0007182680419646204,0.0011610017390921712,0.0014815022004768252,-0.3922851085662842,-0.23308411240577698,-9.976147651672363,4,1,44.0,0,0,1993,1712
26.37070200,26370702,1,0.0004832613340113312,0.0013055595336481929,0.0014709122478961945,-0.39311158657073975,-0.2351587563753128,-9.9692964553833,4,1,44.0,0,0,1993,1712
26.37319400,26373194,1,0.00034186331322416663,0.0006592759164050221,0.001515423646196723,-0.3950709402561188,-0.23662814497947693,-9.968331336975098,4,1,44.0,0,0,1993,1712
26.37677500,26376775,1,3.977579763159156e-05,-0.0003048320359084755,0.0013676538364961743,-0.3993760645389557,-0.23745597898960114,-9.97089672088623,4,1,44.0,0,0,1993,1712
26.37864700,26378647,1,-0.0002346479013795033,-0.001417985069565475,0.0007096515037119389,-0.4041863679885864,-0.23818977177143097,-9.975833892822266,4,1,44.0,0,0,1993,1712
26.38071300,26380713,1,4.7984987759264186e-05,-0.002569217700511217,0.0008489500032737851,-0.4129854142665863,-0.2366752028465271,-9.980607032775879,4,1,44.0,0,0,1993,1712
26.38320700,26383207,1,0.00013327167835086584,-0.002834819722920656,0.0007549682632088661,-0.4193969964981079,-0.23480597138404846,-9.981718063354492,4,1,44.0,0,0,1993,1712
26.38571200,26385712,1,0.0003255316987633705,-0.0030385556165128946,0.0003551202535163611,-0.42432406544685364,-0.2334960252046585,-9.982763290405273,4,1,44.0,0,0,1993,1712
26.38878900,26388789,1,0.0006224680691957474,-0.002334895310923457,0.00012161166523583233,-0.42385900020599365,-0.23073619604110718,-9.983220100402832,4,1,44.0,0,0,1993,1712
26.39070000,26390700,1,0.0007870937697589397,-0.002245256444439292,0.0005988138145767152,-0.4235726296901703,-0.2280576527118683,-9.982970237731934,4,1,44.0,0,0,1988,1712
26.39321100,26393211,1,0.001038757269270718,-0.002110229106619954,0.00043631845619529486,-0.4233606159687042,-0.22650478780269623,-9.985867500305176,4,1,44.0,0,0,1988,1712
26.39570500,26395705,1,0.001499234582297504,-0.0018086464842781425,0.0009392100619152188,-0.4229997396469116,-0.227518230676651,-9.99211597442627,4,1,44.0,0,0,1988,1712
26.39825400,26398254,1,0.0013059362536296248,-0.0013165478594601154,0.0008417664794251323,-0.4223177433013916,-0.22805555164813995,-9.997455596923828,4,1,44.0,0,0,1988,1712
26.40115800,26401158,1,0.0013496984029188752,-0.0008929346222430468,0.0007596786599606276,-0.4213995933532715,-0.23054568469524384,-9.999517440795898,4,1,44.0,0,0,1988,1712
26.40319100,26403191,1,0.0010299631394445896,-7.101355731720105e-05,0.0008262000046670437,-0.420559287071228,-0.23226109147071838,-10.000234603881836,4,1,44.0,0,0,1988,1712
26.40569100,26405691,1,0.000730044674128294,0.00020739357569254935,0.000678591022733599,-0.41662973165512085,-0.23283815383911133,-9.999870300292969,4,1,44.0,0,0,1988,1712
26.40819000,26408190,1,0.0007867827662266791,0.00045408160076476634,0.00020460945961531252,-0.41138893365859985,-0.23281978070735931,-9.997321128845215,4,1,44.0,0,0,1988,1712
26.41069400,26410694,1,0.001318702707067132,0.0007493406301364303,2.1150859538465738e-05,-0.4048103392124176,-0.2330111712217331,-9.993468284606934,4,1,44.0,0,0,1988,1712
26.41357000,26413570,1,0.001137415412813425,0.001293169567361474,-1.9580588741519023e-06,-0.4039606750011444,-0.23280902206897736,-9.991215705871582,4,1,44.0,0,0,1988,1712
26.41569700,26415697,1,0.0010257306275889277,0.0010650077601894736,0.00013903675426263362,-0.4057629108428955,-0.23242339491844177,-9.989742279052734,4,1,44.0,0,0,1988,1712
26.41824700,26418247,1,0.0007448194664902985,0.0009247093694284558,9.980134200304747e-05,-0.40744704008102417,-0.23149491846561432,-9.989236831665039,4,1,44.0,0,0,1988,1712
26.42071700,26420717,1,0.0006765509606339037,0.0005252130795270205,5.945458906353451e-05,-0.4071277379989624,-0.2305229753255844,-9.987223625183105,4,1,44.0,0,0,1988,1712
26.42321600,26423216,1,0.0008561807335354388,0.00021539244335144758,-0.0005068940226919949,-0.4072139859199524,-0.2299121916294098,-9.986815452575684,4,1,44.0,0,0,1988,1712
26.42612800,26426128,1,0.0007798047154210508,-0.00035912389284931123,-0.0004290272481739521,-0.40532243251800537,-0.2295900583267212,-9.985322952270508,4,1,44.0,0,0,1988,1712
26.42820800,26428208,1,0.0007951118750497699,-0.0006748802261427045,-0.00034793178201653063,-0.40321144461631775,-0.22845430672168732,-9.985391616821289,4,1,44.0,0,0,1988,1712
26.43069700,26430697,1,0.0009521276224404573,-0.0009337278897874057,2.9966828151373193e-05,-0.3993755578994751,-0.22795939445495605,-9.987930297851562,4,1,44.0,0,0,1988,1712
26.43322700,26433227,1,0.0013712153304368258,-0.0006595867453143001,0.0002570041979197413,-0.3976671099662781,-0.22759021818637848,-9.98827838897705,4,1,44.0,0,0,1988,1712
26.43569800,26435698,1,0.0013781845336779952,-0.0005292046116665006,7.144040137063712e-05,-0.39970308542251587,-0.22842222452163696,-9.989691734313965,4,1,44.0,0,0,1988,1712
26.43869300,26438693,1,0.0015680035576224327,-0.0005577722331508994,0.00036907329922541976,-0.40282753109931946,-0.22974072396755219,-9.990056037902832,4,1,44.0,0,0,1988,1712
26.44068500,26440685,1,0.0015944899059832096,-0.0006457582348957658,0.00028287689201533794,-0.4048307538032532,-0.23162783682346344,-9.986628532409668,4,1,44.0,0,0,1988,1712
26.44319900,26443199,1,0.0017012638272717595,-0.0011444484116509557,-8.963293657870963e-05,-0.40291890501976013,-0.2347446233034134,-9.98129653930664,4,1,44.0,0,0,1988,1712
26.44570900,26445709,1,0.0020184991881251335,-0.002138849813491106,-0.0009026738116517663,-0.4020272493362427,-0.23507961630821228,-9.977346420288086,4,1,44.0,0,0,1988,1712
26.44818900,26448189,1,0.0026772073470056057,-0.00237650447525084,-0.000841902568936348,-0.402060866355896,-0.23381604254245758,-9.974468231201172,4,1,44.0,0,0,1988,1712
26.45111900,26451119,1,0.0032318306621164083,-0.0022136960178613663,-0.0011240321910008788,-0.4018113315105438,-0.23192450404167175,-9.977119445800781,4,1,44.0,0,0,1988,1712
26.45321300,26453213,1,0.0026324826758354902,-0.0025456189177930355,-0.00022946657554712147,-0.39890581369400024,-0.23100179433822632,-9.979911804199219,4,1,44.0,0,0,1988,1712
26.45568300,26455683,1,0.001932807033881545,-0.0028790850192308426,0.0003464561887085438,-0.39511212706565857,-0.23007290065288544,-9.983774185180664,4,1,44.0,0,0,1988,1712
26.45821400,26458214,1,0.0009935001144185662,-0.0032759380992501974,0.000880143023096025,-0.3932666778564453,-0.23152537643909454,-9.987312316894531,4,1,44.0,0,0,1988,1712
26.46069400,26460694,1,-0.0006878700223751366,-0.0026663802564144135,0.0014452027389779687,-0.39246875047683716,-0.23404847085475922,-9.987143516540527,4,1,44.0,0,0,1988,1712
26.46359500,26463595,1,-0.0020143266301602125,-0.002183066913858056,0.001275818096473813,-0.3935573101043701,-0.23424431681632996,-9.985123634338379,4,1,44.0,0,0,1988,1712
26.46569400,26465694,1,-0.002142303856089711,-0.0017837327904999256,0.0006669633439742029,-0.39121976494789124,-0.23354050517082214,-9.983808517456055,4,1,44.0,0,0,1988,1712
26.46822100,26468221,1,-0.0020049461163580418,-0.0012787545565515757,0.0010537048801779747,-0.3926772475242615,-0.23105549812316895,-9.987703323364258,4,1,44.0,0,0,1988,1712
26.47069700,26470697,1,-0.0020939449314028025,-0.0008728249813430011,0.000640786369331181,-0.39387860894203186,-0.23097209632396698,-9.99095344543457,4,1,44.0,0,0,1988,1712
26.47319100,26473191,1,-0.0018460835563018918,-0.00026227327180095017,5.273991700960323e-05,-0.39512521028518677,-0.2321324199438095,-9.992197036743164,4,1,44.0,0,0,1988,1712
26.47646200,26476462,1,-0.0018049548380076885,-0.0001784159248927608,6.413306982722133e-05,-0.3935904800891876,-0.2352188378572464,-9.993165969848633,4,1,44.0,0,0,1988,1712
26.47820700,26478207,1,-0.0011942132841795683,0.0002641974133439362,8.016741048777476e-05,-0.3926842212677002,-0.23599551618099213,-9.99399185180664,4,1,44.0,0,0,1988,1712
26.48069500,26480695,1,-0.0009148571407422423,0.0007212391356006265,-0.00012896537373308092,-0.39112603664398193,-0.2371525764465332,-9.998061180114746,4,1,44.0,0,0,1988,1712
26.48319200,26483192,1,-0.0001236252428498119,0.0008131365175358951,-0.0008268448291346431,-0.3905263841152191,-0.23711194097995758,-9.999917984008789,4,1,44.0,0,0,1988,1712
26.48570900,26485709,1,0.000429565436206758,0.0008240488823503256,-0.0008430439629592001,-0.39087870717048645,-0.23650488257408142,-10.001260757446289,4,1,44.0,0,0,1988,1712
26.48884900,26488849,1,0.0008062781998887658,0.00044608957250602543,-0.0008499645628035069,-0.39181622862815857,-0.23612965643405914,-10.002416610717773,4,1,44.0,0,0,1988,1712
26.49071400,26490714,1,0.0006153016001917422,-3.798927355092019e-05,-0.0009991147089749575,-0.39387065172195435,-0.23684050142765045,-10.002361297607422,4,1,44.0,0,0,1988,1712
26.49320900,26493209,1,0.0008034864440560341,-0.0009148499229922891,-0.000611310126259923,-0.39706212282180786,-0.23723767697811127,-9.9967679977417,4,1,44.0,0,0,1988,1712
26.49569900,26495699,1,0.0004973752074874938,-0.0014469015877693892,-0.00043594642193056643,-0.4012143611907959,-0.23691003024578094,-9.992413520812988,4,1,44.0,0,0,1988,1712
26.49824400,26498244,1,0.0007207242888398468,-0.002978808479383588,-0.0004264774906914681,-0.4049748480319977,-0.23403921723365784,-9.991637229919434,4,1,44.0,0,0,1988,1712
26.50109300,26501093,1,0.0008100970881059766,-0.003419425105676055,-0.0006190159474499524,-0.40400609374046326,-0.23251187801361084,-9.987953186035156,4,1,44.0,0,0,1988,1712
26.50319700,26503197,1,0.0007583887199871242,-0.003153366269543767,-0.0007266866159625351,-0.4018399119377136,-0.2334718555212021,-9.97807788848877,4,1,44.0,0,0,1988,1712
26.50568800,26505688,1,0.0003924664342775941,-0.0027411889750510454,-0.0010332659585401416,-0.4019753336906433,-0.23291750252246857,-9.97338581085205,4,1,44.0,0,0,1988,1712
26.50820300,26508203,1,0.00022436851577367634,-0.002435225062072277,-0.0009817006066441536,-0.4039671719074249,-0.23131008446216583,-9.973286628723145,4,1,44.0,0,0,1988,1712
26.51071000,26510710,1,0.0006762165576219559,-0.0022155267652124166,-0.0003208302950952202,-0.4084029793739319,-0.23173901438713074,-9.97506046295166,4,1,44.0,0,0,1988,1712
26.51365300,26513653,1,0.001348251709714532,-0.002050168812274933,0.00026053591864183545,-0.41024041175842285,-0.23203402757644653,-9.977639198303223,4,1,44.0,0,0,1988,1712
26.51568100,26515681,1,0.0018974854610860348,-0.003006045240908861,0.0007401331095024943,-0.40879762172698975,-0.23124860227108002,-9.981865882873535,4,1,44.0,0,0,1988,1712
26.51821700,26518217,1,0.002490810351446271,-0.0032566713634878397,0.00027787944418378174,-0.40868639945983887,-0.2317027449607849,-9.985252380371094,4,1,44.0,0,0,1988,1712
26.52069600,26520696,1,0.0023905241396278143,-0.003713869722560048,0.0005705010844394565,-0.40919023752212524,-0.23134277760982513,-9.986933708190918,4,1,44.0,0,0,1988,1712
26.52320100,26523201,1,0.0021506729535758495,-0.0031273397617042065,0.0002522524737287313,-0.41038408875465393,-0.23118872940540314,-9.983827590942383,4,1,44.0,0,0,1988,1712
26.52610400,26526104,1,0.0019767966587096453,-0.0026667648926377296,0.00011288325185887516,-0.4087536931037903,-0.23140588402748108,-9.980910301208496,4,1,44.0,0,0,1988,1712
26.52820000,26528200,1,0.0020394979510456324,-0.0022215666249394417,-0.00020678344299085438,-0.40870213508605957,-0.22928886115550995,-9.98431396484375,4,1,44.0,0,0,1988,1712
26.53068800,26530688,1,0.0016458079917356372,-0.0023629257921129465,-0.000578440201934427,-0.4089234471321106,-0.22959187626838684,-9.986604690551758,4,1,44.0,0,0,1988,1712
26.53320300,26533203,1,0.0011833077296614647,-0.001827590516768396,-0.001182691426947713,-0.4074224829673767,-0.2284306436777115,-9.989909172058105,4,1,44.0,0,0,1988,1712
26.53570100,26535701,1,0.000892366049811244,-0.0013958766357973218,-0.001716927858069539,-0.4054160416126251,-0.2293989211320877,-9.99511432647705,4,1,44.0,0,0,1988,1712
26.53880600,26538806,1,0.0005542677245102823,-0.0012315174099057913,-0.0018208629917353392,-0.4004650115966797,-0.23006758093833923,-9.999171257019043,4,1,44.0,0,0,1988,1712
26.54068200,26540682,1,0.00016760177095420659,-0.0011316570453345776,-0.0017476791981607676,-0.39603811502456665,-0.23175852000713348,-10.002169609069824,4,1,44.0,0,0,1988,1712
26.54320400,26543204,1,0.0002536025131121278,-0.0004804063937626779,-0.0017227414064109325,-0.3934318721294403,-0.23477940261363983,-10.00452709197998,4,1,44.0,0,0,1988,1712
26.54570200,26545702,1,5.9037010942120105e-05,9.858371049631387e-05,-0.001162142027169466,-0.3928166627883911,-0.23573023080825806,-10.00515079498291,4,1,44.0,0,0,1988,1712
26.54823300,26548233,1,-4.397390966914827e-06,4.4039610656909645e-05,-0.0009788696188479662,-0.3953942358493805,-0.23679548501968384,-10.000364303588867,4,1,44.0,0,0,1988,1712
26.55111200,26551112,1,-0.00019449344836175442,-0.00030248958501033485,9.726703865453601e-05,-0.39812588691711426,-0.23498614132404327,-9.993409156799316,4,1,44.0,0,0,1988,1712
26.55320500,26553205,1,-0.00024107913486659527,-0.0003830893838312477,0.00029721547616645694,-0.40094369649887085,-0.23512917757034302,-9.987942695617676,4,1,44.0,0,0,1988,1712
26.55569600,26555696,1,-0.000246639596298337,-0.0014175260439515114,0.00014530062617268413,-0.40313780307769775,-0.23615795373916626,-9.982848167419434,4,1,44.0,0,0,1988,1712
26.55822100,26558221,1,-5.622584285447374e-05,-0.0014120039995759726,0.000781766779255122,-0.40742096304893494,-0.23494496941566467,-9.980806350708008,4,1,44.0,0,0,1988,1712
26.56069300,26560693,1,0.00048202279140241444,-0.0014227696228772402,0.000625669548753649,-0.41066092252731323,-0.2333294004201889,-9.985677719116211,4,1,44.0,0,0,1988,1712
26.56356400,26563564,1,0.0007411715923808515,-0.0018189031397923827,0.0006463231984525919,-0.41150230169296265,-0.23250806331634521,-9.992006301879883,4,1,44.0,0,0,1988,1712
26.56568600,26565686,1,0.001075567677617073,-0.002398358192294836,0.00039642874617129564,-0.40741047263145447,-0.23050011694431305,-9.994368553161621,4,1,44.0,0,0,1988,1712
26.56819600,26568196,1,0.0013268088223412633,-0.0020822291262447834,0.00028113217558711767,-0.40552258491516113,-0.22943541407585144,-9.999744415283203,4,1,44.0,0,0,1988,1712
26.57069700,26570697,1,0.001762975356541574,-0.0016985766123980284,0.00021177256712689996,-0.4032919704914093,-0.2311960905790329,-10.001736640930176,4,1,44.0,0,0,1988,1712
26.57319300,26573193,1,0.0014981639105826616,-0.0015292876632884145,3.8560265238629654e-05,-0.40129703283309937,-0.23371480405330658,-10.001435279846191,4,1,44.0,0,0,1988,1712
26.57646400,26576464,1,0.001254055998288095,-0.0015005990862846375,0.0007772163953632116,-0.40117838978767395,-0.23685570061206818,-9.998210906982422,4,1,44.0,0,0,1988,1712
26.57821000,26578210,1,0.0007602759869769216,-0.001722246059216559,0.0008957835379987955,-0.4005321264266968,-0.23687775433063507,-9.996530532836914,4,1,44.0,0,0,1988,1712
26.58074700,26580747,1,0.000285827525658533,-0.0016972407465800643,0.0011791563592851162,-0.3993956744670868,-0.23753440380096436,-9.99470329284668,4,1,44.0,0,0,1988,1712
26.58319400,26583194,1,-0.0004328616487327963,-0.0015472350642085075,0.0011167762568220496,-0.40205198526382446,-0.23701803386211395,-9.993841171264648,4,1,44.0,0,0,1988,1712
26.58569200,26585692,1,-0.0009394350927323103,-0.001888038357719779,0.0013411849504336715,-0.40462636947631836,-0.23678158223628998,-9.990008354187012,4,1,44.0,0,0,1988,1712
26.58880600,26588806,1,-0.0008718372555449605,-0.0028906536754220724,0.0013885271036997437,-0.40545815229415894,-0.23662222921848297,-9.988397598266602,4,1,44.0,0,0,1988,1712
26.59072900,26590729,1,-0.0011567362817004323,-0.0027028131298720837,0.001614351524040103,-0.4061451256275177,-0.2348569929599762,-9.988431930541992,4,1,44.0,0,0,1988,1712
26.59319500,26593195,1,-0.0010031816782429814,-0.002692850772291422,0.0011423277901485562,-0.40768638253211975,-0.23439234495162964,-9.987202644348145,4,1,44.0,0,0,1988,1712
26.59567100,26595671,1,-0.0012794170761480927,-0.0024885484017431736,0.0005756436730735004,-0.4081578254699707,-0.2354404330253601,-9.988931655883789,4,1,44.0,0,0,1988,1712
26.59826200,26598262,1,-0.0016594792250543833,-0.002444942481815815,0.00026247018831782043,-0.40818503499031067,-0.23710958659648895,-9.989547729492188,4,1,44.0,0,0,1988,1712
26.60110700,26601107,1,-0.0011514289071783423,-0.0021610399708151817,-3.602333163144067e-05,-0.4075217843055725,-0.23836013674736023,-9.989503860473633,4,1,44.0,0,0,1988,1712
26.60318300,26603183,1,-0.0007370953098870814,-0.0024502514861524105,-0.0004366443317849189,-0.406478613615036,-0.24078106880187988,-9.991786003112793,4,1,44.0,0,0,1988,1712
26.60570400,26605704,1,-0.00021932537492830306,-0.0022579659707844257,-0.0006796034285798669,-0.40595126152038574,-0.2417309284210205,-9.991522789001465,4,1,44.0,0,0,1988,1712
26.60820300,26608203,1,0.0005521534476429224,-0.001167232054285705,-0.0010477914474904537,-0.4036758244037628,-0.2399280071258545,-9.987290382385254,4,1,44.0,0,0,1988,1712
26.61064700,26610647,1,0.0009934084955602884,0.00025885936338454485,-0.0007345470366999507,-0.4016743004322052,-0.2372993379831314,-9.982905387878418,4,1,44.0,0,0,1988,1712
26.61362800,26613628,1,0.0012895294930785894,0.0012128578964620829,-0.000839788350276649,-0.3983442485332489,-0.2336166501045227,-9.978357315063477,4,1,44.0,0,0,1988,1712
26.61568500,26615685,1,0.0012401597341522574,0.0014834223547950387,-6.586825475096703e-05,-0.39632129669189453,-0.22892171144485474,-9.970183372497559,4,1,44.0,0,0,1988,1712
26.61822200,26618222,1,0.0007242075516842306,0.0013924436643719673,0.00011107059253845364,-0.39463451504707336,-0.2260817289352417,-9.966313362121582,4,1,44.0,0,0,1988,1712
26.62068200,26620682,1,0.0003939853922929615,0.001327936421148479,0.00037828346830792725,-0.39296719431877136,-0.22416351735591888,-9.966870307922363,4,1,44.0,0,0,1988,1712
26.62319500,26623195,1,-0.0005445140413939953,0.001163880224339664,0.0011094835354015231,-0.39374473690986633,-0.2250794768333435,-9.966285705566406,4,1,44.0,0,0,1988,1712
26.62624000,26626240,1,-0.0009533088305033743,0.0006317083607427776,0.000861635897308588,-0.39825373888015747,-0.22884276509284973,-9.96768856048584,4,1,44.0,0,0,1988,1712
26.62818300,26628183,1,-0.0012540186289697886,0.0001341988827334717,0.0010018525645136833,-0.40297645330429077,-0.23244613409042358,-9.968230247497559,4,1,44.0,0,0,1988,1712
26.63068800,26630688,1,-0.001579742063768208,5.88290931773372e-05,0.0008532555657438934,-0.4074529707431793,-0.23522573709487915,-9.967101097106934,4,1,44.0,0,0,1988,1712
26.63319700,26633197,1,-0.001619621179997921,0.00010055639722850174,0.0005463752313517034,-0.40950581431388855,-0.2372831255197525,-9.968184471130371,4,1,44.0,0,0,1988,1712
26.63569600,26635696,1,-0.0009967408841475844,0.0001641889539314434,0.0005873693153262138,-0.41235795617103577,-0.23883725702762604,-9.969892501831055,4,1,44.0,0,0,1988,1712
26.63870300,26638703,1,1.9094921299256384e-05,-0.00046796989045105875,0.0006926835048943758,-0.41364187002182007,-0.23945961892604828,-9.973671913146973,4,1,44.0,0,0,1988,1712
26.64069500,26640695,1,0.0005416887579485774,-3.265151099185459e-05,-6.047376155038364e-05,-0.4112177789211273,-0.2380591779947281,-9.9751615524292,4,1,44.0,0,0,1988,1712
26.64322200,26643222,1,0.0011811769800260663,0.0002320741768926382,-0.0005485907895490527,-0.4088060259819031,-0.23691019415855408,-9.979119300842285,4,1,44.0,0,0,1988,1712
26.64569700,26645697,1,0.0018861370626837015,9.928398503689095e-05,-0.0011064064456149936,-0.40793827176094055,-0.23514746129512787,-9.98637580871582,4,1,44.0,0,0,1988,1712
26.64821200,26648212,1,0.0016573953907936811,-5.371471343096346e-05,-0.001365467207506299,-0.40718528628349304,-0.23684294521808624,-9.992258071899414,4,1,44.0,0,0,1988,1712
26.65106000,26651060,1,0.0011609024368226528,0.00025517577887512743,-0.0008668038644827902,-0.40534883737564087,-0.2381328046321869,-9.994617462158203,4,1,44.0,0,0,1988,1712
26.65321200,26653212,1,0.0010100165382027626,2.5764973543118685e-05,-1.7739226677804254e-05,-0.40645453333854675,-0.23850594460964203,-9.999156951904297,4,1,44.0,0,0,1988,1781
26.65568900,26655689,1,0.0010846678633242846,-0.0002872855693567544,0.0002151140506612137,-0.4078608751296997,-0.23766762018203735,-10.001797676086426,4,1,44.0,0,0,1988,1781
26.65823000,26658230,1,0.000982011086307466,-0.0002701924822758883,0.00022601656382903457,-0.4071142375469208,-0.2382916361093521,-10.003273010253906,4,1,44.0,0,0,1988,1781
26.66069900,26660699,1,0.0007416437147185206,-0.0004195122164674103,0.000574219913687557,-0.4086102843284607,-0.2389826476573944,-10.00784969329834,4,1,44.0,0,0,1988,1781
26.66359300,26663593,1,0.00039263960206881166,8.290580444736406e-05,0.000526474614161998,-0.4082161784172058,-0.23971231281757355,-10.009706497192383,4,1,44.0,0,0,1988,1781
26.66569800,26665698,1,0.00047240997082553804,0.0003198971680831164,0.0008620510343462229,-0.41079822182655334,-0.24120338261127472,-10.007232666015625,4,1,44.0,0,0,1988,1781
26.66818900,26668189,1,-0.00012506311759352684,0.0009287178982049227,0.0012563099153339863,-0.41404250264167786,-0.24058620631694794,-10.006403923034668,4,1,44.0,0,0,1988,1781
26.67071900,26670719,1,-0.0010656440863385797,0.0005188324139453471,0.0015987063525244594,-0.4142131805419922,-0.2407023161649704,-10.002944946289062,4,1,44.0,0,0,1988,1781
26.67320300,26673203,1,-0.001618142006918788,0.000547076459042728,0.0017841266235336661,-0.4116092324256897,-0.23803558945655823,-9.999221801757812,4,1,44.0,0,0,1988,1781
26.67654000,26676540,1,-0.0014838151400908828,0.0006168545223772526,0.001521198428235948,-0.41077721118927,-0.2358950525522232,-9.99478816986084,4,1,44.0,0,0,1988,1781
26.67820100,26678201,1,-0.001554734306409955,6.68495413265191e-05,0.0011081857373937964,-0.4099557399749756,-0.2351938635110855,-9.988184928894043,4,1,44.0,0,0,1988,1781
26.68070500,26680705,1,-0.001481781480833888,0.0004343960899859667,0.0007902343641035259,-0.4069368839263916,-0.23335178196430206,-9.981861114501953,4,1,44.0,0,0,1988,1781
26.68319800,26683198,1,-0.001242989907041192,0.000223188879317604,0.0003490630188025534,-0.4026297926902771,-0.23054231703281403,-9.979764938354492,4,1,44.0,0,0,1988,1781
26.68569400,26685694,1,-0.0012538027949631214,0.0005270118708722293,-0.0007193352212198079,-0.4002695381641388,-0.22668175399303436,-9.980185508728027,4,1,44.0,0,0,1988,1781
26.68879500,26688795,1,-0.0006661005318164825,0.00045606103958562016,-0.0014665724011138082,-0.4020286202430725,-0.22215531766414642,-9.980690956115723,4,1,44.0,0,0,1988,1781
26.69069400,26690694,1,-9.849132766248658e-05,-5.5473094107583165e-05,-0.0017421776428818703,-0.4030631184577942,-0.21809707581996918,-9.982462882995605,4,1,44.0,0,0,1988,1781
26.69321100,26693211,1,0.00029241107404232025,-0.0009186326060444117,-0.0016386971110478044,-0.4020358920097351,-0.21369010210037231,-9.98577880859375,4,1,44.0,0,0,1988,1781
26.69571600,26695716,1,0.0005963603616692126,-0.002102711470797658,-0.0011936824303120375,-0.4000096619129181,-0.21291682124137878,-9.984957695007324,4,1,44.0,0,0,1988,1781
26.69826000,26698260,1,0.0004893029108643532,-0.002945810789242387,-0.0005842919927090406,-0.40076449513435364,-0.212014839053154,-9.981645584106445,4,1,44.0,0,0,1988,1781
26.70110600,26701106,1,0.0004890586715191603,-0.003485851688310504,0.0007387991645373404,-0.40169209241867065,-0.2130754292011261,-9.978167533874512,4,1,44.0,0,0,1988,1781
26.70319400,26703194,1,0.0004552139434963465,-0.0033516474068164825,0.0011327773099765182,-0.40295130014419556,-0.21561706066131592,-9.977021217346191,4,1,44.0,0,0,1988,1781
26.70570100,26705701,1,0.00020350012346170843,-0.003245835890993476,0.0014866823330521584,-0.40476593375205994,-0.21803611516952515,-9.97750473022461,4,1,44.0,0,0,1988,1781
26.70819200,26708192,1,0.000667071552015841,-0.0028144351672381163,0.0009283146937377751,-0.4056214690208435,-0.22063642740249634,-9.975976943969727,4,1,44.0,0,0,1988,1781
26.71069900,26710699,1,0.0008841623202897608,-0.0020902599208056927,0.0005564945167861879,-0.4070952832698822,-0.2237059772014618,-9.975631713867188,4,1,44.0,0,0,1988,1781
26.71357200,26713572,1,0.0013446854427456856,-0.001443738816305995,0.0005737961619161069,-0.40700799226760864,-0.22559693455696106,-9.97794246673584,4,1,44.0,0,0,1988,1781
26.71571300,26715713,1,0.001687946729362011,-0.000940800120588392,0.000458894413895905,-0.4036448299884796,-0.22599650919437408,-9.984136581420898,4,1,44.0,0,0,1988,1781
26.71820900,26718209,1,0.0016480140620842576,-0.0005179329891689122,7.45317738619633e-05,-0.39945143461227417,-0.22625239193439484,-9.989311218261719,4,1,44.0,0,0,1988,1781
