timestamp,TimeUS,GYROx
153.17465800,153174658,0.0013522570952773094
153.25568000,153255680,0.0013522570952773094
153.33620600,153336206,0.0013522570952773094
153.41723300,153417233,0.0013522570952773094
153.49826400,153498264,0.0013522570952773094
153.57897100,153578971,0.00028803758323192596
153.66000900,153660009,0.0013522570952773094
153.74103500,153741035,0.0013522570952773094
153.82206500,153822065,0.0013522570952773094
153.90260400,153902604,0.0013522570952773094
153.98363300,153983633,0.0013522570952773094
154.06466400,154064664,0.0013522570952773094
154.14569400,154145694,0.0013522570952773094
154.22622100,154226221,0.0013522570952773094
154.30725100,154307251,0.00028803758323192596
154.38828300,154388283,0.0013522570952773094
154.46896900,154468969,0.0013522570952773094
154.55001800,154550018,0.0013522570952773094
154.63104500,154631045,0.0013522570952773094
154.71207200,154712072,0.0013522570952773094
154.79261000,154792610,0.00028803758323192596
154.87364200,154873642,0.0013522570952773094
154.95467300,154954673,0.0013522570952773094
155.03570600,155035706,0.0013522570952773094
155.11623300,155116233,0.0013522570952773094
155.19726500,155197265,0.0013522570952773094
155.27848800,155278488,0.0013522570952773094
155.35901700,155359017,0.002416476607322693
155.44005300,155440053,0.0013522570952773094
155.52107800,155521078,0.0013522570952773094
155.60210700,155602107,0.00028803758323192596
155.68265800,155682658,0.00028803758323192596
155.76368600,155763686,0.0013522570952773094
155.84471500,155844715,0.0013522570952773094
155.92574900,155925749,0.0013522570952773094
156.00627400,156006274,0.0013522570952773094
156.08755600,156087556,0.0013522570952773094
156.16808800,156168088,0.0013522570952773094
156.24911500,156249115,0.0013522570952773094
156.33017100,156330171,0.00028803758323192596
156.41070700,156410707,0.00028803758323192596
156.49173400,156491734,0.0013522570952773094
156.57276700,156572767,0.0013522570952773094
156.65347600,156653476,0.0013522570952773094
156.73450900,156734509,0.0013522570952773094
156.81553900,156815539,0.00028803758323192596
156.89656700,156896567,0.0013522570952773094
156.90860000,156908600,0.00028803758323192596
156.90912400,156909124,0.0013522570952773094
156.90965600,156909656,0.0013522570952773094
156.91018800,156910188,0.00028803758323192596
156.91072100,156910721,0.00028803758323192596
156.91124800,156911248,0.00028803758323192596
156.91177700,156911777,0.00028803758323192596
156.91251000,156912510,0.0013522570952773094
156.91253100,156912531,0.0013522570952773094
156.91308900,156913089,0.0013522570952773094
156.91361800,156913618,0.0013522570952773094
156.91414800,156914148,0.0013522570952773094
156.91467400,156914674,0.0013522570952773094
156.91521200,156915212,0.0013522570952773094
156.91574600,156915746,0.002416476607322693
156.91627200,156916272,0.002416476607322693
156.91696600,156916966,0.002416476607322693
156.91698600,156916986,0.0013522570952773094
156.91747900,156917479,0.00028803758323192596
156.91801800,156918018,0.0013522570952773094
156.91854400,156918544,0.002416476607322693
156.91908200,156919082,0.00028803758323192596
156.91961100,156919611,0.002416476607322693
156.92016500,156920165,0.002416476607322693
156.92069200,156920692,-0.0007761819288134575
156.92122200,156921222,-0.0007761819288134575
156.92174800,156921748,0.00028803758323192596
156.92228200,156922282,0.0013522570952773094
156.92301500,156923015,0.0013522570952773094
156.92303500,156923035,0.002416476607322693
156.92349800,156923498,0.0013522570952773094
156.92407800,156924078,0.00028803758323192596
156.92460500,156924605,-0.0007761819288134575
156.92515800,156925158,-0.0007761819288134575
156.92568700,156925687,-0.0007761819288134575
156.92621000,156926210,0.00028803758323192596
156.92674000,156926740,0.0013522570952773094
156.92727300,156927273,0.0013522570952773094
156.92797200,156927972,0.00028803758323192596
156.92859600,156928596,-0.0007761819288134575
156.92861600,156928616,-0.0007761819288134575
156.92910000,156929100,-0.0007761819288134575
156.92962600,156929626,-0.0007761819288134575
156.93017900,156930179,-0.0007761819288134575
156.93071000,156930710,0.0013522570952773094
156.93123600,156931236,0.002416476607322693
156.93176700,156931767,0.00028803758323192596
156.93244800,156932448,0.0013522570952773094
156.93298100,156932981,0.0013522570952773094
156.93350900,156933509,-0.0007761819288134575
156.93406300,156934063,-0.0007761819288134575
156.93461700,156934617,0.00028803758323192596
156.93463700,156934637,0.0013522570952773094
156.93514600,156935146,0.0013522570952773094
156.93566400,156935664,0.0013522570952773094
156.93619000,156936190,0.002416476607322693
156.93673400,156936734,0.0034806961193680763
156.93725900,156937259,0.002416476607322693
156.93787600,156937876,0.0013522570952773094
156.93846800,156938468,0.00028803758323192596
156.93899600,156938996,-0.0007761819288134575
156.93952700,156939527,-0.0007761819288134575
156.94008700,156940087,0.0013522570952773094
156.94060400,156940604,0.0034806961193680763
156.94113300,156941133,0.00028803758323192596
156.94166200,156941662,0.00028803758323192596
156.94221700,156942217,0.002416476607322693
156.94223700,156942237,0.00028803758323192596
156.94273000,156942730,0.00028803758323192596
156.94326000,156943260,0.002416476607322693
156.94382100,156943821,0.0013522570952773094
156.94448200,156944482,0.0013522570952773094
156.94502200,156945022,0.0013522570952773094
156.94557800,156945578,0.0013522570952773094
156.94611000,156946110,0.0013522570952773094
156.94663500,156946635,0.00028803758323192596
156.94716600,156947166,0.00028803758323192596
156.94770200,156947702,0.0013522570952773094
156.94826600,156948266,0.0013522570952773094
156.94828800,156948288,0.0013522570952773094
156.94876900,156948769,0.00028803758323192596
156.94944200,156949442,0.00028803758323192596
156.94997700,156949977,0.0013522570952773094
156.95051200,156950512,0.0013522570952773094
156.95103900,156951039,0.002416476607322693
156.95156400,156951564,0.0013522570952773094
156.95209300,156952093,0.002416476607322693
156.95264900,156952649,0.0013522570952773094
156.95317600,156953176,-0.001840401440858841
156.95370400,156953704,-0.0007761819288134575
156.95423500,156954235,0.00028803758323192596
156.95476300,156954763,-0.001840401440858841
156.95550600,156955506,-0.0007761819288134575
156.95552700,156955527,0.00028803758323192596
156.95600800,156956008,0.0013522570952773094
156.95653500,156956535,0.00028803758323192596
156.95707300,156957073,0.00028803758323192596
156.95761200,156957612,0.00028803758323192596
156.95814200,156958142,0.0013522570952773094
156.95867100,156958671,0.002416476607322693
156.95920300,156959203,0.002416476607322693
156.95973100,156959731,0.0013522570952773094
156.96027100,156960271,0.0013522570952773094
156.96101000,156961010,0.0013522570952773094
156.96103000,156961030,0.0013522570952773094
156.96151000,156961510,0.0013522570952773094
156.96204200,156962042,0.002416476607322693
156.96259300,156962593,-0.0007761819288134575
156.96311500,156963115,0.0013522570952773094
156.96364200,156963642,0.0034806961193680763
156.96418500,156964185,0.0013522570952773094
156.96471100,156964711,0.00028803758323192596
156.96524800,156965248,0.002416476607322693
156.96577800,156965778,0.00028803758323192596
156.96643800,156966438,-0.0007761819288134575
156.96699600,156966996,0.00028803758323192596
156.96701800,156967018,0.00028803758323192596
156.96754300,156967543,0.00028803758323192596
156.96808400,156968084,0.0013522570952773094
156.96861200,156968612,0.0013522570952773094
156.96913900,156969139,0.00028803758323192596
156.96967400,156969674,0.0013522570952773094
156.97021100,156970211,0.0013522570952773094
156.97074200,156970742,0.00028803758323192596
156.97127700,156971277,0.00028803758323192596
156.97197000,156971970,-0.0007761819288134575
156.97250900,156972509,0.00028803758323192596
156.97306900,156973069,0.00028803758323192596
156.97308900,156973089,-0.0007761819288134575
156.97356700,156973567,0.00028803758323192596
156.97409500,156974095,0.0034806961193680763
156.97462800,156974628,0.0013522570952773094
156.97517800,156975178,0.00028803758323192596
156.97571000,156975710,0.002416476607322693
156.97623400,156976234,0.0013522570952773094
156.97677000,156976770,0.00028803758323192596
156.97749200,156977492,0.002416476607322693
156.97802100,156978021,0.002416476607322693
156.97854700,156978547,0.0013522570952773094
156.97911200,156979112,0.002416476607322693
156.97913100,156979131,0.002416476607322693
156.97961400,156979614,0.0013522570952773094
156.98016600,156980166,0.0013522570952773094
156.98069600,156980696,0.0013522570952773094
156.98122200,156981222,0.002416476607322693
156.98175300,156981753,0.0013522570952773094
156.98228300,156982283,0.00028803758323192596
156.98294600,156982946,0.00028803758323192596
156.98347200,156983472,0.00028803758323192596
156.98401000,156984010,0.0013522570952773094
156.98453200,156984532,0.0034806961193680763
156.98510700,156985107,0.0034806961193680763
156.98562700,156985627,0.0013522570952773094
156.98616000,156986160,0.0013522570952773094
156.98671300,156986713,0.002416476607322693
156.98673200,156986732,0.00028803758323192596
156.98721600,156987216,0.00028803758323192596
156.98775100,156987751,0.002416476607322693
156.98828400,156988284,0.0013522570952773094
156.98895900,156988959,0.00028803758323192596
156.98956500,156989565,0.0013522570952773094
156.99010100,156990101,0.002416476607322693
156.99063300,156990633,0.0013522570952773094
156.99116100,156991161,-0.0007761819288134575
156.99168900,156991689,0.00028803758323192596
156.99221700,156992217,0.00028803758323192596
156.99278800,156992788,0.0013522570952773094
156.99280800,156992808,0.002416476607322693
156.99346500,156993465,0.002416476607322693
156.99406400,156994064,0.002416476607322693
156.99458900,156994589,0.002416476607322693
156.99513800,156995138,0.0013522570952773094
156.99567300,156995673,-0.0007761819288134575
156.99619700,156996197,-0.0007761819288134575
156.99673000,156996730,0.0034806961193680763
156.99725500,156997255,0.0034806961193680763
156.99783500,156997835,0.0013522570952773094
156.99785600,156997856,0.0034806961193680763
156.99847300,156998473,0.002416476607322693
156.99900300,156999003,0.00028803758323192596
156.99958100,156999581,0.002416476607322693
157.00013400,157000134,0.0013522570952773094
157.00066400,157000664,0.00028803758323192596
157.00118900,157001189,0.00028803758323192596
157.00172500,157001725,0.002416476607322693
157.00224900,157002249,0.0013522570952773094
157.00279400,157002794,0.0013522570952773094
157.00349900,157003499,0.00028803758323192596
157.00351900,157003519,0.0013522570952773094
157.00401100,157004011,0.002416476607322693
157.00453400,157004534,0.0013522570952773094
157.00509200,157005092,0.0013522570952773094
157.00561200,157005612,0.00028803758323192596
157.00613900,157006139,-0.0007761819288134575
157.00666900,157006669,-0.001840401440858841
157.00719400,157007194,-0.001840401440858841
157.00773700,157007737,0.0013522570952773094
157.00826400,157008264,0.0013522570952773094
157.00896800,157008968,0.00028803758323192596
157.00899300,157008993,0.002416476607322693
157.00948300,157009483,0.0013522570952773094
157.01002400,157010024,-0.0007761819288134575
157.01055400,157010554,0.0013522570952773094
157.01108700,157011087,0.0013522570952773094
157.01161100,157011611,0.0013522570952773094
157.01214100,157012141,0.0013522570952773094
157.01268400,157012684,0.00028803758323192596
157.01321200,157013212,0.00028803758323192596
157.01374200,157013742,-0.0007761819288134575
157.01427300,157014273,0.00028803758323192596
157.01498400,157014984,0.00028803758323192596
157.01554500,157015545,-0.0007761819288134575
157.01556500,157015565,0.00028803758323192596
157.01604500,157016045,0.0013522570952773094
157.01657200,157016572,0.002416476607322693
157.01710300,157017103,0.0013522570952773094
157.01765200,157017652,0.0013522570952773094
157.01818200,157018182,0.002416476607322693
157.01870900,157018709,0.0013522570952773094
157.01924000,157019240,0.00028803758323192596
157.01977000,157019770,0.002416476607322693
157.02045400,157020454,0.002416476607322693
157.02098000,157020980,-0.0007761819288134575
157.02150700,157021507,0.0013522570952773094
157.02211000,157022110,0.0013522570952773094
157.02212900,157022129,-0.0007761819288134575
157.02263700,157022637,0.00028803758323192596
157.02315300,157023153,0.0013522570952773094
157.02367700,157023677,0.0013522570952773094
157.02421100,157024211,0.002416476607322693
157.02473800,157024738,0.002416476607322693
157.02528900,157025289,0.002416476607322693
157.02595400,157025954,0.0013522570952773094
157.02648500,157026485,0.0013522570952773094
157.02701400,157027014,0.0013522570952773094
157.02761100,157027611,0.00028803758323192596
157.02816700,157028167,0.00028803758323192596
157.02818600,157028186,-0.0007761819288134575
157.02866600,157028666,0.00028803758323192596
157.02919900,157029199,0.002416476607322693
157.02972500,157029725,0.002416476607322693
157.03026600,157030266,-0.0007761819288134575
157.03091600,157030916,0.0013522570952773094
157.03146200,157031462,0.0013522570952773094
157.03208100,157032081,-0.0007761819288134575
157.03262900,157032629,0.00028803758323192596
157.03315900,157033159,0.002416476607322693
157.03368500,157033685,-0.0007761819288134575
157.03424200,157034242,-0.0007761819288134575
157.03426200,157034262,0.0013522570952773094
157.03474200,157034742,0.0013522570952773094
157.03528300,157035283,0.0013522570952773094
157.03594600,157035946,0.0013522570952773094
157.03658200,157036582,0.0013522570952773094
157.03711800,157037118,0.0013522570952773094
157.03766600,157037666,-0.001840401440858841
157.03819200,157038192,-0.001840401440858841
157.03872000,157038720,0.00028803758323192596
157.03925300,157039253,0.00028803758323192596
157.03987400,157039874,0.00028803758323192596
157.03989400,157039894,0.00028803758323192596
157.04043500,157040435,0.00028803758323192596
157.04097400,157040974,0.0013522570952773094
157.04150000,157041500,0.002416476607322693
157.04203000,157042030,0.0013522570952773094
157.04258600,157042586,0.00028803758323192596
157.04309800,157043098,-0.0007761819288134575
157.04362300,157043623,0.0013522570952773094
157.04415400,157044154,0.00028803758323192596
157.04468300,157044683,0.0013522570952773094
157.04522100,157045221,0.00454491563141346
157.04575400,157045754,0.0013522570952773094
157.04628600,157046286,0.00028803758323192596
157.04694000,157046940,0.0013522570952773094
157.04695900,157046959,0.002416476607322693
157.04755600,157047556,0.002416476607322693
157.04809200,157048092,0.002416476607322693
157.04861200,157048612,0.002416476607322693
157.04914000,157049140,0.002416476607322693
157.04967000,157049670,0.0013522570952773094
157.05021300,157050213,0.00028803758323192596
157.05074200,157050742,0.00028803758323192596
157.05126900,157051269,0.00028803758323192596
157.05197000,157051970,0.00028803758323192596
157.05199000,157051990,0.00028803758323192596
157.05261200,157052612,0.0013522570952773094
157.05313600,157053136,0.002416476607322693
157.05366100,157053661,0.0013522570952773094
157.05419300,157054193,-0.0007761819288134575
157.05472000,157054720,0.002416476607322693
157.05525900,157055259,0.002416476607322693
157.05582600,157055826,0.00028803758323192596
157.05643400,157056434,0.0013522570952773094
157.05711300,157057113,0.002416476607322693
157.05713300,157057133,0.00028803758323192596
157.05762300,157057623,0.0013522570952773094
157.05815400,157058154,0.0013522570952773094
157.05867900,157058679,0.00028803758323192596
157.05921200,157059212,0.0013522570952773094
157.05974100,157059741,0.00028803758323192596
157.06028000,157060280,-0.0007761819288134575
157.06092000,157060920,0.0013522570952773094
157.06160800,157061608,0.002416476607322693
157.06162800,157061628,0.0013522570952773094
157.06211700,157062117,0.00028803758323192596
157.06266100,157062661,0.00028803758323192596
157.06319000,157063190,0.00028803758323192596
157.06371600,157063716,0.00028803758323192596
157.06424800,157064248,-0.0007761819288134575
157.06477600,157064776,-0.0007761819288134575
157.06545100,157065451,0.002416476607322693
157.06599300,157065993,0.0013522570952773094
157.06651900,157066519,0.00028803758323192596
157.06704800,157067048,0.0034806961193680763
157.06761300,157067613,0.0013522570952773094
157.06763700,157067637,-0.0007761819288134575
157.06811900,157068119,0.002416476607322693
157.06864300,157068643,0.0013522570952773094
157.06917400,157069174,0.00028803758323192596
157.06970100,157069701,0.00028803758323192596
157.07023900,157070239,0.00028803758323192596
157.07077100,157070771,0.0013522570952773094
157.07144300,157071443,0.002416476607322693
157.07207900,157072079,0.0013522570952773094
157.07263000,157072630,-0.0007761819288134575
157.07317800,157073178,-0.0007761819288134575
157.07320000,157073200,0.0013522570952773094
157.07367500,157073675,0.0013522570952773094
157.07421000,157074210,0.0013522570952773094
157.07473800,157074738,0.00028803758323192596
157.07528000,157075280,-0.0007761819288134575
157.07594500,157075945,-0.001840401440858841
157.07656400,157076564,-0.0007761819288134575
157.07709400,157077094,0.0013522570952773094
157.07764600,157077646,-0.0007761819288134575
157.07817500,157078175,-0.0007761819288134575
157.07872700,157078727,0.0013522570952773094
157.07875000,157078750,-0.0007761819288134575
157.07923100,157079231,0.00028803758323192596
157.07975800,157079758,0.002416476607322693
157.08042500,157080425,0.0013522570952773094
157.08096900,157080969,0.00028803758323192596
157.08156300,157081563,0.00028803758323192596
157.08209500,157082095,0.0013522570952773094
157.08264200,157082642,0.002416476607322693
157.08316000,157083160,0.0013522570952773094
157.08368700,157083687,0.0013522570952773094
157.08421800,157084218,0.0013522570952773094
157.08474500,157084745,0.0013522570952773094
157.08531400,157085314,0.0013522570952773094
157.08533700,157085337,0.00028803758323192596
157.08594600,157085946,0.00028803758323192596
157.08647600,157086476,0.00028803758323192596
157.08700100,157087001,0.00028803758323192596
157.08754000,157087540,0.002416476607322693
157.08807200,157088072,0.0013522570952773094
157.08860100,157088601,-0.0007761819288134575
157.08912900,157089129,0.0013522570952773094
157.08965800,157089658,0.0013522570952773094
157.09019600,157090196,0.00028803758323192596
157.09072700,157090727,0.0013522570952773094
157.09125000,157091250,0.0013522570952773094
157.09189400,157091894,0.0013522570952773094
157.09191400,157091914,0.0013522570952773094
157.09247100,157092471,0.002416476607322693
157.09300900,157093009,0.0013522570952773094
157.09352700,157093527,0.002416476607322693
157.09406300,157094063,0.0013522570952773094
157.09459200,157094592,0.00028803758323192596
157.09514100,157095141,0.00028803758323192596
157.09567900,157095679,0.0013522570952773094
157.09620200,157096202,0.0013522570952773094
157.09673300,157096733,0.00028803758323192596
157.09725700,157097257,0.0013522570952773094
157.09785500,157097855,0.0013522570952773094
157.09850100,157098501,0.00028803758323192596
157.09852100,157098521,0.00028803758323192596
157.09900700,157099007,0.0013522570952773094
157.09953300,157099533,0.0013522570952773094
157.10011200,157100112,0.00028803758323192596
157.10062800,157100628,0.002416476607322693
157.10115500,157101155,0.0013522570952773094
157.10168500,157101685,0.00028803758323192596
157.10221500,157102215,0.0034806961193680763
157.10275100,157102751,0.0034806961193680763
157.10328100,157103281,0.0013522570952773094
157.10393400,157103934,0.0013522570952773094
157.10446200,157104462,0.002416476607322693
157.10503400,157105034,0.0013522570952773094
157.10505600,157105056,0.0013522570952773094
157.10553500,157105535,0.0013522570952773094
157.10605800,157106058,0.0013522570952773094
157.10658800,157106588,0.0013522570952773094
157.10712000,157107120,0.002416476607322693
157.10766800,157107668,0.002416476607322693
157.10820200,157108202,0.0013522570952773094
157.10872800,157108728,0.0013522570952773094
157.10925700,157109257,0.002416476607322693
157.10987200,157109872,0.0034806961193680763
157.11045400,157110454,0.00028803758323192596
157.11098600,157110986,0.0013522570952773094
157.11151300,157111513,0.00454491563141346
157.11207100,157112071,0.002416476607322693
157.11263400,157112634,0.002416476607322693
157.11265400,157112654,0.00454491563141346
157.11313900,157113139,0.00028803758323192596
157.11367000,157113670,-0.0007761819288134575
157.11420000,157114200,0.00028803758323192596
157.11472900,157114729,0.0013522570952773094
157.11526900,157115269,0.0013522570952773094
157.11596800,157115968,0.0013522570952773094
157.11649700,157116497,0.0013522570952773094
157.11702500,157117025,0.00028803758323192596
157.11758400,157117584,0.00028803758323192596
157.11809700,157118097,0.0013522570952773094
157.11862700,157118627,0.0013522570952773094
157.11918600,157119186,0.0013522570952773094
157.11920800,157119208,0.0013522570952773094
157.11970100,157119701,0.00028803758323192596
157.12023900,157120239,0.00028803758323192596
157.12076800,157120768,0.0013522570952773094
157.12147200,157121472,0.002416476607322693
157.12200300,157122003,0.00028803758323192596
157.12259800,157122598,0.0013522570952773094
157.12312000,157123120,0.002416476607322693
157.12364600,157123646,0.0013522570952773094
157.12418000,157124180,0.002416476607322693
157.12470500,157124705,0.002416476607322693
157.12527000,157125270,-0.0007761819288134575
157.12529000,157125290,0.0013522570952773094
157.12577300,157125773,0.0034806961193680763
157.12643300,157126433,0.0013522570952773094
157.12697100,157126971,0.00028803758323192596
157.12751100,157127511,0.0013522570952773094
157.12803900,157128039,0.0013522570952773094
157.12856800,157128568,0.0013522570952773094
157.12910300,157129103,0.0013522570952773094
157.12962700,157129627,0.0013522570952773094
157.13017600,157130176,0.002416476607322693
157.13070900,157130709,0.002416476607322693
157.13123400,157131234,0.0013522570952773094
157.13176300,157131763,0.0013522570952773094
157.13249800,157132498,0.0013522570952773094
157.13252100,157132521,0.00028803758323192596
157.13300100,157133001,-0.0007761819288134575
157.13352700,157133527,-0.0007761819288134575
157.13406800,157134068,0.00028803758323192596
157.13459600,157134596,0.00028803758323192596
157.13515200,157135152,-0.0007761819288134575
157.13568500,157135685,0.00028803758323192596
157.13621100,157136211,0.0013522570952773094
157.13674000,157136740,-0.0007761819288134575
157.13727600,157137276,0.002416476607322693
157.13800700,157138007,0.0034806961193680763
157.13802800,157138028,0.002416476607322693
157.13850800,157138508,0.00028803758323192596
157.13907200,157139072,0.0013522570952773094
157.13959900,157139599,0.002416476607322693
157.14015900,157140159,0.002416476607322693
157.14069200,157140692,0.0013522570952773094
157.14121900,157141219,0.00028803758323192596
157.14175300,157141753,0.0013522570952773094
157.14227600,157142276,0.0013522570952773094
157.14298000,157142980,0.0013522570952773094
157.14300000,157143000,0.002416476607322693
157.14347800,157143478,0.002416476607322693
157.14401600,157144016,0.00028803758323192596
157.14456500,157144565,0.00028803758323192596
157.14510300,157145103,0.00028803758323192596
157.14563700,157145637,0.0013522570952773094
157.14616800,157146168,0.00028803758323192596
157.14669300,157146693,0.00028803758323192596
157.14722600,157147226,0.002416476607322693
157.14776500,157147765,0.002416476607322693
157.14847600,157148476,0.002416476607322693
157.14906300,157149063,0.002416476607322693
157.14908300,157149083,0.002416476607322693
157.14956700,157149567,0.0013522570952773094
157.15010700,157150107,0.0013522570952773094
157.15064000,157150640,0.0013522570952773094
157.15116600,157151166,0.0013522570952773094
157.15169600,157151696,0.0013522570952773094
157.15222500,157152225,0.0013522570952773094
157.15277500,157152775,0.0013522570952773094
157.15346900,157153469,0.0013522570952773094
157.15400100,157154001,0.0013522570952773094
157.15452600,157154526,0.0013522570952773094
157.15510200,157155102,0.0013522570952773094
157.15512400,157155124,0.00028803758323192596
157.15559800,157155598,0.00028803758323192596
157.15612500,157156125,0.002416476607322693
157.15665700,157156657,0.0013522570952773094
157.15718800,157157188,-0.0007761819288134575
157.15772700,157157727,0.0013522570952773094
157.15825700,157158257,0.002416476607322693
157.15885700,157158857,-0.0007761819288134575
157.15946500,157159465,0.00028803758323192596
157.16000500,157160005,0.0034806961193680763
157.16053600,157160536,0.0013522570952773094
157.16106800,157161068,-0.0007761819288134575
157.16159100,157161591,-0.0007761819288134575
157.16212600,157162126,0.00028803758323192596
157.16270000,157162700,0.0013522570952773094
157.16272000,157162720,0.0013522570952773094
157.16320700,157163207,0.00028803758323192596
157.16373400,157163734,0.00028803758323192596
157.16427100,157164271,0.00028803758323192596
157.16501100,157165011,0.00028803758323192596
157.16554800,157165548,-0.0007761819288134575
157.16607800,157166078,-0.0007761819288134575
157.16660200,157166602,0.00028803758323192596
157.16713200,157167132,-0.0007761819288134575
157.16767600,157167676,0.0013522570952773094
157.16820800,157168208,0.0013522570952773094
157.16875700,157168757,-0.0007761819288134575
157.16877700,157168777,0.00028803758323192596
157.16927100,157169271,0.0013522570952773094
157.16999000,157169990,-0.0007761819288134575
157.17055100,157170551,0.0013522570952773094
157.17104000,157171040,0.0034806961193680763
157.17156900,157171569,0.0013522570952773094
157.17209900,157172099,0.0013522570952773094
157.17265200,157172652,0.0013522570952773094
157.17318100,157173181,0.0013522570952773094
157.17370900,157173709,0.00028803758323192596
157.17424200,157174242,0.0013522570952773094
157.17476700,157174767,0.00028803758323192596
157.17549600,157175496,0.0013522570952773094
157.17551700,157175517,0.002416476607322693
157.17599500,157175995,0.002416476607322693
157.17652100,157176521,0.002416476607322693
157.17705000,157177050,0.002416476607322693
157.17760000,157177600,0.0013522570952773094
157.17811900,157178119,0.00028803758323192596
157.17864500,157178645,-0.001840401440858841
157.17917500,157179175,0.0013522570952773094
157.17970200,157179702,0.002416476607322693
157.18024300,157180243,0.00028803758323192596
157.18077100,157180771,0.002416476607322693
157.18149000,157181490,0.0034806961193680763
157.18151200,157181512,0.0013522570952773094
157.18199300,157181993,0.002416476607322693
157.18253200,157182532,0.002416476607322693
157.18306400,157183064,0.0013522570952773094
157.18359400,157183594,0.00028803758323192596
157.18412200,157184122,-0.0007761819288134575
157.18465000,157184650,0.00028803758323192596
157.18518800,157185188,0.0013522570952773094
157.18572000,157185720,0.00028803758323192596
157.18625600,157186256,0.00028803758323192596
157.18677800,157186778,0.0013522570952773094
157.18751200,157187512,0.0013522570952773094
157.18753200,157187532,0.00028803758323192596
157.18801700,157188017,0.00028803758323192596
157.18854300,157188543,0.00028803758323192596
157.18907200,157189072,0.0013522570952773094
157.18960300,157189603,0.002416476607322693
157.19014400,157190144,0.0013522570952773094
157.19067200,157190672,-0.0007761819288134575
157.19119700,157191197,0.0013522570952773094
157.19173000,157191730,0.0013522570952773094
157.19226100,157192261,-0.0007761819288134575
157.19285000,157192850,0.00028803758323192596
157.19347100,157193471,0.002416476607322693
157.19402400,157194024,0.00028803758323192596
157.19404500,157194045,-0.001840401440858841
157.19453400,157194534,-0.001840401440858841
157.19508900,157195089,0.0013522570952773094
157.19560300,157195603,0.0013522570952773094
157.19613300,157196133,0.00028803758323192596
157.19666900,157196669,-0.0007761819288134575
157.19719300,157197193,-0.0007761819288134575
157.19773200,157197732,0.00028803758323192596
157.19826700,157198267,0.00028803758323192596
157.19896200,157198962,0.0013522570952773094
157.19959600,157199596,0.002416476607322693
157.19961600,157199616,0.0013522570952773094
157.20011300,157200113,0.0013522570952773094
157.20064000,157200640,0.002416476607322693
157.20116500,157201165,0.002416476607322693
157.20169100,157201691,0.002416476607322693
157.20222600,157202226,0.002416476607322693
157.20276300,157202763,0.0013522570952773094
157.20346800,157203468,0.00028803758323192596
157.20399900,157203999,0.0013522570952773094
157.20457700,157204577,0.0034806961193680763
157.20513300,157205133,0.002416476607322693
157.20569300,157205693,0.002416476607322693
157.20571300,157205713,0.002416476607322693
157.20619100,157206191,0.00028803758323192596
157.20672600,157206726,0.0013522570952773094
157.20725400,157207254,0.0034806961193680763
157.20780000,157207800,0.0034806961193680763
157.20846800,157208468,0.0013522570952773094
157.20907300,157209073,0.00028803758323192596
157.20960400,157209604,0.00028803758323192596
157.21015600,157210156,0.00028803758323192596
157.21071400,157210714,0.0013522570952773094
157.21073400,157210734,0.002416476607322693
157.21121700,157211217,0.002416476607322693
157.21174300,157211743,0.002416476607322693
157.21227300,157212273,0.0013522570952773094
157.21297500,157212975,0.00028803758323192596
157.21349700,157213497,-0.0007761819288134575
157.21404200,157214042,0.00028803758323192596
157.21456600,157214566,0.00028803758323192596
157.21510600,157215106,0.0013522570952773094
157.21563400,157215634,0.00028803758323192596
157.21615900,157216159,0.0013522570952773094
157.21669200,157216692,0.0013522570952773094
157.21721800,157217218,-0.0007761819288134575
157.21775800,157217758,-0.0007761819288134575
157.21831000,157218310,0.00028803758323192596
157.21833000,157218330,0.0013522570952773094
157.21896000,157218960,0.002416476607322693
157.21949000,157219490,0.002416476607322693
157.22010200,157220102,0.0013522570952773094
157.22063300,157220633,-0.0007761819288134575
157.22115900,157221159,0.00028803758323192596
157.22169100,157221691,0.0013522570952773094
157.22221800,157222218,0.0013522570952773094
157.22275600,157222756,0.00028803758323192596
157.22328200,157223282,0.00028803758323192596
157.22396200,157223962,0.00028803758323192596
157.22398400,157223984,0.00028803758323192596
157.22447000,157224470,0.00028803758323192596
157.22509700,157225097,0.0013522570952773094
157.22562200,157225622,0.0034806961193680763
157.22614900,157226149,0.002416476607322693
157.22668100,157226681,0.0013522570952773094
157.22720800,157227208,0.002416476607322693
157.22775300,157227753,0.0013522570952773094
157.22827700,157228277,0.00028803758323192596
157.22896700,157228967,0.002416476607322693
157.22899100,157228991,0.0013522570952773094
157.22946900,157229469,0.00028803758323192596
157.23011000,157230110,0.0013522570952773094
157.23064000,157230640,0.0013522570952773094
157.23116500,157231165,0.00028803758323192596
157.23169800,157231698,0.0013522570952773094
157.23222400,157232224,0.00028803758323192596
157.23276300,157232763,0.00028803758323192596
157.23332900,157233329,0.00028803758323192596
157.23399100,157233991,0.00028803758323192596
157.23401100,157234011,0.00028803758323192596
157.23449000,157234490,0.00028803758323192596
157.23511900,157235119,0.00028803758323192596
157.23565400,157235654,0.002416476607322693
157.23618200,157236182,0.002416476607322693
157.23670800,157236708,0.00028803758323192596
157.23724000,157237240,0.00028803758323192596
157.23778100,157237781,0.0034806961193680763
157.23847800,157238478,0.002416476607322693
157.23903200,157239032,0.0013522570952773094
157.23905500,157239055,0.002416476607322693
157.23953800,157239538,0.00028803758323192596
157.24009600,157240096,-0.0007761819288134575
157.24061400,157240614,0.00028803758323192596
157.24114200,157241142,0.0013522570952773094
157.24166800,157241668,0.0013522570952773094
157.24220100,157242201,0.00028803758323192596
157.24273700,157242737,-0.0007761819288134575
157.24326700,157243267,0.00028803758323192596
157.24394000,157243940,0.0013522570952773094
157.24459500,157244595,0.002416476607322693
157.24461500,157244615,0.0013522570952773094
157.24510800,157245108,-0.0007761819288134575
157.24564000,157245640,0.00028803758323192596
157.24617000,157246170,0.00028803758323192596
157.24669800,157246698,0.00028803758323192596
157.24723000,157247230,0.0013522570952773094
157.24776300,157247763,0.002416476607322693
157.24846700,157248467,0.00028803758323192596
157.24906100,157249061,0.0013522570952773094
157.24959400,157249594,0.002416476607322693
157.25017400,157250174,-0.0007761819288134575
157.25019400,157250194,0.00028803758323192596
157.25067500,157250675,0.002416476607322693
157.25120200,157251202,0.002416476607322693
157.25173700,157251737,0.002416476607322693
157.25226700,157252267,0.0013522570952773094
157.25297900,157252979,0.002416476607322693
157.25351100,157253511,0.002416476607322693
157.25406500,157254065,0.002416476607322693
157.25459100,157254591,0.0013522570952773094
157.25514400,157255144,0.00028803758323192596
157.25567900,157255679,0.00028803758323192596
157.25623000,157256230,0.00028803758323192596
157.25625000,157256250,0.0013522570952773094
157.25673500,157256735,0.0013522570952773094
157.25726500,157257265,0.002416476607322693
157.25792300,157257923,0.002416476607322693
157.25858600,157258586,0.0013522570952773094
157.25912500,157259125,0.0013522570952773094
157.25964900,157259649,0.00028803758323192596
157.26020100,157260201,-0.0007761819288134575
157.26073500,157260735,0.002416476607322693
157.26128600,157261286,0.0013522570952773094
157.26130600,157261306,-0.0007761819288134575
157.26191100,157261911,0.00028803758323192596
157.26250100,157262501,0.0013522570952773094
157.26303000,157263030,0.002416476607322693
157.26355500,157263555,0.0013522570952773094
157.26408900,157264089,0.002416476607322693
157.26461400,157264614,0.0013522570952773094
157.26516600,157265166,0.0013522570952773094
157.26569700,157265697,0.0013522570952773094
157.26622600,157266226,0.002416476607322693
157.26676000,157266760,0.002416476607322693
157.26737600,157267376,0.0013522570952773094
157.26739600,157267396,0.00028803758323192596
157.26795100,157267951,0.00028803758323192596
157.26858400,157268584,0.00028803758323192596
157.26911500,157269115,-0.0007761819288134575
157.26964500,157269645,0.00028803758323192596
157.27018500,157270185,0.00028803758323192596
157.27071300,157270713,0.00028803758323192596
157.27124100,157271241,0.0013522570952773094
157.27176800,157271768,0.00028803758323192596
157.27251200,157272512,0.002416476607322693
157.27253200,157272532,0.002416476607322693
157.27301700,157273017,0.0013522570952773094
157.27354100,157273541,0.0013522570952773094
157.27407400,157274074,0.00028803758323192596
157.27460100,157274601,0.00028803758323192596
157.27516600,157275166,0.00028803758323192596
157.27569600,157275696,0.0013522570952773094
157.27622100,157276221,0.002416476607322693
157.27675700,157276757,0.002416476607322693
157.27735700,157277357,0.002416476607322693
157.27798100,157277981,0.0013522570952773094
157.27800100,157278001,0.0013522570952773094
157.27859900,157278599,0.0013522570952773094
157.27912800,157279128,0.0013522570952773094
157.27965400,157279654,0.0013522570952773094
157.28020100,157280201,0.00028803758323192596
157.28073100,157280731,-0.0007761819288134575
157.28125800,157281258,0.0013522570952773094
157.28184000,157281840,0.0034806961193680763
157.28252400,157282524,0.0013522570952773094
157.28254500,157282545,0.002416476607322693
157.28306500,157283065,0.002416476607322693
157.28359900,157283599,-0.0007761819288134575
157.28412600,157284126,0.0013522570952773094
157.28465800,157284658,0.002416476607322693
157.28519600,157285196,0.00028803758323192596
157.28573200,157285732,0.00028803758323192596
157.28625800,157286258,0.0013522570952773094
157.28684100,157286841,0.0013522570952773094
157.28747600,157287476,0.002416476607322693
157.28800700,157288007,0.002416476607322693
157.28853200,157288532,0.002416476607322693
157.28910800,157289108,0.002416476607322693
157.28912800,157289128,0.002416476607322693
157.28960900,157289609,0.002416476607322693
157.29014500,157290145,0.002416476607322693
157.29067800,157290678,0.0013522570952773094
157.29120000,157291200,0.002416476607322693
157.29173900,157291739,0.002416476607322693
157.29226400,157292264,0.0013522570952773094
157.29292000,157292920,0.00028803758323192596
157.29346900,157293469,-0.0007761819288134575
157.29400200,157294002,0.0013522570952773094
157.29453100,157294531,0.0013522570952773094
157.29510700,157295107,0.0013522570952773094
157.29566800,157295668,0.002416476607322693
157.29568800,157295688,0.002416476607322693
157.29617100,157296171,0.0013522570952773094
157.29669900,157296699,0.0013522570952773094
157.29722900,157297229,0.00028803758323192596
157.29776700,157297767,0.0013522570952773094
157.29844500,157298445,0.0013522570952773094
157.29897200,157298972,0.00028803758323192596
157.29950600,157299506,0.0013522570952773094
157.30004700,157300047,0.0013522570952773094
157.30057700,157300577,0.002416476607322693
157.30110300,157301103,0.002416476607322693
157.30163900,157301639,0.0013522570952773094
157.30216600,157302166,0.002416476607322693
157.30271200,157302712,0.002416476607322693
157.30326400,157303264,0.002416476607322693
157.30328600,157303286,0.0034806961193680763
157.30376200,157303762,0.002416476607322693
157.30443600,157304436,0.002416476607322693
157.30497800,157304978,0.0034806961193680763
157.30554100,157305541,0.0013522570952773094
157.30603500,157306035,0.0013522570952773094
157.30658200,157306582,0.002416476607322693
157.30711200,157307112,0.00028803758323192596
157.30766500,157307665,0.00028803758323192596
157.30819700,157308197,0.0013522570952773094
157.30872300,157308723,0.0013522570952773094
157.30925700,157309257,0.0013522570952773094
157.30985600,157309856,0.0013522570952773094
157.31048000,157310480,0.0013522570952773094
157.31050000,157310500,0.0013522570952773094
157.31098400,157310984,0.002416476607322693
157.31156400,157311564,0.002416476607322693
157.31209600,157312096,0.0013522570952773094
157.31264900,157312649,0.002416476607322693
157.31317500,157313175,0.0013522570952773094
157.31370300,157313703,0.0013522570952773094
157.31423300,157314233,-0.0007761819288134575
157.31476000,157314760,-0.0007761819288134575
157.31548100,157315481,0.00028803758323192596
157.31550300,157315503,0.002416476607322693
157.31597700,157315977,-0.0007761819288134575
157.31656600,157316566,0.00028803758323192596
157.31709600,157317096,0.0013522570952773094
157.31764700,157317647,-0.001840401440858841
157.31817300,157318173,0.0013522570952773094
157.31870500,157318705,0.0034806961193680763
157.31923700,157319237,0.0013522570952773094
157.31976200,157319762,0.0013522570952773094
157.32048300,157320483,0.00028803758323192596
157.32050600,157320506,-0.0007761819288134575
157.32098700,157320987,0.00028803758323192596
157.32449600,157324496,0.00028803758323192596
157.32451500,157324515,0.00028803758323192596
157.32453500,157324535,0.00028803758323192596
157.32455400,157324554,0.00028803758323192596
157.32457400,157324574,0.0013522570952773094
157.32459400,157324594,0.002416476607322693
157.32503800,157325038,0.0013522570952773094
157.32507200,157325072,0.00028803758323192596
157.32553900,157325539,0.00028803758323192596
157.32606400,157326064,0.0013522570952773094
157.32659100,157326591,0.0013522570952773094
157.32712200,157327122,-0.0007761819288134575
157.32767900,157327679,-0.0007761819288134575
157.32820100,157328201,0.0013522570952773094
157.32873200,157328732,0.0013522570952773094
157.32926300,157329263,0.00028803758323192596
157.32993500,157329935,0.002416476607322693
157.33048200,157330482,0.0013522570952773094
157.33100500,157331005,0.002416476607322693
157.33153400,157331534,0.0034806961193680763
157.33210700,157332107,0.002416476607322693
157.33212700,157332127,0.0013522570952773094
157.33263500,157332635,0.00028803758323192596
157.33315100,157333151,0.00028803758323192596
157.33367700,157333677,0.0013522570952773094
157.33421500,157334215,0.002416476607322693
157.33474300,157334743,0.0013522570952773094
157.33528200,157335282,0.0013522570952773094
157.33597300,157335973,0.00028803758323192596
157.33650200,157336502,-0.0007761819288134575
157.33703000,157337030,-0.001840401440858841
157.33758300,157337583,-0.0007761819288134575
157.33810200,157338102,0.0013522570952773094
157.33865300,157338653,0.00028803758323192596
157.33867200,157338672,-0.0007761819288134575
157.33915800,157339158,0.0013522570952773094
157.33968400,157339684,0.00028803758323192596
157.34022500,157340225,-0.001840401440858841
157.34076300,157340763,0.0013522570952773094
157.34128200,157341282,0.002416476607322693
157.34194900,157341949,0.0013522570952773094
157.34248800,157342488,0.0013522570952773094
157.34301700,157343017,0.00028803758323192596
157.34354200,157343542,0.00028803758323192596
157.34407200,157344072,0.0013522570952773094
157.34460000,157344600,0.002416476607322693
157.34515300,157345153,0.002416476607322693
157.34567100,157345671,0.0013522570952773094
157.34620400,157346204,0.0013522570952773094
157.34675700,157346757,0.00028803758323192596
157.34677700,157346777,-0.0007761819288134575
157.34726200,157347262,0.00028803758323192596
157.34787300,157347873,0.00028803758323192596
157.34846800,157348468,0.0013522570952773094
157.34900100,157349001,0.0013522570952773094
157.34956300,157349563,0.002416476607322693
157.35010600,157350106,0.0013522570952773094
157.35063600,157350636,0.00028803758323192596
157.35116600,157351166,0.002416476607322693
157.35169900,157351699,0.002416476607322693
157.35222300,157352223,0.0013522570952773094
157.35277500,157352775,0.002416476607322693
157.35350200,157353502,0.002416476607322693
157.35352300,157353523,0.002416476607322693
157.35401000,157354010,0.0013522570952773094
157.35453400,157354534,0.0013522570952773094
157.35509200,157355092,0.0013522570952773094
157.35561400,157355614,0.0013522570952773094
157.35614200,157356142,0.0013522570952773094
157.35668300,157356683,0.0013522570952773094
157.35720500,157357205,0.00028803758323192596
157.35774200,157357742,-0.0007761819288134575
157.35827500,157358275,0.00028803758323192596
157.35896400,157358964,0.0013522570952773094
157.35898400,157358984,0.0013522570952773094
157.35957100,157359571,0.0013522570952773094
157.36012400,157360124,0.002416476607322693
157.36064500,157360645,0.002416476607322693
157.36117000,157361170,0.0013522570952773094
157.36170400,157361704,-0.0007761819288134575
157.36222800,157362228,0.0013522570952773094
157.36277300,157362773,0.002416476607322693
157.36349500,157363495,0.0013522570952773094
157.36351700,157363517,0.0013522570952773094
157.36408500,157364085,0.0013522570952773094
157.36461400,157364614,-0.001840401440858841
157.36516900,157365169,-0.001840401440858841
157.36570000,157365700,-0.0007761819288134575
157.36622300,157366223,0.00028803758323192596
157.36675300,157366753,0.002416476607322693
157.36728100,157367281,0.0034806961193680763
157.36800300,157368003,0.002416476607322693
157.36802600,157368026,0.00028803758323192596
157.36850200,157368502,-0.0007761819288134575
157.36904200,157369042,0.00028803758323192596
157.36956900,157369569,0.0013522570952773094
157.37011200,157370112,0.00028803758323192596
157.37064500,157370645,0.00028803758323192596
157.37117200,157371172,0.0013522570952773094
157.37169800,157371698,-0.0007761819288134575
157.37223400,157372234,-0.0007761819288134575
157.37276900,157372769,0.0013522570952773094
157.37344100,157373441,0.002416476607322693
157.37397200,157373972,0.00028803758323192596
157.37449800,157374498,0.00028803758323192596
157.37508200,157375082,0.0013522570952773094
157.37510700,157375107,-0.0007761819288134575
157.37557100,157375571,0.00028803758323192596
157.37610100,157376101,0.002416476607322693
157.37662700,157376627,0.002416476607322693
157.37715900,157377159,0.002416476607322693
157.37770300,157377703,0.0013522570952773094
157.37822600,157378226,0.0013522570952773094
157.37874900,157378749,0.00028803758323192596
157.37927900,157379279,-0.0007761819288134575
157.37997300,157379973,-0.0007761819288134575
157.38053200,157380532,-0.0007761819288134575
157.38106200,157381062,0.00028803758323192596
157.38158900,157381589,0.0013522570952773094
157.38214500,157382145,0.0013522570952773094
157.38216500,157382165,0.0013522570952773094
157.38267100,157382671,0.0013522570952773094
157.38320400,157383204,0.0013522570952773094
157.38373200,157383732,0.00028803758323192596
157.38425900,157384259,0.00028803758323192596
157.38493100,157384931,-0.0007761819288134575
157.38548600,157385486,0.002416476607322693
157.38601600,157386016,0.002416476607322693
157.38654100,157386541,0.00028803758323192596
157.38706900,157387069,0.0013522570952773094
157.38760800,157387608,0.0013522570952773094
157.38813800,157388138,0.0013522570952773094
157.38866400,157388664,0.00028803758323192596
157.38922100,157389221,0.0013522570952773094
157.38924100,157389241,0.0013522570952773094
157.38972400,157389724,0.0013522570952773094
157.39027500,157390275,0.00028803758323192596
157.39094600,157390946,-0.0007761819288134575
157.39147100,157391471,0.00028803758323192596
157.39200000,157392000,-0.0007761819288134575
157.39260200,157392602,0.00028803758323192596
157.39313000,157393130,0.0013522570952773094
157.39365400,157393654,0.00028803758323192596
157.39418400,157394184,0.00028803758323192596
157.39471500,157394715,0.00028803758323192596
157.39525400,157395254,0.00028803758323192596
157.39580900,157395809,0.002416476607322693
157.39582900,157395829,-0.0007761819288134575
157.39646500,157396465,-0.0007761819288134575
157.39699600,157396996,0.0034806961193680763
157.39759800,157397598,0.0013522570952773094
157.39812900,157398129,-0.0007761819288134575
157.39865500,157398655,0.002416476607322693
157.39918400,157399184,0.0034806961193680763
157.39971200,157399712,0.002416476607322693
157.40025500,157400255,0.0013522570952773094
157.40078500,157400785,0.0013522570952773094
157.40148800,157401488,0.002416476607322693
157.40150800,157401508,0.002416476607322693
157.40206900,157402069,0.0013522570952773094
157.40260700,157402607,0.0013522570952773094
157.40313900,157403139,0.0013522570952773094
157.40366800,157403668,0.00028803758323192596
157.40419500,157404195,0.00028803758323192596
157.40472300,157404723,0.00028803758323192596
157.40526300,157405263,0.002416476607322693
157.40584000,157405840,0.002416476607322693
157.40649300,157406493,0.002416476607322693
157.40651300,157406513,0.002416476607322693
157.40699300,157406993,0.00028803758323192596
157.40753400,157407534,0.0013522570952773094
157.40806200,157408062,0.002416476607322693
157.40858700,157408587,0.00028803758323192596
157.40911400,157409114,0.0013522570952773094
157.40964500,157409645,0.0034806961193680763
157.41019100,157410191,0.0013522570952773094
157.41072000,157410720,0.00028803758323192596
157.41124500,157411245,0.00028803758323192596
157.41178100,157411781,0.0013522570952773094
157.41249800,157412498,0.0013522570952773094
157.41252200,157412522,0.0013522570952773094
157.41300100,157413001,0.0013522570952773094
157.41352700,157413527,0.002416476607322693
157.41407200,157414072,0.0034806961193680763
157.41459500,157414595,0.002416476607322693
157.41514900,157415149,0.00028803758323192596
157.41567900,157415679,0.00028803758323192596
157.41620700,157416207,0.0013522570952773094
157.41674100,157416741,0.00028803758323192596
157.41726800,157417268,0.0013522570952773094
157.41801400,157418014,0.0013522570952773094
157.41860000,157418600,0.002416476607322693
157.41862000,157418620,0.0013522570952773094
157.41910300,157419103,0.00028803758323192596
157.41963300,157419633,0.0013522570952773094
157.42017400,157420174,-0.0007761819288134575
157.42070500,157420705,-0.0007761819288134575
157.42123300,157421233,0.0013522570952773094
157.42176000,157421760,0.0013522570952773094
157.42248300,157422483,0.0013522570952773094
157.42302600,157423026,0.00028803758323192596
157.42356700,157423567,0.00028803758323192596
157.42412900,157424129,0.00028803758323192596
157.42414900,157424149,0.00028803758323192596
157.42463200,157424632,0.00028803758323192596
157.42517500,157425175,0.00028803758323192596
157.42571600,157425716,0.0013522570952773094
157.42622800,157426228,0.0013522570952773094
157.42676300,157426763,0.0013522570952773094
157.42746900,157427469,0.002416476607322693
157.42800600,157428006,0.002416476607322693
157.42856800,157428568,0.002416476607322693
157.42909900,157429099,0.00028803758323192596
157.42962600,157429626,-0.0007761819288134575
157.43020700,157430207,0.002416476607322693
157.43022700,157430227,0.0013522570952773094
157.43071400,157430714,-0.0007761819288134575
157.43123700,157431237,0.0013522570952773094
157.43177900,157431779,0.0013522570952773094
157.43247000,157432470,0.00028803758323192596
157.43303100,157433031,0.00028803758323192596
157.43355800,157433558,0.00028803758323192596
157.43408600,157434086,-0.0007761819288134575
157.43461300,157434613,0.00028803758323192596
157.43516700,157435167,0.0013522570952773094
157.43569600,157435696,0.0013522570952773094
157.43625000,157436250,0.0013522570952773094
157.43627000,157436270,0.0013522570952773094
157.43675500,157436755,0.00028803758323192596
157.43728500,157437285,0.00028803758323192596
157.43794800,157437948,0.0013522570952773094
157.43847300,157438473,0.0013522570952773094
157.43907400,157439074,0.0013522570952773094
157.43960400,157439604,0.002416476607322693
157.44015900,157440159,0.0013522570952773094
157.44069400,157440694,0.00028803758323192596
157.44121800,157441218,0.0013522570952773094
157.44174600,157441746,0.00028803758323192596
157.44227600,157442276,0.00028803758323192596
157.44302600,157443026,0.002416476607322693
157.44304500,157443045,0.0013522570952773094
157.44352900,157443529,-0.0007761819288134575
157.44405700,157444057,0.00028803758323192596
157.44458400,157444584,0.00028803758323192596
157.44513900,157445139,0.00028803758323192596
157.44566800,157445668,0.00028803758323192596
157.44619900,157446199,0.00028803758323192596
157.44672600,157446726,0.00028803758323192596
157.44726400,157447264,0.00028803758323192596
157.44782900,157447829,0.0013522570952773094
157.44849600,157448496,0.0013522570952773094
157.44851800,157448518,0.00028803758323192596
157.44901400,157449014,0.00028803758323192596
157.44953800,157449538,0.00028803758323192596
157.45009500,157450095,0.00028803758323192596
157.45061500,157450615,-0.0007761819288134575
157.45114300,157451143,0.0013522570952773094
157.45167300,157451673,0.002416476607322693
157.45219800,157452198,0.0013522570952773094
157.45274000,157452740,0.0013522570952773094
157.45327100,157453271,0.002416476607322693
157.45396300,157453963,0.00028803758323192596
157.45398700,157453987,-0.0007761819288134575
157.45456400,157454564,0.0034806961193680763
157.45512900,157455129,0.0034806961193680763
157.45565200,157455652,0.002416476607322693
157.45618100,157456181,0.0013522570952773094
157.45670700,157456707,0.00028803758323192596
157.45723800,157457238,0.00028803758323192596
157.45777700,157457777,0.00028803758323192596
157.45850900,157458509,0.00028803758323192596
157.45853000,157458530,0.00028803758323192596
157.45904200,157459042,0.0013522570952773094
157.45957700,157459577,0.0013522570952773094
157.46013400,157460134,0.0013522570952773094
157.46066300,157460663,0.0013522570952773094
157.46118900,157461189,0.0013522570952773094
157.46172600,157461726,0.0013522570952773094
157.46225400,157462254,0.0013522570952773094
157.46287500,157462875,0.002416476607322693
157.46346900,157463469,0.0013522570952773094
157.46400000,157464000,0.00028803758323192596
157.46452600,157464526,0.0013522570952773094
157.46517600,157465176,0.00028803758323192596
157.46519600,157465196,0.00028803758323192596
157.46568100,157465681,0.0013522570952773094
157.46620700,157466207,0.0013522570952773094
157.46674100,157466741,0.0013522570952773094
157.46726600,157467266,0.0013522570952773094
157.46797700,157467977,0.0013522570952773094
157.46856700,157468567,0.0013522570952773094
157.46912600,157469126,0.0013522570952773094
157.46914600,157469146,0.0013522570952773094
157.46962600,157469626,0.0013522570952773094
157.47016800,157470168,0.0013522570952773094
157.47069800,157470698,0.0013522570952773094
157.47122500,157471225,0.0013522570952773094
157.47175700,157471757,0.00028803758323192596
157.47236900,157472369,0.00028803758323192596
157.47297700,157472977,0.00028803758323192596
157.47350100,157473501,-0.0007761819288134575
157.47409000,157474090,0.00028803758323192596
157.47461700,157474617,0.002416476607322693
157.47519600,157475196,0.0013522570952773094
157.47521800,157475218,0.0013522570952773094
157.47570000,157475700,0.00454491563141346
157.47622500,157476225,0.002416476607322693
157.47675500,157476755,-0.0007761819288134575
157.47738000,157477380,0.0013522570952773094
157.47799000,157477990,0.002416476607322693
157.47851900,157478519,0.00028803758323192596
157.47908500,157479085,0.0013522570952773094
157.47961500,157479615,0.0013522570952773094
157.48016700,157480167,0.0013522570952773094
157.48069800,157480698,0.00028803758323192596
157.48125300,157481253,0.00028803758323192596
157.48127300,157481273,0.00028803758323192596
157.48175300,157481753,-0.0007761819288134575
157.48228100,157482281,-0.0007761819288134575
157.48294900,157482949,0.00028803758323192596
157.48348400,157483484,0.0013522570952773094
157.48408300,157484083,0.0013522570952773094
157.48462000,157484620,0.0013522570952773094
157.48517700,157485177,0.00028803758323192596
157.48571300,157485713,0.00028803758323192596
157.48623900,157486239,0.0013522570952773094
157.48677800,157486778,0.002416476607322693
157.48751300,157487513,0.0013522570952773094
157.48753300,157487533,0.00028803758323192596
157.48802100,157488021,0.0013522570952773094
157.48860800,157488608,0.0013522570952773094
157.48913900,157489139,0.00028803758323192596
157.48966300,157489663,0.0013522570952773094
157.49021600,157490216,0.0013522570952773094
157.49074000,157490740,0.0013522570952773094
157.49126300,157491263,0.002416476607322693
157.49187500,157491875,0.0013522570952773094
157.49189500,157491895,0.00028803758323192596
157.49247600,157492476,0.00028803758323192596
157.49300300,157493003,0.00028803758323192596
157.49353100,157493531,0.0013522570952773094
157.49406400,157494064,0.0013522570952773094
157.49459300,157494593,0.0013522570952773094
157.49514500,157495145,0.0013522570952773094
157.49567000,157495670,0.0013522570952773094
157.49619800,157496198,0.0013522570952773094
157.49672500,157496725,0.0013522570952773094
157.49725700,157497257,0.002416476607322693
157.49784000,157497840,0.0034806961193680763
157.49850600,157498506,0.0013522570952773094
157.49852800,157498528,0.00028803758323192596
157.49908100,157499081,0.002416476607322693
157.49961200,157499612,0.00028803758323192596
157.50016400,157500164,0.00028803758323192596
157.50069300,157500693,0.002416476607322693
157.50122200,157501222,0.0013522570952773094
157.50175800,157501758,0.0013522570952773094
157.50235400,157502354,0.002416476607322693
157.50295100,157502951,0.002416476607322693
157.50361100,157503611,0.002416476607322693
157.50363100,157503631,0.0013522570952773094
157.50411600,157504116,0.0013522570952773094
157.50464700,157504647,0.00028803758323192596
157.50518200,157505182,0.00028803758323192596
157.50571400,157505714,0.00028803758323192596
157.50624100,157506241,0.00028803758323192596
157.50678200,157506782,0.00028803758323192596
157.50748200,157507482,0.0013522570952773094
157.50802500,157508025,0.002416476607322693
157.50857300,157508573,0.0013522570952773094
157.50859300,157508593,0.00028803758323192596
157.50907300,157509073,0.0013522570952773094
157.50960300,157509603,0.002416476607322693
157.51015500,157510155,0.0013522570952773094
157.51068600,157510686,0.00028803758323192596
157.51121100,157511211,0.002416476607322693
157.51174100,157511741,0.0013522570952773094
157.51227100,157512271,0.00028803758323192596
157.51294800,157512948,0.002416476607322693
157.51347900,157513479,0.0013522570952773094
157.51407800,157514078,0.002416476607322693
157.51463200,157514632,0.002416476607322693
157.51465400,157514654,0.002416476607322693
157.51515800,157515158,0.0013522570952773094
157.51569200,157515692,0.00028803758323192596
157.51621900,157516219,0.00028803758323192596
157.51675500,157516755,0.0013522570952773094
157.51737200,157517372,0.00028803758323192596
157.51796100,157517961,0.0013522570952773094
157.51848800,157518488,0.0013522570952773094
157.51902700,157519027,0.0013522570952773094
157.51955400,157519554,0.002416476607322693
157.52009800,157520098,0.0013522570952773094
157.52062600,157520626,0.00028803758323192596
157.52115400,157521154,-0.0007761819288134575
157.52170500,157521705,0.0013522570952773094
157.52172700,157521727,-0.0007761819288134575
157.52221200,157522212,-0.001840401440858841
157.52274600,157522746,0.0013522570952773094
157.52327700,157523277,0.002416476607322693
157.52391100,157523911,0.00028803758323192596
157.52449100,157524491,0.002416476607322693
157.52503400,157525034,0.002416476607322693
157.52556300,157525563,0.0013522570952773094
157.52608800,157526088,0.0013522570952773094
157.52661500,157526615,0.00028803758323192596
157.52714700,157527147,0.00028803758323192596
157.52768900,157527689,0.00028803758323192596
157.52821300,157528213,0.0013522570952773094
157.52874100,157528741,0.0013522570952773094
157.52930200,157529302,-0.0007761819288134575
157.52932200,157529322,0.00028803758323192596
157.52997200,157529972,0.0013522570952773094
157.53052000,157530520,0.0013522570952773094
157.53102100,157531021,0.0013522570952773094
157.53158200,157531582,0.0013522570952773094
157.53211200,157532112,0.0013522570952773094
157.53266200,157532662,0.002416476607322693
157.53319400,157533194,0.002416476607322693
157.53372000,157533720,0.002416476607322693
157.53425500,157534255,0.0013522570952773094
157.53478100,157534781,-0.0007761819288134575
157.53544700,157535447,0.0013522570952773094
157.53546800,157535468,0.0013522570952773094
157.53597300,157535973,-0.0007761819288134575
157.53650200,157536502,-0.0007761819288134575
157.53703500,157537035,0.00028803758323192596
157.53757200,157537572,0.00028803758323192596
157.53810100,157538101,0.0013522570952773094
157.53862900,157538629,0.0013522570952773094
157.53915700,157539157,0.00028803758323192596
157.53968700,157539687,0.00028803758323192596
157.54022700,157540227,0.0013522570952773094
157.54075500,157540755,0.002416476607322693
157.54128400,157541284,0.0013522570952773094
157.54197200,157541972,0.0013522570952773094
157.54199200,157541992,0.0013522570952773094
157.54248300,157542483,0.002416476607322693
157.54301600,157543016,0.002416476607322693
157.54354100,157543541,0.002416476607322693
157.54407300,157544073,0.00028803758323192596
157.54459900,157544599,0.00028803758323192596
157.54514900,157545149,0.0034806961193680763
157.54568700,157545687,0.0013522570952773094
157.54621900,157546219,0.00028803758323192596
157.54674400,157546744,0.002416476607322693
157.54728300,157547283,0.0013522570952773094
157.54791800,157547918,-0.0007761819288134575
157.54852800,157548528,0.00028803758323192596
157.54854800,157548548,0.0013522570952773094
157.54906200,157549062,0.0013522570952773094
157.54959100,157549591,0.00028803758323192596
157.55014500,157550145,0.00028803758323192596
157.55067500,157550675,0.00028803758323192596
157.55119700,157551197,0.00028803758323192596
157.55173100,157551731,0.0013522570952773094
157.55226200,157552262,0.002416476607322693
157.55295000,157552950,0.002416476607322693
157.55347900,157553479,0.0013522570952773094
157.55409300,157554093,0.0013522570952773094
157.55411300,157554113,0.00028803758323192596
157.55459500,157554595,0.002416476607322693
157.55515100,157555151,0.00028803758323192596
157.55567700,157555677,0.00028803758323192596
157.55620300,157556203,0.0013522570952773094
157.55673500,157556735,0.00028803758323192596
157.55726700,157557267,0.00028803758323192596
157.55797900,157557979,0.0013522570952773094
157.55850300,157558503,0.00028803758323192596
157.55903000,157559030,0.00028803758323192596
157.55956300,157559563,0.00028803758323192596
157.56010400,157560104,0.00028803758323192596
157.56066400,157560664,0.0013522570952773094
157.56068400,157560684,0.002416476607322693
157.56116900,157561169,0.0013522570952773094
157.56170200,157561702,0.00028803758323192596
157.56222900,157562229,0.00028803758323192596
157.56277200,157562772,0.00028803758323192596
157.56347200,157563472,0.002416476607322693
157.56407100,157564071,0.002416476607322693
157.56459900,157564599,0.0013522570952773094
157.56515500,157565155,0.0013522570952773094
157.56571100,157565711,0.00028803758323192596
157.56573100,157565731,0.0013522570952773094
157.56621100,157566211,-0.0007761819288134575
157.56674100,157566741,0.0013522570952773094
157.56727200,157567272,0.002416476607322693
157.56797600,157567976,0.0013522570952773094
157.56847700,157568477,0.00028803758323192596
157.56901100,157569011,0.002416476607322693
157.56953600,157569536,0.00028803758323192596
157.57009800,157570098,0.00028803758323192596
157.57062200,157570622,0.0013522570952773094
157.57115300,157571153,0.00028803758323192596
157.57167900,157571679,0.00028803758323192596
157.57221000,157572210,0.0013522570952773094
157.57274700,157572747,0.0013522570952773094
157.57330200,157573302,0.0013522570952773094
157.57332200,157573322,0.0013522570952773094
157.57393700,157573937,0.0013522570952773094
157.57447400,157574474,0.0013522570952773094
157.57501600,157575016,0.0013522570952773094
157.57558700,157575587,0.0013522570952773094
157.57611300,157576113,0.002416476607322693
157.57664000,157576640,0.0013522570952773094
157.57717100,157577171,0.0013522570952773094
157.57771500,157577715,0.002416476607322693
157.57823600,157578236,0.0013522570952773094
157.57876200,157578762,0.00028803758323192596
157.57949800,157579498,0.0013522570952773094
157.57951800,157579518,0.002416476607322693
157.58001000,157580010,0.002416476607322693
157.58053600,157580536,0.002416476607322693
157.58107100,157581071,0.0013522570952773094
157.58160000,157581600,0.0013522570952773094
157.58213100,157582131,0.0013522570952773094
157.58268300,157582683,0.00028803758323192596
157.58321000,157583210,0.0013522570952773094
157.58374000,157583740,0.0013522570952773094
157.58426600,157584266,0.00028803758323192596
157.58497500,157584975,0.0013522570952773094
157.58499500,157584995,0.00028803758323192596
157.58548900,157585489,0.00028803758323192596
157.58601500,157586015,0.00028803758323192596
157.58654400,157586544,0.00028803758323192596
157.58707200,157587072,0.00028803758323192596
157.58761200,157587612,0.0013522570952773094
157.58814100,157588141,0.002416476607322693
157.58866800,157588668,0.002416476607322693
157.58919600,157589196,0.0013522570952773094
157.58972600,157589726,0.00028803758323192596
157.59026700,157590267,0.0013522570952773094
157.59099800,157590998,0.0013522570952773094
157.59101800,157591018,0.0013522570952773094
157.59149900,157591499,0.0034806961193680763
157.59203200,157592032,0.0013522570952773094
157.59258300,157592583,0.00028803758323192596
157.59309800,157593098,0.00028803758323192596
157.59362500,157593625,0.0013522570952773094
157.59415600,157594156,0.002416476607322693
157.59468800,157594688,0.0034806961193680763
157.59522400,157595224,0.0013522570952773094
157.59575500,157595755,0.00028803758323192596
157.59628300,157596283,0.00028803758323192596
157.59697400,157596974,0.0013522570952773094
157.59751400,157597514,0.00028803758323192596
157.59810400,157598104,0.00028803758323192596
157.59812600,157598126,0.00028803758323192596
157.59860600,157598606,0.00028803758323192596
157.59913700,157599137,0.00028803758323192596
157.59966200,157599662,-0.0007761819288134575
157.60020000,157600200,0.002416476607322693
157.60073200,157600732,0.0013522570952773094
157.60126000,157601260,0.00028803758323192596
157.60194000,157601940,0.0013522570952773094
157.60247500,157602475,0.0013522570952773094
157.60300700,157603007,0.00028803758323192596
157.60353100,157603531,0.002416476607322693
157.60406600,157604066,0.0013522570952773094
157.60459400,157604594,0.0013522570952773094
157.60517400,157605174,0.0013522570952773094
157.60519400,157605194,0.00028803758323192596
157.60567900,157605679,0.0013522570952773094
157.60620200,157606202,0.0034806961193680763
157.60674300,157606743,0.00454491563141346
157.60726900,157607269,0.002416476607322693
157.60798200,157607982,0.0013522570952773094
157.60851100,157608511,0.0013522570952773094
157.60907600,157609076,0.0013522570952773094
157.60961000,157609610,0.0013522570952773094
157.61016700,157610167,0.0013522570952773094
157.61071800,157610718,0.002416476607322693
157.61073800,157610738,0.002416476607322693
157.61121900,157611219,0.0013522570952773094
157.61175000,157611750,-0.0007761819288134575
157.61227700,157612277,0.00028803758323192596
157.61299200,157612992,0.002416476607322693
157.61351700,157613517,0.0013522570952773094
157.61406900,157614069,0.0013522570952773094
157.61459900,157614599,0.002416476607322693
157.61515200,157615152,0.00028803758323192596
157.61568000,157615680,-0.0007761819288134575
157.61620500,157616205,0.0034806961193680763
157.61673600,157616736,0.002416476607322693
157.61735400,157617354,0.0013522570952773094
157.61737700,157617377,0.00028803758323192596
157.61794800,157617948,0.0013522570952773094
157.61847700,157618477,0.0013522570952773094
157.61907800,157619078,0.00028803758323192596
157.61960300,157619603,-0.0007761819288134575
157.62016600,157620166,0.00028803758323192596
157.62069900,157620699,0.0013522570952773094
157.62122600,157621226,0.00028803758323192596
157.62175300,157621753,0.00028803758323192596
157.62235800,157622358,0.00028803758323192596
157.62301500,157623015,0.0013522570952773094
157.62303600,157623036,0.002416476607322693
157.62357300,157623573,0.002416476607322693
157.62410000,157624100,0.002416476607322693
157.62462500,157624625,0.00028803758323192596
157.62517800,157625178,0.002416476607322693
157.62571100,157625711,0.0034806961193680763
157.62623500,157626235,0.00028803758323192596
157.62677200,157626772,0.0013522570952773094
157.62751300,157627513,0.0034806961193680763
157.62753700,157627537,0.00028803758323192596
157.62801600,157628016,-0.0007761819288134575
157.62857000,157628570,0.00028803758323192596
157.62910600,157629106,0.0013522570952773094
157.62962900,157629629,0.0013522570952773094
157.63017500,157630175,0.002416476607322693
157.63070500,157630705,0.002416476607322693
157.63123100,157631231,0.0013522570952773094
157.63176400,157631764,0.002416476607322693
157.63250000,157632500,0.0034806961193680763
157.63252000,157632520,0.002416476607322693
157.63300500,157633005,0.002416476607322693
157.63353000,157633530,0.0013522570952773094
157.63405800,157634058,0.00028803758323192596
157.63458700,157634587,0.0013522570952773094
157.63513800,157635138,0.0013522570952773094
157.63566800,157635668,0.00028803758323192596
157.63619300,157636193,0.0013522570952773094
157.63672600,157636726,0.0013522570952773094
157.63725800,157637258,-0.0007761819288134575
157.63784800,157637848,0.002416476607322693
157.63847100,157638471,0.0013522570952773094
157.63902900,157639029,-0.0007761819288134575
157.63904800,157639048,0.00028803758323192596
157.63952800,157639528,0.0013522570952773094
157.64008700,157640087,0.0013522570952773094
157.64060500,157640605,0.0013522570952773094
157.64113300,157641133,0.0013522570952773094
157.64166000,157641660,0.00028803758323192596
157.64219100,157642191,0.00028803758323192596
157.64272600,157642726,0.00028803758323192596
157.64325900,157643259,0.00028803758323192596
157.64382200,157643822,0.00028803758323192596
157.64448100,157644481,-0.0007761819288134575
157.64502100,157645021,-0.0007761819288134575
157.64560500,157645605,0.00028803758323192596
157.64562500,157645625,0.0013522570952773094
157.64611000,157646110,0.002416476607322693
157.64663900,157646639,0.002416476607322693
157.64716900,157647169,0.00028803758323192596
157.64770800,157647708,-0.0007761819288134575
157.64823600,157648236,0.0034806961193680763
157.64876500,157648765,0.002416476607322693
157.64943900,157649439,0.00028803758323192596
157.64997500,157649975,0.002416476607322693
157.65050800,157650508,0.0013522570952773094
157.65103400,157651034,-0.0007761819288134575
157.65156200,157651562,0.00028803758323192596
157.65209500,157652095,0.00028803758323192596
157.65264200,157652642,0.00028803758323192596
157.65319700,157653197,0.0013522570952773094
157.65321700,157653217,0.0013522570952773094
157.65369600,157653696,0.0013522570952773094
157.65422600,157654226,0.0013522570952773094
157.65475300,157654753,0.00028803758323192596
157.65530600,157655306,0.00028803758323192596
157.65598600,157655986,0.0013522570952773094
157.65656600,157656566,0.00028803758323192596
157.65709400,157657094,0.00028803758323192596
157.65764500,157657645,0.0013522570952773094
157.65817200,157658172,0.0013522570952773094
157.65869700,157658697,0.00028803758323192596
157.65925600,157659256,-0.0007761819288134575
157.65927600,157659276,0.0013522570952773094
157.65975600,157659756,0.0013522570952773094
157.66037300,157660373,0.00028803758323192596
157.66097200,157660972,0.0013522570952773094
157.66156500,157661565,0.0013522570952773094
157.66209600,157662096,0.0013522570952773094
157.66265300,157662653,0.0013522570952773094
157.66317600,157663176,0.00028803758323192596
157.66370500,157663705,-0.0007761819288134575
157.66423500,157664235,0.00028803758323192596
157.66476200,157664762,0.002416476607322693
157.66551000,157665510,0.002416476607322693
157.66553100,157665531,0.002416476607322693
157.66598400,157665984,0.0013522570952773094
157.66656800,157666568,0.0013522570952773094
157.66710100,157667101,0.0013522570952773094
157.66765400,157667654,0.00028803758323192596
157.66818000,157668180,0.00028803758323192596
157.66870900,157668709,0.0013522570952773094
157.66924200,157669242,0.0013522570952773094
157.66976700,157669767,0.0013522570952773094
157.67048300,157670483,-0.0007761819288134575
157.67050300,157670503,-0.001840401440858841
157.67099000,157670990,0.00028803758323192596
157.67151400,157671514,0.0013522570952773094
157.67204700,157672047,0.0013522570952773094
157.67260000,157672600,0.002416476607322693
157.67311900,157673119,0.00028803758323192596
157.67364900,157673649,0.00028803758323192596
157.67417500,157674175,0.00028803758323192596
157.67470800,157674708,0.0013522570952773094
157.67524800,157675248,0.002416476607322693
157.67577800,157675778,0.0013522570952773094
157.67649700,157676497,0.00028803758323192596
157.67651700,157676517,0.0013522570952773094
157.67700000,157677000,0.002416476607322693
157.67753800,157677538,0.0013522570952773094
157.67807600,157678076,0.00028803758323192596
157.67860400,157678604,0.00028803758323192596
157.67913400,157679134,0.0013522570952773094
157.67966200,157679662,0.0013522570952773094
157.68020000,157680200,0.0013522570952773094
157.68073200,157680732,0.00028803758323192596
157.68125800,157681258,0.0013522570952773094
157.68186100,157681861,0.0034806961193680763
157.68247100,157682471,0.002416476607322693
157.68302900,157683029,0.00028803758323192596
157.68304900,157683049,0.002416476607322693
157.68353500,157683535,0.0013522570952773094
157.68406000,157684060,-0.0007761819288134575
157.68460000,157684600,0.00028803758323192596
157.68514700,157685147,0.0013522570952773094
157.68567600,157685676,0.00028803758323192596
157.68620100,157686201,0.002416476607322693
157.68673900,157686739,0.0013522570952773094
157.68726400,157687264,0.00028803758323192596
157.68791800,157687918,0.002416476607322693
157.68851600,157688516,0.002416476607322693
157.68909300,157689093,0.0013522570952773094
157.68911300,157689113,0.00028803758323192596
157.68959300,157689593,0.00028803758323192596
157.69013300,157690133,0.0013522570952773094
157.69066000,157690660,0.0013522570952773094
157.69118700,157691187,0.0013522570952773094
157.69171600,157691716,0.00028803758323192596
157.69224600,157692246,0.00028803758323192596
157.69278900,157692789,0.00028803758323192596
157.69347300,157693473,0.002416476607322693
157.69406700,157694067,0.002416476607322693
157.69459200,157694592,-0.001840401440858841
157.69518600,157695186,-0.0007761819288134575
157.69520600,157695206,0.002416476607322693
157.69569200,157695692,0.0013522570952773094
157.69622500,157696225,0.0013522570952773094
157.69674800,157696748,0.0034806961193680763
157.69727900,157697279,0.00028803758323192596
157.69792100,157697921,-0.0007761819288134575
157.69847400,157698474,0.00028803758323192596
157.69900900,157699009,0.00028803758323192596
157.69953400,157699534,0.0013522570952773094
157.70010500,157700105,0.0013522570952773094
157.70063500,157700635,0.00028803758323192596
157.70116200,157701162,0.00028803758323192596
157.70169500,157701695,0.0013522570952773094
157.70225200,157702252,0.0013522570952773094
157.70227200,157702272,0.0013522570952773094
157.70276600,157702766,0.0013522570952773094
157.70341400,157703414,0.0013522570952773094
157.70408600,157704086,0.00028803758323192596
157.70461100,157704611,0.00028803758323192596
157.70516400,157705164,0.0013522570952773094
157.70569500,157705695,0.002416476607322693
157.70622100,157706221,0.002416476607322693
157.70675400,157706754,0.0013522570952773094
157.70737000,157707370,0.002416476607322693
157.70739100,157707391,0.00028803758323192596
157.70796500,157707965,-0.0007761819288134575
157.70850100,157708501,0.0013522570952773094
157.70903200,157709032,0.0013522570952773094
157.70955700,157709557,0.0013522570952773094
157.71010100,157710101,0.0013522570952773094
157.71063200,157710632,0.00028803758323192596
157.71115400,157711154,0.00028803758323192596
157.71168700,157711687,0.0013522570952773094
157.71221100,157712211,0.00028803758323192596
157.71274800,157712748,-0.0007761819288134575
157.71327500,157713275,-0.0007761819288134575
157.71396400,157713964,0.00028803758323192596
157.71398900,157713989,0.0013522570952773094
157.71447000,157714470,0.0013522570952773094
157.71501100,157715011,0.0013522570952773094
157.71554400,157715544,0.0013522570952773094
157.71606600,157716066,0.002416476607322693
157.71659300,157716593,0.00028803758323192596
157.71712300,157717123,0.00028803758323192596
157.71767700,157717677,0.002416476607322693
157.71820700,157718207,0.0013522570952773094
157.71873200,157718732,0.0013522570952773094
157.71926300,157719263,0.0034806961193680763
157.72001200,157720012,0.002416476607322693
157.72003300,157720033,0.00028803758323192596
157.72051800,157720518,0.00028803758323192596
157.72104900,157721049,0.0013522570952773094
157.72157400,157721574,0.0013522570952773094
157.72210600,157722106,0.00028803758323192596
157.72265700,157722657,-0.0007761819288134575
157.72318300,157723183,0.00028803758323192596
157.72371100,157723711,0.0013522570952773094
157.72424400,157724244,0.0013522570952773094
157.72477300,157724773,0.0013522570952773094
157.72551500,157725515,0.0013522570952773094
157.72553500,157725535,0.002416476607322693
157.72601200,157726012,0.00028803758323192596
157.72653900,157726539,-0.001840401440858841
157.72706800,157727068,0.00028803758323192596
157.72760800,157727608,0.002416476607322693
157.72814000,157728140,0.0013522570952773094
157.72867500,157728675,0.00028803758323192596
157.72920500,157729205,0.0034806961193680763
157.72973300,157729733,0.002416476607322693
157.73027200,157730272,-0.0007761819288134575
157.73094400,157730944,0.002416476607322693
157.73158900,157731589,0.0034806961193680763
157.73161000,157731610,0.00028803758323192596
157.73209200,157732092,0.00028803758323192596
157.73265700,157732657,0.00028803758323192596
157.73318400,157733184,0.00028803758323192596
157.73371100,157733711,0.0013522570952773094
157.73424800,157734248,0.00028803758323192596
157.73477600,157734776,-0.0007761819288134575
157.73543100,157735431,-0.0007761819288134575
157.73612500,157736125,-0.0007761819288134575
157.73614500,157736145,0.00028803758323192596
157.73663000,157736630,0.0013522570952773094
157.73716100,157737161,0.002416476607322693
157.73769800,157737698,0.0013522570952773094
157.73822900,157738229,0.00028803758323192596
157.73876200,157738762,0.0013522570952773094
157.73945100,157739451,0.002416476607322693
157.73999300,157739993,-0.0007761819288134575
157.74052200,157740522,0.00028803758323192596
157.74105000,157741050,0.0013522570952773094
157.74157700,157741577,0.00028803758323192596
157.74210900,157742109,0.0013522570952773094
157.74265600,157742656,0.002416476607322693
157.74321500,157743215,0.002416476607322693
157.74323500,157743235,0.0013522570952773094
157.74371200,157743712,0.002416476607322693
157.74424600,157744246,0.0013522570952773094
157.74477400,157744774,0.00028803758323192596
157.74544600,157745446,0.00028803758323192596
157.74598000,157745980,0.0013522570952773094
157.74650600,157746506,0.0013522570952773094
157.74703700,157747037,0.0013522570952773094
157.74757900,157747579,0.002416476607322693
157.74811700,157748117,0.002416476607322693
157.74864300,157748643,0.0013522570952773094
157.74917200,157749172,0.0013522570952773094
157.74970600,157749706,0.0013522570952773094
157.75025100,157750251,0.002416476607322693
157.75080200,157750802,0.0034806961193680763
157.75082300,157750823,0.0013522570952773094
157.75140800,157751408,0.002416476607322693
157.75197300,157751973,0.002416476607322693
157.75251100,157752511,0.00028803758323192596
157.75304200,157753042,0.00028803758323192596
157.75356700,157753567,0.0013522570952773094
157.75410100,157754101,0.00028803758323192596
157.75463100,157754631,0.0013522570952773094
157.75517200,157755172,0.0034806961193680763
157.75570300,157755703,0.002416476607322693
157.75622900,157756229,0.002416476607322693
157.75676000,157756760,0.002416476607322693
157.75751100,157757511,0.002416476607322693
157.75753300,157757533,0.002416476607322693
157.75802600,157758026,0.00028803758323192596
157.75854800,157758548,0.00028803758323192596
157.75907700,157759077,0.0013522570952773094
157.75960600,157759606,0.002416476607322693
157.76015900,157760159,0.0013522570952773094
157.76068800,157760688,0.00028803758323192596
157.76121300,157761213,0.0013522570952773094
157.76174500,157761745,0.0013522570952773094
157.76227100,157762271,0.002416476607322693
157.76298600,157762986,0.00028803758323192596
157.76300600,157763006,0.00028803758323192596
157.76348000,157763480,0.0013522570952773094
157.76401600,157764016,0.00028803758323192596
157.76454200,157764542,0.00028803758323192596
157.76511000,157765110,0.0013522570952773094
157.76564100,157765641,0.00028803758323192596
157.76616900,157766169,0.00028803758323192596
157.76670800,157766708,0.0013522570952773094
157.76723700,157767237,0.0013522570952773094
157.76777700,157767777,0.0013522570952773094
157.76844100,157768441,0.0013522570952773094
157.76900300,157769003,0.0013522570952773094
157.76902600,157769026,0.0013522570952773094
157.76950000,157769500,0.0013522570952773094
157.77011300,157770113,0.002416476607322693
157.77064400,157770644,0.002416476607322693
157.77117300,157771173,0.002416476607322693
157.77170200,157771702,0.0013522570952773094
157.77223300,157772233,0.0013522570952773094
157.77277100,157772771,0.002416476607322693
157.77346600,157773466,0.002416476607322693
157.77409700,157774097,0.00028803758323192596
157.77411700,157774117,0.0013522570952773094
157.77459700,157774597,0.00028803758323192596
157.77515300,157775153,0.0013522570952773094
157.77568400,157775684,0.0034806961193680763
157.77620800,157776208,0.002416476607322693
157.77673800,157776738,0.0013522570952773094
157.77726700,157777267,0.0013522570952773094
157.77801300,157778013,0.00028803758323192596
157.77849900,157778499,0.00028803758323192596
157.77902700,157779027,0.0013522570952773094
157.77955400,157779554,0.0013522570952773094
157.78013300,157780133,0.0013522570952773094
157.78015300,157780153,0.0013522570952773094
157.78063800,157780638,0.0013522570952773094
157.78116400,157781164,0.0013522570952773094
157.78169200,157781692,0.0013522570952773094
157.78222100,157782221,0.00028803758323192596
157.78276100,157782761,0.00028803758323192596
157.78329200,157783292,0.00028803758323192596
157.78391300,157783913,0.00028803758323192596
157.78446700,157784467,0.00028803758323192596
157.78500400,157785004,0.0013522570952773094
157.78553600,157785536,-0.0007761819288134575
157.78606000,157786060,-0.0007761819288134575
157.78658800,157786588,0.0034806961193680763
157.78711700,157787117,0.0034806961193680763
157.78766700,157787667,0.0013522570952773094
157.78822100,157788221,0.0034806961193680763
157.78824300,157788243,0.002416476607322693
157.78871900,157788719,0.00028803758323192596
157.78925100,157789251,0.0013522570952773094
157.78978000,157789780,0.0013522570952773094
157.79050800,157790508,0.00028803758323192596
157.79106700,157791067,0.00028803758323192596
157.79159600,157791596,0.0013522570952773094
157.79212500,157792125,0.00028803758323192596
157.79268000,157792680,-0.0007761819288134575
157.79320400,157793204,0.00028803758323192596
157.79376100,157793761,0.0013522570952773094
157.79378100,157793781,0.002416476607322693
157.79426300,157794263,0.0013522570952773094
157.79497300,157794973,0.0013522570952773094
157.79550200,157795502,0.00028803758323192596
157.79603100,157796031,0.00028803758323192596
157.79655800,157796558,0.002416476607322693
157.79708900,157797089,0.002416476607322693
157.79764000,157797640,0.0013522570952773094
157.79817000,157798170,0.002416476607322693
157.79869600,157798696,0.0013522570952773094
157.79922700,157799227,0.00028803758323192596
157.79975400,157799754,0.002416476607322693
157.80030600,157800306,0.00028803758323192596
157.80099700,157800997,0.0013522570952773094
157.80101700,157801017,0.0034806961193680763
157.80156900,157801569,0.002416476607322693
157.80210000,157802100,0.0013522570952773094
157.80263600,157802636,-0.0007761819288134575
157.80316600,157803166,-0.0007761819288134575
157.80369300,157803693,0.0013522570952773094
157.80422200,157804222,0.0013522570952773094
157.80475200,157804752,0.0013522570952773094
157.80529700,157805297,0.0013522570952773094
157.80600400,157806004,0.0013522570952773094
157.80602400,157806024,0.0013522570952773094
157.80651300,157806513,0.0013522570952773094
157.80704700,157807047,0.002416476607322693
157.80759700,157807597,0.002416476607322693
157.80811100,157808111,0.002416476607322693
157.80863800,157808638,0.002416476607322693
157.80917200,157809172,0.00028803758323192596
157.80969500,157809695,0.00028803758323192596
157.81024000,157810240,0.0034806961193680763
157.81076700,157810767,0.0013522570952773094
157.81149000,157811490,0.00028803758323192596
157.81151000,157811510,0.002416476607322693
157.81208000,157812080,0.00028803758323192596
157.81261900,157812619,-0.0007761819288134575
157.81315100,157813151,0.0013522570952773094
157.81367600,157813676,0.002416476607322693
157.81420600,157814206,0.0013522570952773094
157.81473400,157814734,0.0013522570952773094
157.81527400,157815274,0.0013522570952773094
157.81594400,157815944,0.0013522570952773094
157.81646700,157816467,0.00028803758323192596
157.81702500,157817025,-0.0007761819288134575
157.81704500,157817045,-0.0007761819288134575
157.81753600,157817536,-0.0007761819288134575
157.81806900,157818069,0.00028803758323192596
157.81859600,157818596,0.00028803758323192596
157.81912600,157819126,0.00028803758323192596
157.81965200,157819652,-0.0007761819288134575
157.82019400,157820194,0.0013522570952773094
157.82072700,157820727,0.002416476607322693
157.82125700,157821257,0.0013522570952773094
157.82178000,157821780,0.002416476607322693
157.82248300,157822483,0.002416476607322693
157.82305400,157823054,0.00028803758323192596
157.82360800,157823608,0.0013522570952773094
157.82363200,157823632,0.002416476607322693
157.82411600,157824116,0.0013522570952773094
157.82464200,157824642,0.0013522570952773094
157.82518600,157825186,0.0013522570952773094
157.82571600,157825716,0.002416476607322693
157.82624100,157826241,0.0013522570952773094
157.82677100,157826771,0.00028803758323192596
157.82748600,157827486,0.0013522570952773094
157.82801500,157828015,0.0013522570952773094
157.82857200,157828572,0.00028803758323192596
157.82910200,157829102,0.00028803758323192596
157.82963400,157829634,-0.0007761819288134575
157.83021500,157830215,0.00028803758323192596
157.83023700,157830237,0.00028803758323192596
157.83071400,157830714,0.00028803758323192596
157.83124200,157831242,0.002416476607322693
157.83177300,157831773,0.0034806961193680763
157.83244700,157832447,0.0013522570952773094
157.83298200,157832982,0.00028803758323192596
157.83350600,157833506,0.002416476607322693
157.83403600,157834036,0.0013522570952773094
157.83456300,157834563,-0.0007761819288134575
157.83510100,157835101,0.0013522570952773094
157.83563200,157835632,0.00028803758323192596
157.83616000,157836160,-0.0007761819288134575
157.83668800,157836688,0.00028803758323192596
157.83721400,157837214,0.00028803758323192596
157.83777800,157837778,0.00028803758323192596
157.83779900,157837799,0.002416476607322693
157.83827700,157838277,0.0013522570952773094
157.83896600,157838966,0.00028803758323192596
157.83950200,157839502,0.00028803758323192596
157.84005000,157840050,0.0013522570952773094
157.84058300,157840583,0.00028803758323192596
157.84111200,157841112,0.00028803758323192596
157.84163800,157841638,0.002416476607322693
157.84217500,157842175,0.002416476607322693
157.84271200,157842712,0.002416476607322693
157.84324600,157843246,0.0013522570952773094
157.84376800,157843768,0.00028803758323192596
157.84449300,157844493,0.002416476607322693
157.84451300,157844513,0.0034806961193680763
157.84501200,157845012,-0.0007761819288134575
157.84557600,157845576,0.0013522570952773094
157.84611000,157846110,0.002416476607322693
157.84663700,157846637,0.00028803758323192596
157.84717200,157847172,0.0013522570952773094
157.84770900,157847709,0.0034806961193680763
157.84824400,157848244,0.00028803758323192596
157.84876700,157848767,0.00028803758323192596
157.84947000,157849470,0.0013522570952773094
157.84949100,157849491,0.0013522570952773094
157.85009900,157850099,0.00028803758323192596
157.85062300,157850623,-0.0007761819288134575
157.85115400,157851154,0.00028803758323192596
157.85168500,157851685,0.0013522570952773094
157.85221300,157852213,0.0013522570952773094
157.85275100,157852751,0.00028803758323192596
157.85328500,157853285,0.00028803758323192596
157.85399900,157853999,0.00028803758323192596
157.85402200,157854022,0.00028803758323192596
157.85450100,157854501,-0.0007761819288134575
157.85504700,157855047,-0.001840401440858841
157.85557100,157855571,0.0013522570952773094
157.85610000,157856100,0.0013522570952773094
157.85663000,157856630,-0.0007761819288134575
157.85715700,157857157,0.0013522570952773094
157.85769700,157857697,0.0013522570952773094
157.85822600,157858226,-0.0007761819288134575
157.85875000,157858750,0.00028803758323192596
157.85928700,157859287,0.0013522570952773094
157.85998000,157859980,0.0013522570952773094
157.86053900,157860539,0.0013522570952773094
157.86055900,157860559,0.0013522570952773094
157.86104400,157861044,0.00028803758323192596
157.86156700,157861567,0.0013522570952773094
157.86209700,157862097,0.0013522570952773094
157.86264600,157862646,0.0013522570952773094
157.86317900,157863179,0.00028803758323192596
157.86370300,157863703,0.0013522570952773094
157.86424300,157864243,0.0034806961193680763
157.86476400,157864764,0.002416476607322693
157.86545700,157865457,0.002416476607322693
157.86598200,157865982,0.0034806961193680763
157.86651000,157866510,0.002416476607322693
157.86704600,157867046,0.0013522570952773094
157.86761900,157867619,0.00028803758323192596
157.86764300,157867643,0.0013522570952773094
157.86812000,157868120,0.0013522570952773094
157.86864600,157868646,0.00028803758323192596
157.86918000,157869180,0.0013522570952773094
157.86971000,157869710,0.0034806961193680763
157.87025300,157870253,0.0013522570952773094
157.87077700,157870777,0.00028803758323192596
157.87146500,157871465,0.00028803758323192596
157.87199400,157871994,0.0013522570952773094
157.87259900,157872599,0.0013522570952773094
157.87315200,157873152,0.0013522570952773094
157.87317200,157873172,0.002416476607322693
157.87365300,157873653,0.002416476607322693
157.87419200,157874192,0.0013522570952773094
157.87472000,157874720,0.00028803758323192596
157.87526100,157875261,0.00028803758323192596
157.87578700,157875787,0.0013522570952773094
157.87646800,157876468,0.002416476607322693
157.87699700,157876997,0.002416476607322693
157.87753700,157877537,0.0013522570952773094
157.87806700,157878067,-0.0007761819288134575
157.87859300,157878593,0.00028803758323192596
157.87912300,157879123,0.002416476607322693
157.87965000,157879650,0.002416476607322693
157.88019500,157880195,-0.0007761819288134575
157.88075600,157880756,0.0013522570952773094
157.88077800,157880778,0.002416476607322693
157.88125600,157881256,0.00028803758323192596
157.88184300,157881843,0.0013522570952773094
157.88248200,157882482,0.00454491563141346
157.88301100,157883011,0.0034806961193680763
157.88353400,157883534,0.0013522570952773094
157.88406600,157884066,0.0013522570952773094
157.88459300,157884593,0.0013522570952773094
157.88514800,157885148,0.00028803758323192596
157.88566400,157885664,0.00028803758323192596
157.88620000,157886200,0.00028803758323192596
157.88672800,157886728,0.0013522570952773094
157.88726400,157887264,0.00028803758323192596
157.88789600,157887896,0.00028803758323192596
157.88791600,157887916,0.0013522570952773094
157.88848200,157888482,0.002416476607322693
157.88901300,157889013,0.0013522570952773094
157.88953800,157889538,0.002416476607322693
157.89008600,157890086,0.00454491563141346
157.89064500,157890645,0.0013522570952773094
157.89116600,157891166,0.00028803758323192596
157.89169400,157891694,0.002416476607322693
157.89222400,157892224,0.0013522570952773094
157.89276400,157892764,0.00028803758323192596
157.89339100,157893391,0.0034806961193680763
157.89341000,157893410,0.0013522570952773094
157.89397100,157893971,0.00028803758323192596
157.89456500,157894565,0.00028803758323192596
157.89510400,157895104,-0.0007761819288134575
157.89563900,157895639,-0.0007761819288134575
157.89616400,157896164,-0.0007761819288134575
157.89669800,157896698,0.00028803758323192596
157.89722400,157897224,0.00028803758323192596
157.89777000,157897770,0.0013522570952773094
157.89847400,157898474,0.0013522570952773094
157.89849400,157898494,0.0013522570952773094
157.89897300,157898973,0.0013522570952773094
157.89950600,157899506,0.0013522570952773094
157.90009900,157900099,0.0013522570952773094
157.90062600,157900626,0.00028803758323192596
157.90115300,157901153,0.0013522570952773094
157.90167700,157901677,0.00028803758323192596
157.90220500,157902205,0.00028803758323192596
157.90274800,157902748,0.0013522570952773094
157.90327400,157903274,0.0013522570952773094
157.90395900,157903959,-0.001840401440858841
157.90460000,157904600,-0.0007761819288134575
157.90462000,157904620,0.0013522570952773094
157.90511600,157905116,0.00028803758323192596
157.90564800,157905648,0.0013522570952773094
157.90616900,157906169,0.0034806961193680763
157.90669900,157906699,0.0013522570952773094
157.90722600,157907226,0.00028803758323192596
157.90776400,157907764,0.0013522570952773094
157.90847200,157908472,0.0013522570952773094
157.90909900,157909099,0.0013522570952773094
157.90911900,157909119,0.0013522570952773094
157.90959900,157909599,0.00028803758323192596
157.91015700,157910157,0.0013522570952773094
157.91068700,157910687,0.002416476607322693
157.91121700,157911217,0.002416476607322693
157.91174200,157911742,0.0013522570952773094
157.91227300,157912273,0.00028803758323192596
157.91299200,157912992,0.00028803758323192596
157.91347900,157913479,-0.0007761819288134575
157.91402000,157914020,-0.0007761819288134575
157.91457100,157914571,0.002416476607322693
157.91513900,157915139,0.0013522570952773094
157.91515900,157915159,-0.001840401440858841
157.91564400,157915644,0.0013522570952773094
157.91616800,157916168,0.0013522570952773094
157.91670000,157916700,-0.0007761819288134575
157.91722800,157917228,0.002416476607322693
157.91776400,157917764,0.0034806961193680763
157.91844400,157918444,0.002416476607322693
157.91908200,157919082,0.00028803758323192596
157.91961000,157919610,0.0013522570952773094
157.92019200,157920192,0.0013522570952773094
157.92021200,157920212,0.0013522570952773094
157.92069600,157920696,0.002416476607322693
157.92122300,157921223,0.00028803758323192596
157.92176200,157921762,0.00028803758323192596
157.92247500,157922475,0.0013522570952773094
157.92300600,157923006,0.0013522570952773094
157.92353100,157923531,0.0013522570952773094
157.92406100,157924061,0.002416476607322693
157.92458900,157924589,0.0034806961193680763
157.92512700,157925127,0.0034806961193680763
157.92565900,157925659,0.00028803758323192596
157.92618300,157926183,0.0013522570952773094
157.92672200,157926722,0.0034806961193680763
157.92727200,157927272,0.0013522570952773094
157.92736000,157927360,0.002416476607322693
157.92778200,157927782,0.0034806961193680763
157.92843800,157928438,0.0013522570952773094
157.92907100,157929071,0.00028803758323192596
157.92959500,157929595,0.0013522570952773094
157.93015300,157930153,0.0013522570952773094
157.93068400,157930684,0.002416476607322693
157.93121000,157931210,0.0013522570952773094
157.93174400,157931744,0.0013522570952773094
157.93227000,157932270,0.0013522570952773094
157.93297000,157932970,0.0013522570952773094
157.93299000,157932990,0.00028803758323192596
157.93357200,157933572,0.00028803758323192596
157.93410300,157934103,0.00028803758323192596
157.93462900,157934629,-0.0007761819288134575
157.93518200,157935182,0.0013522570952773094
157.93571400,157935714,0.002416476607322693
157.93624700,157936247,0.002416476607322693
157.93677400,157936774,0.0013522570952773094
157.93749500,157937495,0.0013522570952773094
157.93751500,157937515,0.002416476607322693
157.93800300,157938003,0.0013522570952773094
157.93852300,157938523,0.00028803758323192596
157.93908000,157939080,0.0013522570952773094
157.93960600,157939606,-0.0007761819288134575
157.94016600,157940166,0.00028803758323192596
157.94070600,157940706,0.002416476607322693
157.94123700,157941237,0.0013522570952773094
157.94176800,157941768,0.002416476607322693
157.94247100,157942471,0.00028803758323192596
157.94249200,157942492,-0.0007761819288134575
157.94297900,157942979,-0.0007761819288134575
157.94350900,157943509,0.00028803758323192596
157.94408200,157944082,-0.0007761819288134575
157.94460500,157944605,-0.0007761819288134575
157.94516000,157945160,0.0013522570952773094
157.94570000,157945700,0.0013522570952773094
157.94622100,157946221,0.00028803758323192596
157.94674900,157946749,0.00028803758323192596
157.94728300,157947283,0.0013522570952773094
157.94792000,157947920,0.002416476607322693
157.94861700,157948617,0.002416476607322693
157.94863700,157948637,0.0013522570952773094
157.94912100,157949121,0.00028803758323192596
157.94964700,157949647,0.0013522570952773094
157.95018700,157950187,0.0034806961193680763
157.95071800,157950718,0.0013522570952773094
157.95124400,157951244,0.00028803758323192596
157.95177200,157951772,0.002416476607322693
157.95245000,157952450,0.002416476607322693
157.95298100,157952981,0.0013522570952773094
157.95361000,157953610,0.0013522570952773094
157.95363000,157953630,0.00028803758323192596
157.95411600,157954116,0.00028803758323192596
157.95464500,157954645,0.00028803758323192596
157.95518300,157955183,0.002416476607322693
157.95571400,157955714,0.0034806961193680763
157.95625000,157956250,0.002416476607322693
157.95677200,157956772,0.00028803758323192596
157.95745200,157957452,0.0013522570952773094
157.95802200,157958022,0.002416476607322693
157.95852200,157958522,0.0013522570952773094
157.95905000,157959050,0.00028803758323192596
157.95957500,157959575,-0.0007761819288134575
157.96014100,157960141,-0.0007761819288134575
157.96016100,157960161,-0.0007761819288134575
157.96064600,157960646,0.002416476607322693
157.96117900,157961179,0.002416476607322693
157.96170400,157961704,0.00028803758323192596
157.96223600,157962236,0.0013522570952773094
157.96277200,157962772,0.00028803758323192596
157.96341700,157963417,0.00028803758323192596
157.96396900,157963969,0.0034806961193680763
157.96450100,157964501,0.0034806961193680763
157.96512800,157965128,0.002416476607322693
157.96565000,157965650,0.00028803758323192596
157.96620200,157966202,0.00028803758323192596
157.96622200,157966222,0.0013522570952773094
157.96671000,157966710,0.002416476607322693
157.96723800,157967238,0.002416476607322693
157.96777100,157967771,0.0013522570952773094
157.96845800,157968458,0.00028803758323192596
157.96899900,157968999,0.0013522570952773094
157.96952700,157969527,0.00028803758323192596
157.97013400,157970134,0.00028803758323192596
157.97066500,157970665,0.0013522570952773094
157.97119100,157971191,0.002416476607322693
157.97172300,157971723,0.00454491563141346
157.97227400,157972274,0.0034806961193680763
157.97235600,157972356,0.00028803758323192596
157.97278900,157972789,-0.0007761819288134575
157.97344500,157973445,0.002416476607322693
157.97397300,157973973,0.0013522570952773094
157.97450800,157974508,0.00028803758323192596
157.97511500,157975115,0.0013522570952773094
157.97563700,157975637,0.0013522570952773094
157.97616300,157976163,0.00028803758323192596
157.97669400,157976694,0.00028803758323192596
157.97722300,157977223,-0.0007761819288134575
157.97776100,157977761,0.00028803758323192596
157.97844100,157978441,0.0013522570952773094
157.97846100,157978461,0.00028803758323192596
157.97897200,157978972,-0.0007761819288134575
157.97950000,157979500,0.00028803758323192596
157.98004200,157980042,0.0013522570952773094
157.98057500,157980575,0.0013522570952773094
157.98110800,157981108,0.002416476607322693
157.98163300,157981633,0.0013522570952773094
157.98216000,157982160,0.0013522570952773094
157.98269300,157982693,0.0013522570952773094
157.98322400,157983224,0.0013522570952773094
157.98375300,157983753,0.0013522570952773094
157.98428300,157984283,0.0013522570952773094
157.98497600,157984976,0.00028803758323192596
157.98500200,157985002,-0.0007761819288134575
157.98547700,157985477,0.0013522570952773094
157.98601100,157986011,0.0013522570952773094
157.98653800,157986538,0.00028803758323192596
157.98706400,157987064,0.0013522570952773094
157.98761300,157987613,0.00028803758323192596
157.98813500,157988135,0.00028803758323192596
157.98865900,157988659,0.00028803758323192596
157.98919300,157989193,0.0013522570952773094
157.98972400,157989724,0.002416476607322693
157.99026700,157990267,0.0013522570952773094
157.99094100,157990941,0.00028803758323192596
157.99149400,157991494,0.00028803758323192596
157.99151500,157991515,0.0013522570952773094
157.99199900,157991999,0.0013522570952773094
157.99253600,157992536,0.0013522570952773094
157.99306500,157993065,0.0013522570952773094
157.99359100,157993591,0.0013522570952773094
157.99412200,157994122,0.002416476607322693
157.99465600,157994656,0.002416476607322693
157.99519400,157995194,0.00028803758323192596
157.99572700,157995727,0.00028803758323192596
157.99625800,157996258,0.002416476607322693
157.99691000,157996910,0.00028803758323192596
157.99748200,157997482,-0.0007761819288134575
157.99801500,157998015,0.002416476607322693
157.99857100,157998571,-0.0007761819288134575
157.99859800,157998598,-0.001840401440858841
157.99907000,157999070,0.00028803758323192596
157.99960300,157999603,0.00028803758323192596
158.00015500,158000155,0.00028803758323192596
158.00068300,158000683,0.00028803758323192596
158.00120600,158001206,0.00028803758323192596
158.00174000,158001740,0.00028803758323192596
158.00227300,158002273,0.0013522570952773094
158.00299700,158002997,0.002416476607322693
158.00357000,158003570,0.0013522570952773094
158.00413400,158004134,0.00028803758323192596
158.00415400,158004154,0.00028803758323192596
158.00463500,158004635,0.0013522570952773094
158.00518100,158005181,0.0013522570952773094
158.00571000,158005710,0.002416476607322693
158.00623700,158006237,0.0013522570952773094
158.00676700,158006767,0.00028803758323192596
158.00747200,158007472,0.0013522570952773094
158.00800400,158008004,0.00028803758323192596
158.00852800,158008528,0.00028803758323192596
158.00906500,158009065,0.00028803758323192596
158.00959500,158009595,0.00028803758323192596
158.01015300,158010153,0.00028803758323192596
158.01071400,158010714,0.0013522570952773094
158.01073700,158010737,0.0013522570952773094
158.01121600,158011216,0.0013522570952773094
158.01174100,158011741,0.0013522570952773094
158.01227600,158012276,0.0013522570952773094
158.01296400,158012964,0.00028803758323192596
158.01357500,158013575,0.00028803758323192596
158.01410600,158014106,0.00028803758323192596
158.01463600,158014636,0.00028803758323192596
158.01517400,158015174,-0.0007761819288134575
158.01570800,158015708,-0.0007761819288134575
158.01626000,158016260,0.00028803758323192596
158.01628000,158016280,0.0013522570952773094
158.01676400,158016764,0.002416476607322693
158.01748800,158017488,-0.0007761819288134575
158.01801900,158018019,-0.0007761819288134575
158.01854400,158018544,0.002416476607322693
158.01908300,158019083,0.00028803758323192596
158.01961100,158019611,0.00028803758323192596
158.02016500,158020165,0.0034806961193680763
158.02069600,158020696,0.002416476607322693
158.02122200,158021222,0.0013522570952773094
158.02175400,158021754,0.002416476607322693
158.02228200,158022282,0.0013522570952773094
158.02301900,158023019,0.0013522570952773094
158.02303900,158023039,0.0013522570952773094
158.02351900,158023519,0.00028803758323192596
158.02406100,158024061,0.0013522570952773094
158.02459100,158024591,0.002416476607322693
158.02514400,158025144,0.0013522570952773094
158.02567700,158025677,0.00028803758323192596
158.02619900,158026199,0.00028803758323192596
158.02673800,158026738,0.00028803758323192596
158.02726400,158027264,0.0013522570952773094
158.02798100,158027981,0.0013522570952773094
158.02800100,158028001,0.00028803758323192596
158.02847800,158028478,0.00028803758323192596
158.02901000,158029010,0.0013522570952773094
158.02956200,158029562,-0.0007761819288134575
158.03010300,158030103,-0.001840401440858841
158.03063600,158030636,0.00028803758323192596
158.03115900,158031159,-0.0007761819288134575
158.03169500,158031695,-0.0007761819288134575
158.03222200,158032222,0.002416476607322693
158.03277100,158032771,0.002416476607322693
158.03349400,158033494,0.0013522570952773094
158.03351400,158033514,0.00028803758323192596
158.03400300,158034003,0.0013522570952773094
158.03456900,158034569,0.0013522570952773094
158.03511200,158035112,0.0013522570952773094
158.03564800,158035648,0.0013522570952773094
158.03617600,158036176,0.0013522570952773094
158.03670700,158036707,0.0013522570952773094
158.03724100,158037241,0.0013522570952773094
158.03778500,158037785,0.0013522570952773094
158.03846500,158038465,0.0013522570952773094
158.03902600,158039026,0.0013522570952773094
158.03904600,158039046,0.002416476607322693
158.03952200,158039522,0.0013522570952773094
158.04008400,158040084,0.00028803758323192596
158.04062000,158040620,-0.0007761819288134575
158.04114900,158041149,0.0013522570952773094
158.04167800,158041678,0.002416476607322693
158.04220800,158042208,0.00028803758323192596
158.04274100,158042741,0.002416476607322693
158.04327200,158043272,0.0013522570952773094
158.04393400,158043934,0.00028803758323192596
158.04446300,158044463,0.002416476607322693
158.04500400,158045004,0.002416476607322693
158.04553000,158045530,0.0013522570952773094
158.04606300,158046063,0.00028803758323192596
158.04661700,158046617,0.00028803758323192596
158.04663700,158046637,-0.0007761819288134575
158.04711900,158047119,-0.0007761819288134575
158.04767800,158047678,0.00028803758323192596
158.04821300,158048213,0.0013522570952773094
158.04874300,158048743,0.002416476607322693
158.04928200,158049282,0.0013522570952773094
158.04997200,158049972,0.0013522570952773094
158.05050400,158050504,0.00028803758323192596
158.05102900,158051029,0.00028803758323192596
158.05156300,158051563,0.00028803758323192596
158.05209200,158052092,0.0013522570952773094
158.05267300,158052673,0.0013522570952773094
158.05269800,158052698,0.00028803758323192596
158.05317200,158053172,0.0013522570952773094
158.05369900,158053699,0.0013522570952773094
158.05423000,158054230,0.0013522570952773094
158.05476000,158054760,0.002416476607322693
158.05537500,158055375,0.002416476607322693
158.05597400,158055974,0.0013522570952773094
158.05650200,158056502,0.0013522570952773094
158.05703100,158057031,0.0013522570952773094
158.05759800,158057598,0.00028803758323192596
158.05812400,158058124,0.00028803758323192596
158.05865300,158058653,0.0013522570952773094
158.05918200,158059182,0.0013522570952773094
158.05971000,158059710,0.0013522570952773094
158.06027300,158060273,0.0013522570952773094
158.06029400,158060294,0.0013522570952773094
158.06077700,158060777,0.0013522570952773094
158.06143600,158061436,0.0013522570952773094
158.06207200,158062072,0.002416476607322693
158.06261100,158062611,0.0034806961193680763
158.06314500,158063145,0.0034806961193680763
158.06367400,158063674,0.0013522570952773094
158.06420700,158064207,0.0034806961193680763
158.06473200,158064732,0.002416476607322693
158.06527200,158065272,-0.0007761819288134575
158.06601200,158066012,-0.0007761819288134575
158.06603200,158066032,0.0013522570952773094
158.06651300,158066513,0.00028803758323192596
158.06706400,158067064,0.00028803758323192596
158.06760200,158067602,0.00028803758323192596
158.06813500,158068135,0.0013522570952773094
158.06866000,158068660,0.0013522570952773094
158.06918900,158069189,0.0013522570952773094
158.06971800,158069718,0.0013522570952773094
158.07025600,158070256,0.0013522570952773094
158.07082600,158070826,0.0013522570952773094
158.07150100,158071501,0.00028803758323192596
158.07152100,158071521,-0.0007761819288134575
158.07200500,158072005,-0.0007761819288134575
158.07254300,158072543,0.00028803758323192596
158.07307300,158073073,0.002416476607322693
158.07360000,158073600,0.002416476607322693
158.07412700,158074127,0.00028803758323192596
158.07465700,158074657,0.0013522570952773094
158.07520400,158075204,0.002416476607322693
158.07573100,158075731,0.00028803758323192596
158.07625900,158076259,0.00028803758323192596
158.07696500,158076965,0.002416476607322693
158.07698500,158076985,0.00028803758323192596
158.07747400,158077474,0.0013522570952773094
158.07800600,158078006,0.0013522570952773094
158.07853000,158078530,0.0013522570952773094
158.07907100,158079071,0.0013522570952773094
158.07959600,158079596,0.00028803758323192596
158.08015000,158080150,-0.0007761819288134575
158.08068200,158080682,0.00028803758323192596
158.08121100,158081211,0.00028803758323192596
158.08174400,158081744,0.00028803758323192596
158.08227400,158082274,0.0013522570952773094
158.08301400,158083014,0.0013522570952773094
158.08303400,158083034,0.0013522570952773094
158.08351400,158083514,0.0013522570952773094
158.08404900,158084049,0.00028803758323192596
158.08457600,158084576,-0.0007761819288134575
158.08511600,158085116,0.0013522570952773094
158.08564900,158085649,0.0013522570952773094
158.08618500,158086185,-0.001840401440858841
158.08671100,158086711,0.00028803758323192596
158.08724500,158087245,0.0013522570952773094
158.08777800,158087778,-0.0007761819288134575
158.08847600,158088476,0.00028803758323192596
158.08900300,158089003,0.002416476607322693
158.08953200,158089532,0.0013522570952773094
158.09010000,158090100,0.0013522570952773094
158.09012200,158090122,0.002416476607322693
158.09060400,158090604,0.0034806961193680763
158.09113100,158091131,0.002416476607322693
158.09166100,158091661,0.0013522570952773094
158.09219200,158092192,0.0013522570952773094
158.09273100,158092731,0.0013522570952773094
158.09326000,158093260,0.0013522570952773094
158.09393700,158093937,0.0013522570952773094
158.09446600,158094466,0.002416476607322693
158.09500600,158095006,0.002416476607322693
158.09558200,158095582,0.00028803758323192596
158.09610700,158096107,-0.0007761819288134575
158.09666400,158096664,0.00028803758323192596
158.09668800,158096688,0.002416476607322693
158.09717100,158097171,0.002416476607322693
158.09771400,158097714,0.0013522570952773094
158.09824300,158098243,0.002416476607322693
158.09876700,158098767,0.0013522570952773094
158.09947200,158099472,0.00028803758323192596
158.10010700,158100107,0.0013522570952773094
158.10062800,158100628,0.0013522570952773094
158.10115200,158101152,0.0013522570952773094
158.10168300,158101683,0.0013522570952773094
158.10224200,158102242,0.002416476607322693
158.10226200,158102262,0.0013522570952773094
158.10274800,158102748,0.00028803758323192596
158.10327800,158103278,-0.0007761819288134575
158.10396300,158103963,0.00028803758323192596
158.10449300,158104493,0.0013522570952773094
158.10503600,158105036,0.002416476607322693
158.10556300,158105563,0.002416476607322693
158.10609000,158106090,0.0013522570952773094
158.10661900,158106619,0.0013522570952773094
158.10714900,158107149,0.002416476607322693
158.10769400,158107694,0.002416476607322693
158.10822400,158108224,-0.0007761819288134575
158.10875000,158108750,-0.001840401440858841
158.10930600,158109306,0.0013522570952773094
158.10932600,158109326,0.0013522570952773094
158.10999200,158109992,0.0013522570952773094
158.11052000,158110520,0.002416476607322693
158.11104900,158111049,0.0013522570952773094
158.11157400,158111574,0.00028803758323192596
158.11211000,158112110,0.0013522570952773094
158.11266100,158112661,0.0013522570952773094
158.11319000,158113190,0.0013522570952773094
158.11371600,158113716,0.002416476607322693
158.11424700,158114247,0.0013522570952773094
158.11477700,158114777,0.00028803758323192596
158.11551500,158115515,0.00028803758323192596
158.11553600,158115536,0.00028803758323192596
158.11601600,158116016,0.00028803758323192596
158.11654400,158116544,0.00028803758323192596
158.11707300,158117073,0.0013522570952773094
158.11761100,158117611,0.002416476607322693
158.11814100,158118141,0.0013522570952773094
158.11866600,158118666,-0.0007761819288134575
158.11919600,158119196,-0.0007761819288134575
158.11972400,158119724,0.0013522570952773094
158.12026000,158120260,0.0013522570952773094
158.12086800,158120868,0.0013522570952773094
158.12149200,158121492,0.0034806961193680763
158.12151300,158121513,0.00028803758323192596
158.12199400,158121994,0.00028803758323192596
158.12253900,158122539,0.0013522570952773094
158.12307100,158123071,0.0013522570952773094
158.12359800,158123598,0.002416476607322693
158.12412200,158124122,0.002416476607322693
158.12465100,158124651,0.0013522570952773094
158.12519500,158125195,0.002416476607322693
158.12572300,158125723,0.0013522570952773094
158.12624800,158126248,0.0013522570952773094
158.12677800,158126778,0.0013522570952773094
158.12751400,158127514,0.0013522570952773094
158.12753400,158127534,0.00028803758323192596
158.12802000,158128020,-0.0007761819288134575
158.12854900,158128549,-0.0007761819288134575
158.12908600,158129086,0.00028803758323192596
158.12961500,158129615,-0.0007761819288134575
158.13016400,158130164,0.00028803758323192596
158.13069600,158130696,0.0013522570952773094
158.13121900,158131219,-0.0007761819288134575
158.13175600,158131756,0.0013522570952773094
158.13228200,158132282,0.0034806961193680763
158.13299000,158132990,0.0013522570952773094
158.13361000,158133610,0.002416476607322693
158.13363000,158133630,0.00454491563141346
158.13411200,158134112,0.0034806961193680763
158.13463900,158134639,0.002416476607322693
158.13518100,158135181,0.0013522570952773094
158.13571200,158135712,0.0013522570952773094
158.13623900,158136239,0.0013522570952773094
158.13676500,158136765,0.0013522570952773094
158.13747500,158137475,0.0013522570952773094
158.13807800,158138078,0.0013522570952773094
158.13863200,158138632,0.002416476607322693
158.13865200,158138652,0.0013522570952773094
158.13913700,158139137,0.0013522570952773094
158.13966900,158139669,0.0013522570952773094
158.14020800,158140208,0.0013522570952773094
158.14073900,158140739,0.0013522570952773094
158.14126600,158141266,0.0013522570952773094
158.14194100,158141941,0.0034806961193680763
158.14247700,158142477,0.002416476607322693
158.14301100,158143011,0.00028803758323192596
158.14353400,158143534,0.002416476607322693
158.14408900,158144089,0.00028803758323192596
158.14461400,158144614,-0.0007761819288134575
158.14517800,158145178,0.002416476607322693
158.14573800,158145738,0.0013522570952773094
158.14575900,158145759,-0.0007761819288134575
158.14624300,158146243,0.00028803758323192596
158.14676900,158146769,-0.0007761819288134575
158.14748600,158147486,0.00028803758323192596
158.14802400,158148024,0.0013522570952773094
158.14857700,158148577,0.00028803758323192596
158.14911100,158149111,0.0013522570952773094
158.14964400,158149644,0.0013522570952773094
158.15018600,158150186,0.00028803758323192596
158.15071400,158150714,0.00028803758323192596
158.15124100,158151241,0.00028803758323192596
158.15179700,158151797,0.00028803758323192596
158.15182000,158151820,0.00028803758323192596
158.15248200,158152482,0.0013522570952773094
158.15301600,158153016,0.00028803758323192596
158.15354100,158153541,-0.0007761819288134575
158.15407000,158154070,0.00028803758323192596
158.15460000,158154600,0.002416476607322693
158.15515400,158155154,0.0013522570952773094
158.15568800,158155688,0.0013522570952773094
158.15620900,158156209,0.002416476607322693
158.15674200,158156742,0.0013522570952773094
158.15727400,158157274,0.00028803758323192596
158.15794600,158157946,0.0013522570952773094
158.15796700,158157967,0.0013522570952773094
158.15858100,158158581,0.00028803758323192596
158.15911600,158159116,0.002416476607322693
158.15964200,158159642,0.0034806961193680763
158.16018400,158160184,0.0013522570952773094
158.16071900,158160719,0.0013522570952773094
158.16125100,158161251,0.0013522570952773094
158.16177600,158161776,0.0013522570952773094
158.16246500,158162465,0.0013522570952773094
158.16248500,158162485,0.0013522570952773094
158.16299600,158162996,0.0013522570952773094
158.16351800,158163518,0.00028803758323192596
158.16405700,158164057,-0.0007761819288134575
158.16458200,158164582,-0.001840401440858841
158.16514300,158165143,0.0013522570952773094
158.16566900,158165669,0.0013522570952773094
158.16619400,158166194,-0.0007761819288134575
158.16672700,158166727,0.00028803758323192596
158.16725600,158167256,0.0013522570952773094
158.16782700,158167827,-0.0007761819288134575
158.16846800,158168468,0.00028803758323192596
158.16848900,158168489,0.002416476607322693
158.16909400,158169094,0.0013522570952773094
158.16961100,158169611,0.00028803758323192596
158.17016700,158170167,0.00028803758323192596
158.17069700,158170697,0.00028803758323192596
158.17122600,158171226,0.00028803758323192596
158.17175600,158171756,0.00028803758323192596
158.17237800,158172378,0.00028803758323192596
158.17297900,158172979,0.00028803758323192596
158.17353700,158173537,0.00028803758323192596
158.17355700,158173557,0.002416476607322693
158.17403600,158174036,0.0034806961193680763
158.17458200,158174582,0.002416476607322693
158.17513600,158175136,0.00028803758323192596
158.17566700,158175667,-0.001840401440858841
158.17619200,158176192,0.00028803758323192596
158.17672100,158176721,0.002416476607322693
158.17725100,158177251,0.0013522570952773094
158.17779000,158177790,0.0013522570952773094
158.17844800,158178448,0.002416476607322693
158.17911000,158179110,0.0013522570952773094
158.17913300,158179133,0.0013522570952773094
158.17960800,158179608,0.00454491563141346
158.18016200,158180162,0.0034806961193680763
158.18069300,158180693,0.002416476607322693
158.18122000,158181220,0.00028803758323192596
158.18175500,158181755,0.00028803758323192596
158.18237300,158182373,0.00028803758323192596
158.18294700,158182947,0.002416476607322693
158.18358700,158183587,0.002416476607322693
158.18414400,158184144,0.00028803758323192596
158.18416500,158184165,0.0013522570952773094
158.18464700,158184647,0.002416476607322693
158.18518700,158185187,0.002416476607322693
158.18571900,158185719,0.0013522570952773094
158.18624800,158186248,0.0013522570952773094
158.18677500,158186775,0.002416476607322693
158.18745800,158187458,0.0013522570952773094
158.18798400,158187984,-0.001840401440858841
158.18858700,158188587,-0.0007761819288134575
158.18911600,158189116,0.0013522570952773094
158.18964500,158189645,-0.0007761819288134575
158.19018500,158190185,0.00028803758323192596
158.19074400,158190744,0.002416476607322693
158.19076400,158190764,0.00028803758323192596
158.19124300,158191243,0.00028803758323192596
158.19177600,158191776,0.00028803758323192596
158.19247900,158192479,0.00028803758323192596
158.19301100,158193011,0.0013522570952773094
158.19353600,158193536,0.002416476607322693
158.19407300,158194073,0.002416476607322693
158.19459800,158194598,0.0013522570952773094
158.19516000,158195160,0.002416476607322693
158.19569000,158195690,0.002416476607322693
158.19621600,158196216,0.002416476607322693
158.19674700,158196747,0.0013522570952773094
158.19736700,158197367,0.00028803758323192596
158.19738800,158197388,0.00028803758323192596
158.19797900,158197979,0.002416476607322693
158.19850700,158198507,0.002416476607322693
158.19903500,158199035,0.0013522570952773094
158.19958100,158199581,0.00028803758323192596
158.20013200,158200132,0.0013522570952773094
158.20066300,158200663,0.00028803758323192596
158.20118900,158201189,-0.001840401440858841
158.20172900,158201729,-0.0007761819288134575
158.20225600,158202256,-0.0007761819288134575
158.20287000,158202870,-0.0007761819288134575
158.20289300,158202893,0.00028803758323192596
158.20348200,158203482,0.00028803758323192596
158.20401100,158204011,0.002416476607322693
158.20453600,158204536,0.0013522570952773094
158.20509800,158205098,0.0013522570952773094
158.20562200,158205622,0.0013522570952773094
158.20614700,158206147,0.002416476607322693
158.20667500,158206675,0.0013522570952773094
158.20721000,158207210,0.00028803758323192596
158.20775000,158207750,0.00028803758323192596
158.20827700,158208277,0.00028803758323192596
158.20893600,158208936,0.0013522570952773094
158.20895500,158208955,0.002416476607322693
158.20946600,158209466,0.002416476607322693
158.21000600,158210006,0.002416476607322693
158.21060300,158210603,0.002416476607322693
158.21113200,158211132,0.0034806961193680763
158.21165900,158211659,0.002416476607322693
158.21219200,158212192,0.00028803758323192596
158.21272700,158212727,0.002416476607322693
158.21325900,158213259,0.002416476607322693
158.21383100,158213831,0.00028803758323192596
158.21449500,158214495,0.0013522570952773094
158.21451600,158214516,0.0013522570952773094
158.21500700,158215007,-0.0007761819288134575
158.21553400,158215534,0.00028803758323192596
158.21606000,158216060,0.0013522570952773094
158.21658600,158216586,0.002416476607322693
158.21711800,158217118,0.002416476607322693
158.21767000,158217670,0.0034806961193680763
158.21819400,158218194,0.002416476607322693
158.21872200,158218722,0.00028803758323192596
158.21925100,158219251,0.00028803758323192596
158.21977800,158219778,0.00028803758323192596
158.22046500,158220465,0.00028803758323192596
158.22110200,158221102,-0.0007761819288134575
158.22112200,158221122,0.0013522570952773094
158.22160600,158221606,0.0013522570952773094
158.22213400,158222134,-0.0029046209529042244
158.22268500,158222685,0.00028803758323192596
158.22321200,158223212,0.002416476607322693
158.22373800,158223738,-0.0007761819288134575
158.22427100,158224271,0.0013522570952773094
158.22494100,158224941,0.002416476607322693
158.22548300,158225483,0.0013522570952773094
158.22607000,158226070,0.00028803758323192596
158.22662400,158226624,0.0013522570952773094
158.22664800,158226648,0.002416476607322693
