timestamp,TimeUS,ACCx
153.17463900,153174639,-0.10534487664699554
153.25567400,153255674,-0.10055647045373917
153.33620000,153336200,-0.11013327538967133
153.41722700,153417227,-0.1149216815829277
153.49825800,153498258,-0.11971008777618408
153.57896500,153578965,-0.10534487664699554
153.66000300,153660003,-0.11013327538967133
153.74103000,153741030,-0.11013327538967133
153.82206000,153822060,-0.11971008777618408
153.90259700,153902597,-0.11971008777618408
153.98362700,153983627,-0.1149216815829277
154.06465500,154064655,-0.10534487664699554
154.14568800,154145688,-0.1149216815829277
154.22621500,154226215,-0.11971008777618408
154.30724500,154307245,-0.11013327538967133
154.38827800,154388278,-0.1149216815829277
154.46896300,154468963,-0.10534487664699554
154.55001200,154550012,-0.10055647045373917
154.63104000,154631040,-0.11013327538967133
154.71206700,154712067,-0.1149216815829277
154.79260300,154792603,-0.11971008777618408
154.87363700,154873637,-0.10534487664699554
154.95466800,154954668,-0.1149216815829277
155.03570100,155035701,-0.11013327538967133
155.11622800,155116228,-0.1149216815829277
155.19725900,155197259,-0.11013327538967133
155.27848200,155278482,-0.10534487664699554
155.35901100,155359011,-0.11971008777618408
155.44004600,155440046,-0.1149216815829277
155.52107300,155521073,-0.1149216815829277
155.60210200,155602102,-0.11971008777618408
155.68265200,155682652,-0.10534487664699554
155.76368000,155763680,-0.11013327538967133
155.84470700,155844707,-0.11013327538967133
155.92573900,155925739,-0.11013327538967133
156.00626800,156006268,-0.1149216815829277
156.08754900,156087549,-0.1149216815829277
156.16808000,156168080,-0.1149216815829277
156.24910700,156249107,-0.1149216815829277
156.33016400,156330164,-0.11013327538967133
156.41070100,156410701,-0.10055647045373917
156.49172800,156491728,-0.1149216815829277
156.57276100,156572761,-0.10534487664699554
156.65347000,156653470,-0.1149216815829277
156.73450300,156734503,-0.11013327538967133
156.81553300,156815533,-0.11013327538967133
156.89656100,156896561,-0.1149216815829277
156.90859400,156908594,-0.10534487664699554
156.90911800,156909118,-0.10534487664699554
156.90964900,156909649,-0.1149216815829277
156.91018200,156910182,-0.11971008777618408
156.91071500,156910715,-0.11971008777618408
156.91124200,156911242,-0.1149216815829277
156.91177100,156911771,-0.11971008777618408
156.91250400,156912504,-0.11971008777618408
156.91252500,156912525,-0.11971008777618408
156.91308300,156913083,-0.11971008777618408
156.91361100,156913611,-0.1149216815829277
156.91414200,156914142,-0.11013327538967133
156.91466800,156914668,-0.10534487664699554
156.91520500,156915205,-0.10055647045373917
156.91574000,156915740,-0.10534487664699554
156.91626400,156916264,-0.10534487664699554
156.91696000,156916960,-0.10055647045373917
156.91698000,156916980,-0.09576806426048279
156.91746900,156917469,-0.090979665517807
156.91801000,156918010,-0.09576806426048279
156.91853900,156918539,-0.10534487664699554
156.91907700,156919077,-0.11013327538967133
156.91960600,156919606,-0.11013327538967133
156.92015800,156920158,-0.11013327538967133
156.92068600,156920686,-0.10534487664699554
156.92121600,156921216,-0.10534487664699554
156.92174300,156921743,-0.11013327538967133
156.92227600,156922276,-0.11013327538967133
156.92300800,156923008,-0.11013327538967133
156.92303000,156923030,-0.11013327538967133
156.92349200,156923492,-0.10534487664699554
156.92407300,156924073,-0.10534487664699554
156.92459700,156924597,-0.11013327538967133
156.92515100,156925151,-0.11013327538967133
156.92568100,156925681,-0.11013327538967133
156.92620400,156926204,-0.1149216815829277
156.92673500,156926735,-0.1149216815829277
156.92726500,156927265,-0.1149216815829277
156.92796500,156927965,-0.1149216815829277
156.92859100,156928591,-0.11013327538967133
156.92861100,156928611,-0.11013327538967133
156.92909400,156929094,-0.11013327538967133
156.92962100,156929621,-0.1149216815829277
156.93017300,156930173,-0.1149216815829277
156.93070400,156930704,-0.11013327538967133
156.93123000,156931230,-0.11013327538967133
156.93176100,156931761,-0.11013327538967133
156.93244200,156932442,-0.1149216815829277
156.93297500,156932975,-0.11971008777618408
156.93350400,156933504,-0.12449848651885986
156.93405800,156934058,-0.12449848651885986
156.93461200,156934612,-0.11971008777618408
156.93463200,156934632,-0.1149216815829277
156.93513700,156935137,-0.1149216815829277
156.93565700,156935657,-0.11013327538967133
156.93618200,156936182,-0.11013327538967133
156.93672700,156936727,-0.11013327538967133
156.93725300,156937253,-0.11013327538967133
156.93786700,156937867,-0.1149216815829277
156.93846300,156938463,-0.12449848651885986
156.93899100,156938991,-0.12449848651885986
156.93952200,156939522,-0.11971008777618408
156.94008000,156940080,-0.1149216815829277
156.94059800,156940598,-0.1149216815829277
156.94112700,156941127,-0.11971008777618408
156.94165600,156941656,-0.12449848651885986
156.94221200,156942212,-0.11971008777618408
156.94223200,156942232,-0.11013327538967133
156.94272300,156942723,-0.10055647045373917
156.94325200,156943252,-0.10534487664699554
156.94381500,156943815,-0.1149216815829277
156.94447600,156944476,-0.1149216815829277
156.94501500,156945015,-0.11013327538967133
156.94557200,156945572,-0.10534487664699554
156.94610300,156946103,-0.10534487664699554
156.94663000,156946630,-0.10534487664699554
156.94716000,156947160,-0.10534487664699554
156.94769500,156947695,-0.11013327538967133
156.94826000,156948260,-0.1149216815829277
156.94828300,156948283,-0.1149216815829277
156.94876400,156948764,-0.11013327538967133
156.94943700,156949437,-0.10534487664699554
156.94997100,156949971,-0.10534487664699554
156.95050600,156950506,-0.1149216815829277
156.95103100,156951031,-0.11971008777618408
156.95155800,156951558,-0.11013327538967133
156.95208600,156952086,-0.10534487664699554
156.95264100,156952641,-0.10055647045373917
156.95317000,156953170,-0.10534487664699554
156.95369900,156953699,-0.11013327538967133
156.95422900,156954229,-0.11013327538967133
156.95475700,156954757,-0.10534487664699554
156.95549900,156955499,-0.10055647045373917
156.95552100,156955521,-0.10055647045373917
156.95600200,156956002,-0.10534487664699554
156.95652900,156956529,-0.11013327538967133
156.95706700,156957067,-0.1149216815829277
156.95760300,156957603,-0.1149216815829277
156.95813500,156958135,-0.1149216815829277
156.95866500,156958665,-0.11013327538967133
156.95919700,156959197,-0.10534487664699554
156.95972500,156959725,-0.10055647045373917
156.96026200,156960262,-0.09576806426048279
156.96100300,156961003,-0.09576806426048279
156.96102500,156961025,-0.10055647045373917
156.96150400,156961504,-0.10534487664699554
156.96203600,156962036,-0.11013327538967133
156.96258700,156962587,-0.11013327538967133
156.96310900,156963109,-0.1149216815829277
156.96363600,156963636,-0.11971008777618408
156.96417700,156964177,-0.11971008777618408
156.96470500,156964705,-0.1149216815829277
156.96524200,156965242,-0.10534487664699554
156.96577200,156965772,-0.10534487664699554
156.96643300,156966433,-0.11013327538967133
156.96699000,156966990,-0.11971008777618408
156.96701000,156967010,-0.12449848651885986
156.96753700,156967537,-0.12449848651885986
156.96807800,156968078,-0.11971008777618408
156.96860600,156968606,-0.1149216815829277
156.96913400,156969134,-0.1149216815829277
156.96966800,156969668,-0.1149216815829277
156.97020500,156970205,-0.1149216815829277
156.97073600,156970736,-0.11971008777618408
156.97127100,156971271,-0.11971008777618408
156.97196100,156971961,-0.1149216815829277
156.97250200,156972502,-0.1149216815829277
156.97306300,156973063,-0.1149216815829277
156.97308400,156973084,-0.1149216815829277
156.97356200,156973562,-0.1149216815829277
156.97409000,156974090,-0.1149216815829277
156.97462300,156974623,-0.1149216815829277
156.97516900,156975169,-0.11013327538967133
156.97570400,156975704,-0.10534487664699554
156.97622900,156976229,-0.10055647045373917
156.97676400,156976764,-0.10055647045373917
156.97748600,156977486,-0.10534487664699554
156.97801500,156978015,-0.1149216815829277
156.97854100,156978541,-0.11971008777618408
156.97910600,156979106,-0.12449848651885986
156.97912600,156979126,-0.1149216815829277
156.97960800,156979608,-0.11013327538967133
156.98016000,156980160,-0.10534487664699554
156.98069000,156980690,-0.11013327538967133
156.98121700,156981217,-0.11013327538967133
156.98174700,156981747,-0.11013327538967133
156.98227800,156982278,-0.10534487664699554
156.98294000,156982940,-0.10534487664699554
156.98346600,156983466,-0.10534487664699554
156.98400400,156984004,-0.11013327538967133
156.98452600,156984526,-0.11971008777618408
156.98510000,156985100,-0.12449848651885986
156.98562100,156985621,-0.12928688526153564
156.98615400,156986154,-0.12449848651885986
156.98670700,156986707,-0.11971008777618408
156.98672700,156986727,-0.11013327538967133
156.98721000,156987210,-0.11013327538967133
156.98774500,156987745,-0.11013327538967133
156.98827800,156988278,-0.11013327538967133
156.98895300,156988953,-0.1149216815829277
156.98955900,156989559,-0.11971008777618408
156.99009500,156990095,-0.12449848651885986
156.99062700,156990627,-0.12928688526153564
156.99115500,156991155,-0.12449848651885986
156.99168300,156991683,-0.11971008777618408
156.99221100,156992211,-0.1149216815829277
156.99278200,156992782,-0.1149216815829277
156.99280200,156992802,-0.11971008777618408
156.99345900,156993459,-0.11971008777618408
156.99405800,156994058,-0.11971008777618408
156.99458400,156994584,-0.1149216815829277
156.99513200,156995132,-0.1149216815829277
156.99566300,156995663,-0.1149216815829277
156.99619100,156996191,-0.1149216815829277
156.99672400,156996724,-0.1149216815829277
156.99724900,156997249,-0.1149216815829277
156.99782600,156997826,-0.11971008777618408
156.99785000,156997850,-0.11971008777618408
156.99846700,156998467,-0.11971008777618408
156.99899700,156998997,-0.11971008777618408
156.99957500,156999575,-0.11971008777618408
157.00012600,157000126,-0.1149216815829277
157.00065800,157000658,-0.10534487664699554
157.00118300,157001183,-0.10534487664699554
157.00172000,157001720,-0.11013327538967133
157.00224400,157002244,-0.1149216815829277
157.00278600,157002786,-0.1149216815829277
157.00349400,157003494,-0.1149216815829277
157.00351400,157003514,-0.1149216815829277
157.00400300,157004003,-0.11013327538967133
157.00452800,157004528,-0.11013327538967133
157.00508300,157005083,-0.11013327538967133
157.00560600,157005606,-0.11971008777618408
157.00613300,157006133,-0.12449848651885986
157.00666300,157006663,-0.12928688526153564
157.00718900,157007189,-0.12928688526153564
157.00773000,157007730,-0.13407529890537262
157.00825800,157008258,-0.12928688526153564
157.00896200,157008962,-0.11013327538967133
157.00898600,157008986,-0.10055647045373917
157.00947700,157009477,-0.10055647045373917
157.01001700,157010017,-0.10534487664699554
157.01054800,157010548,-0.11013327538967133
157.01108100,157011081,-0.10534487664699554
157.01160400,157011604,-0.11013327538967133
157.01213600,157012136,-0.1149216815829277
157.01267700,157012677,-0.11971008777618408
157.01320600,157013206,-0.11971008777618408
157.01373600,157013736,-0.1149216815829277
157.01426800,157014268,-0.1149216815829277
157.01497800,157014978,-0.11013327538967133
157.01553900,157015539,-0.11013327538967133
157.01556000,157015560,-0.11013327538967133
157.01603900,157016039,-0.10534487664699554
157.01656700,157016567,-0.10534487664699554
157.01709700,157017097,-0.1149216815829277
157.01764600,157017646,-0.1149216815829277
157.01817600,157018176,-0.1149216815829277
157.01870400,157018704,-0.1149216815829277
157.01923500,157019235,-0.1149216815829277
157.01976400,157019764,-0.1149216815829277
157.02044500,157020445,-0.1149216815829277
157.02097400,157020974,-0.1149216815829277
157.02150100,157021501,-0.1149216815829277
157.02210400,157022104,-0.11971008777618408
157.02212400,157022124,-0.1149216815829277
157.02262900,157022629,-0.11013327538967133
157.02314700,157023147,-0.10534487664699554
157.02367100,157023671,-0.10055647045373917
157.02420500,157024205,-0.10055647045373917
157.02473200,157024732,-0.10055647045373917
157.02527900,157025279,-0.10534487664699554
157.02594800,157025948,-0.11013327538967133
157.02647900,157026479,-0.11013327538967133
157.02700800,157027008,-0.10534487664699554
157.02760400,157027604,-0.11013327538967133
157.02816100,157028161,-0.1149216815829277
157.02818100,157028181,-0.1149216815829277
157.02866000,157028660,-0.11971008777618408
157.02919300,157029193,-0.11971008777618408
157.02972000,157029720,-0.1149216815829277
157.03025800,157030258,-0.1149216815829277
157.03091000,157030910,-0.11013327538967133
157.03145600,157031456,-0.11013327538967133
157.03207600,157032076,-0.10534487664699554
157.03262200,157032622,-0.10055647045373917
157.03315300,157033153,-0.10055647045373917
157.03368000,157033680,-0.11013327538967133
157.03423600,157034236,-0.1149216815829277
157.03425700,157034257,-0.1149216815829277
157.03473600,157034736,-0.11013327538967133
157.03527700,157035277,-0.10534487664699554
157.03594000,157035940,-0.11013327538967133
157.03657600,157036576,-0.1149216815829277
157.03711200,157037112,-0.11971008777618408
157.03765700,157037657,-0.1149216815829277
157.03818600,157038186,-0.1149216815829277
157.03871400,157038714,-0.1149216815829277
157.03924800,157039248,-0.1149216815829277
157.03986700,157039867,-0.1149216815829277
157.03988900,157039889,-0.11013327538967133
157.04042600,157040426,-0.10534487664699554
157.04096800,157040968,-0.10055647045373917
157.04149400,157041494,-0.10055647045373917
157.04202500,157042025,-0.10055647045373917
157.04257900,157042579,-0.10055647045373917
157.04309200,157043092,-0.10534487664699554
157.04361800,157043618,-0.11013327538967133
157.04414800,157044148,-0.11013327538967133
157.04467700,157044677,-0.1149216815829277
157.04521500,157045215,-0.1149216815829277
157.04574800,157045748,-0.11971008777618408
157.04628000,157046280,-0.1149216815829277
157.04693400,157046934,-0.1149216815829277
157.04695400,157046954,-0.1149216815829277
157.04754900,157047549,-0.11013327538967133
157.04808300,157048083,-0.11013327538967133
157.04860600,157048606,-0.11013327538967133
157.04913500,157049135,-0.11013327538967133
157.04966500,157049665,-0.11013327538967133
157.05020600,157050206,-0.1149216815829277
157.05073400,157050734,-0.11971008777618408
157.05126100,157051261,-0.12449848651885986
157.05196400,157051964,-0.12449848651885986
157.05198400,157051984,-0.12449848651885986
157.05260300,157052603,-0.12449848651885986
157.05313000,157053130,-0.11971008777618408
157.05365600,157053656,-0.1149216815829277
157.05418700,157054187,-0.1149216815829277
157.05471500,157054715,-0.1149216815829277
157.05525300,157055253,-0.11013327538967133
157.05582000,157055820,-0.09576806426048279
157.05642800,157056428,-0.090979665517807
157.05710700,157057107,-0.09576806426048279
157.05712800,157057128,-0.10055647045373917
157.05761600,157057616,-0.11013327538967133
157.05814800,157058148,-0.1149216815829277
157.05867300,157058673,-0.1149216815829277
157.05920600,157059206,-0.10534487664699554
157.05973400,157059734,-0.10055647045373917
157.06027300,157060273,-0.10534487664699554
157.06091300,157060913,-0.11971008777618408
157.06160200,157061602,-0.12449848651885986
157.06162300,157061623,-0.12449848651885986
157.06210900,157062109,-0.1149216815829277
157.06265500,157062655,-0.11013327538967133
157.06318500,157063185,-0.10534487664699554
157.06371100,157063711,-0.11013327538967133
157.06424300,157064243,-0.10534487664699554
157.06477000,157064770,-0.10055647045373917
157.06544500,157065445,-0.10534487664699554
157.06598700,157065987,-0.10055647045373917
157.06651300,157066513,-0.10055647045373917
157.06704300,157067043,-0.10055647045373917
157.06760600,157067606,-0.10534487664699554
157.06763000,157067630,-0.10534487664699554
157.06811200,157068112,-0.10534487664699554
157.06863700,157068637,-0.10534487664699554
157.06916800,157069168,-0.11013327538967133
157.06969600,157069696,-0.1149216815829277
157.07023200,157070232,-0.1149216815829277
157.07076500,157070765,-0.1149216815829277
157.07143700,157071437,-0.11013327538967133
157.07207300,157072073,-0.10534487664699554
157.07262400,157072624,-0.10055647045373917
157.07317100,157073171,-0.10055647045373917
157.07319400,157073194,-0.10055647045373917
157.07366900,157073669,-0.10534487664699554
157.07420400,157074204,-0.10534487664699554
157.07473200,157074732,-0.10055647045373917
157.07527300,157075273,-0.10055647045373917
157.07593900,157075939,-0.11013327538967133
157.07655900,157076559,-0.11971008777618408
157.07708700,157077087,-0.11971008777618408
157.07763800,157077638,-0.12449848651885986
157.07816900,157078169,-0.12928688526153564
157.07872200,157078722,-0.12928688526153564
157.07874200,157078742,-0.12928688526153564
157.07922600,157079226,-0.12449848651885986
157.07975300,157079753,-0.12449848651885986
157.08041800,157080418,-0.12449848651885986
157.08096300,157080963,-0.12449848651885986
157.08155800,157081558,-0.11971008777618408
157.08208900,157082089,-0.1149216815829277
157.08263500,157082635,-0.11013327538967133
157.08315400,157083154,-0.11013327538967133
157.08368100,157083681,-0.10534487664699554
157.08421200,157084212,-0.10534487664699554
157.08474000,157084740,-0.1149216815829277
157.08530700,157085307,-0.11971008777618408
157.08533100,157085331,-0.12449848651885986
157.08593900,157085939,-0.12449848651885986
157.08647000,157086470,-0.11971008777618408
157.08699500,157086995,-0.1149216815829277
157.08753400,157087534,-0.10534487664699554
157.08806600,157088066,-0.10055647045373917
157.08859600,157088596,-0.09576806426048279
157.08912300,157089123,-0.09576806426048279
157.08965300,157089653,-0.10055647045373917
157.09019000,157090190,-0.10534487664699554
157.09072100,157090721,-0.11013327538967133
157.09124500,157091245,-0.11971008777618408
157.09188800,157091888,-0.12449848651885986
157.09190800,157091908,-0.12449848651885986
157.09246500,157092465,-0.11971008777618408
157.09299900,157092999,-0.11971008777618408
157.09352100,157093521,-0.1149216815829277
157.09405700,157094057,-0.11013327538967133
157.09458600,157094586,-0.11013327538967133
157.09513500,157095135,-0.11013327538967133
157.09567100,157095671,-0.11013327538967133
157.09619700,157096197,-0.10534487664699554
157.09672500,157096725,-0.10055647045373917
157.09725200,157097252,-0.10055647045373917
157.09784900,157097849,-0.10055647045373917
157.09849600,157098496,-0.10534487664699554
157.09851600,157098516,-0.1149216815829277
157.09899700,157098997,-0.11971008777618408
157.09952800,157099528,-0.11971008777618408
157.10010400,157100104,-0.12449848651885986
157.10062200,157100622,-0.12449848651885986
157.10115000,157101150,-0.12449848651885986
157.10167800,157101678,-0.12449848651885986
157.10221000,157102210,-0.12928688526153564
157.10274500,157102745,-0.12449848651885986
157.10327600,157103276,-0.1149216815829277
157.10392800,157103928,-0.11013327538967133
157.10445600,157104456,-0.11013327538967133
157.10502200,157105022,-0.11013327538967133
157.10505100,157105051,-0.11013327538967133
157.10552900,157105529,-0.11013327538967133
157.10605200,157106052,-0.11013327538967133
157.10658200,157106582,-0.11013327538967133
157.10711400,157107114,-0.1149216815829277
157.10766200,157107662,-0.1149216815829277
157.10819600,157108196,-0.11971008777618408
157.10872200,157108722,-0.12449848651885986
157.10925100,157109251,-0.1149216815829277
157.10986500,157109865,-0.11013327538967133
157.11044700,157110447,-0.10534487664699554
157.11098000,157110980,-0.10055647045373917
157.11150700,157111507,-0.10534487664699554
157.11206600,157112066,-0.1149216815829277
157.11262700,157112627,-0.11971008777618408
157.11264900,157112649,-0.1149216815829277
157.11313300,157113133,-0.1149216815829277
157.11366500,157113665,-0.1149216815829277
157.11419500,157114195,-0.1149216815829277
157.11472400,157114724,-0.1149216815829277
157.11526200,157115262,-0.1149216815829277
157.11596200,157115962,-0.1149216815829277
157.11649200,157116492,-0.11013327538967133
157.11702000,157117020,-0.1149216815829277
157.11756000,157117560,-0.11971008777618408
157.11809100,157118091,-0.11971008777618408
157.11862100,157118621,-0.11971008777618408
157.11918000,157119180,-0.11971008777618408
157.11920100,157119201,-0.12449848651885986
157.11969500,157119695,-0.11971008777618408
157.12023200,157120232,-0.11013327538967133
157.12076200,157120762,-0.11013327538967133
157.12146700,157121467,-0.10534487664699554
157.12199700,157121997,-0.10534487664699554
157.12259100,157122591,-0.10534487664699554
157.12311400,157123114,-0.11013327538967133
157.12364100,157123641,-0.1149216815829277
157.12417200,157124172,-0.12449848651885986
157.12469900,157124699,-0.12928688526153564
157.12526300,157125263,-0.12449848651885986
157.12528500,157125285,-0.11971008777618408
157.12576600,157125766,-0.1149216815829277
157.12642700,157126427,-0.11013327538967133
157.12696500,157126965,-0.11013327538967133
157.12750500,157127505,-0.1149216815829277
157.12803300,157128033,-0.11971008777618408
157.12856300,157128563,-0.11971008777618408
157.12909300,157129093,-0.11971008777618408
157.12962200,157129622,-0.11971008777618408
157.13016900,157130169,-0.11971008777618408
157.13070300,157130703,-0.11971008777618408
157.13122800,157131228,-0.1149216815829277
157.13175800,157131758,-0.11013327538967133
157.13249100,157132491,-0.1149216815829277
157.13251600,157132516,-0.11971008777618408
157.13299500,157132995,-0.11971008777618408
157.13352100,157133521,-0.1149216815829277
157.13406200,157134062,-0.1149216815829277
157.13459100,157134591,-0.11013327538967133
157.13514500,157135145,-0.11013327538967133
157.13567700,157135677,-0.11013327538967133
157.13620500,157136205,-0.11013327538967133
157.13673500,157136735,-0.10534487664699554
157.13727000,157137270,-0.10534487664699554
157.13800000,157138000,-0.10055647045373917
157.13802100,157138021,-0.10534487664699554
157.13850200,157138502,-0.11013327538967133
157.13906600,157139066,-0.1149216815829277
157.13959400,157139594,-0.12449848651885986
157.14015200,157140152,-0.12928688526153564
157.14068600,157140686,-0.12928688526153564
157.14121300,157141213,-0.11971008777618408
157.14174600,157141746,-0.11013327538967133
157.14227000,157142270,-0.10534487664699554
157.14297300,157142973,-0.10534487664699554
157.14299500,157142995,-0.11013327538967133
157.14347200,157143472,-0.1149216815829277
157.14400900,157144009,-0.11971008777618408
157.14456000,157144560,-0.11971008777618408
157.14509600,157145096,-0.11971008777618408
157.14563000,157145630,-0.11971008777618408
157.14616000,157146160,-0.1149216815829277
157.14668700,157146687,-0.11013327538967133
157.14722100,157147221,-0.11013327538967133
157.14775800,157147758,-0.1149216815829277
157.14847000,157148470,-0.11971008777618408
157.14905700,157149057,-0.1149216815829277
157.14907700,157149077,-0.11013327538967133
157.14956100,157149561,-0.11013327538967133
157.15010100,157150101,-0.11013327538967133
157.15063400,157150634,-0.10534487664699554
157.15116000,157151160,-0.10534487664699554
157.15169000,157151690,-0.10534487664699554
157.15222000,157152220,-0.10534487664699554
157.15276900,157152769,-0.10534487664699554
157.15346400,157153464,-0.10534487664699554
157.15399500,157153995,-0.10534487664699554
157.15452000,157154520,-0.11013327538967133
157.15509600,157155096,-0.10534487664699554
157.15511900,157155119,-0.10055647045373917
157.15559100,157155591,-0.10055647045373917
157.15611900,157156119,-0.10055647045373917
157.15664900,157156649,-0.10055647045373917
157.15718200,157157182,-0.10534487664699554
157.15772100,157157721,-0.11013327538967133
157.15825100,157158251,-0.1149216815829277
157.15885100,157158851,-0.11971008777618408
157.15946000,157159460,-0.1149216815829277
157.15999900,157159999,-0.11013327538967133
157.16052900,157160529,-0.1149216815829277
157.16106300,157161063,-0.1149216815829277
157.16158600,157161586,-0.1149216815829277
157.16212000,157162120,-0.11013327538967133
157.16269300,157162693,-0.10534487664699554
157.16271500,157162715,-0.10055647045373917
157.16320000,157163200,-0.10055647045373917
157.16372900,157163729,-0.10055647045373917
157.16426500,157164265,-0.10534487664699554
157.16500400,157165004,-0.1149216815829277
157.16553900,157165539,-0.1149216815829277
157.16607200,157166072,-0.11971008777618408
157.16659700,157166597,-0.11971008777618408
157.16712600,157167126,-0.12449848651885986
157.16767000,157167670,-0.12928688526153564
157.16820200,157168202,-0.12928688526153564
157.16875200,157168752,-0.11971008777618408
157.16877200,157168772,-0.1149216815829277
157.16926500,157169265,-0.11013327538967133
157.16998100,157169981,-0.11013327538967133
157.17054500,157170545,-0.11013327538967133
157.17103500,157171035,-0.11013327538967133
157.17156300,157171563,-0.11013327538967133
157.17209300,157172093,-0.11013327538967133
157.17264600,157172646,-0.11013327538967133
157.17317500,157173175,-0.11013327538967133
157.17370300,157173703,-0.11013327538967133
157.17423600,157174236,-0.1149216815829277
157.17476200,157174762,-0.11971008777618408
157.17548800,157175488,-0.11971008777618408
157.17551200,157175512,-0.1149216815829277
157.17598900,157175989,-0.11013327538967133
157.17651500,157176515,-0.11013327538967133
157.17704500,157177045,-0.11013327538967133
157.17759300,157177593,-0.11013327538967133
157.17811300,157178113,-0.11013327538967133
157.17863900,157178639,-0.11013327538967133
157.17916900,157179169,-0.10055647045373917
157.17969600,157179696,-0.10055647045373917
157.18023600,157180236,-0.10055647045373917
157.18076500,157180765,-0.10534487664699554
157.18148500,157181485,-0.10534487664699554
157.18150500,157181505,-0.11013327538967133
157.18198800,157181988,-0.11013327538967133
157.18252500,157182525,-0.10534487664699554
157.18305800,157183058,-0.10534487664699554
157.18358800,157183588,-0.11013327538967133
157.18411600,157184116,-0.11013327538967133
157.18464400,157184644,-0.11013327538967133
157.18518100,157185181,-0.1149216815829277
157.18571400,157185714,-0.1149216815829277
157.18625000,157186250,-0.11013327538967133
157.18677100,157186771,-0.10534487664699554
157.18750500,157187505,-0.10534487664699554
157.18752600,157187526,-0.10534487664699554
157.18801000,157188010,-0.10055647045373917
157.18853800,157188538,-0.09576806426048279
157.18906600,157189066,-0.09576806426048279
157.18959700,157189597,-0.09576806426048279
157.19013700,157190137,-0.10055647045373917
157.19066500,157190665,-0.10534487664699554
157.19119100,157191191,-0.11013327538967133
157.19172400,157191724,-0.1149216815829277
157.19225400,157192254,-0.11013327538967133
157.19284400,157192844,-0.10055647045373917
157.19346500,157193465,-0.10055647045373917
157.19401900,157194019,-0.10055647045373917
157.19403900,157194039,-0.10055647045373917
157.19452900,157194529,-0.10055647045373917
157.19508300,157195083,-0.10055647045373917
157.19559700,157195597,-0.09576806426048279
157.19612700,157196127,-0.090979665517807
157.19666200,157196662,-0.10055647045373917
157.19718500,157197185,-0.11013327538967133
157.19772600,157197726,-0.11013327538967133
157.19826000,157198260,-0.10055647045373917
157.19895600,157198956,-0.10055647045373917
157.19958900,157199589,-0.10534487664699554
157.19961100,157199611,-0.10534487664699554
157.20010600,157200106,-0.11013327538967133
157.20063100,157200631,-0.11971008777618408
157.20116000,157201160,-0.1149216815829277
157.20168400,157201684,-0.11971008777618408
157.20222000,157202220,-0.1149216815829277
157.20275700,157202757,-0.1149216815829277
157.20346200,157203462,-0.12449848651885986
157.20399200,157203992,-0.12449848651885986
157.20457100,157204571,-0.1149216815829277
157.20512700,157205127,-0.1149216815829277
157.20568600,157205686,-0.11971008777618408
157.20570800,157205708,-0.1149216815829277
157.20618500,157206185,-0.1149216815829277
157.20672000,157206720,-0.11971008777618408
157.20724900,157207249,-0.1149216815829277
157.20779400,157207794,-0.11013327538967133
157.20846200,157208462,-0.11013327538967133
157.20906600,157209066,-0.10055647045373917
157.20959800,157209598,-0.10055647045373917
157.21014900,157210149,-0.10055647045373917
157.21070800,157210708,-0.11013327538967133
157.21072900,157210729,-0.11971008777618408
157.21121100,157211211,-0.11971008777618408
157.21173700,157211737,-0.1149216815829277
157.21226700,157212267,-0.11013327538967133
157.21296900,157212969,-0.10534487664699554
157.21349200,157213492,-0.10055647045373917
157.21403600,157214036,-0.10534487664699554
157.21456100,157214561,-0.10055647045373917
157.21510000,157215100,-0.10055647045373917
157.21562800,157215628,-0.10055647045373917
157.21615300,157216153,-0.10534487664699554
157.21668500,157216685,-0.1149216815829277
157.21721300,157217213,-0.12449848651885986
157.21775200,157217752,-0.12449848651885986
157.21830400,157218304,-0.11971008777618408
157.21832500,157218325,-0.11971008777618408
157.21895400,157218954,-0.11971008777618408
157.21948300,157219483,-0.1149216815829277
157.22009600,157220096,-0.1149216815829277
157.22062700,157220627,-0.1149216815829277
157.22115300,157221153,-0.1149216815829277
157.22168500,157221685,-0.11971008777618408
157.22221200,157222212,-0.11971008777618408
157.22274800,157222748,-0.11971008777618408
157.22327600,157223276,-0.11971008777618408
157.22395600,157223956,-0.11971008777618408
157.22397600,157223976,-0.11971008777618408
157.22446400,157224464,-0.1149216815829277
157.22509000,157225090,-0.1149216815829277
157.22561600,157225616,-0.1149216815829277
157.22614300,157226143,-0.11013327538967133
157.22667300,157226673,-0.11013327538967133
157.22720300,157227203,-0.10534487664699554
157.22774500,157227745,-0.09576806426048279
157.22827100,157228271,-0.090979665517807
157.22896000,157228960,-0.10055647045373917
157.22898600,157228986,-0.11013327538967133
157.22946300,157229463,-0.1149216815829277
157.23010300,157230103,-0.11971008777618408
157.23063400,157230634,-0.11971008777618408
157.23115900,157231159,-0.1149216815829277
157.23169200,157231692,-0.10534487664699554
157.23221900,157232219,-0.10055647045373917
157.23275500,157232755,-0.11013327538967133
157.23332100,157233321,-0.1149216815829277
157.23398300,157233983,-0.12449848651885986
157.23400600,157234006,-0.11971008777618408
157.23448400,157234484,-0.1149216815829277
157.23511200,157235112,-0.1149216815829277
157.23564700,157235647,-0.11971008777618408
157.23617600,157236176,-0.12449848651885986
157.23670200,157236702,-0.11971008777618408
157.23723400,157237234,-0.1149216815829277
157.23777000,157237770,-0.1149216815829277
157.23847200,157238472,-0.1149216815829277
157.23902700,157239027,-0.1149216815829277
157.23905000,157239050,-0.1149216815829277
157.23953300,157239533,-0.1149216815829277
157.24007500,157240075,-0.1149216815829277
157.24060600,157240606,-0.11013327538967133
157.24113600,157241136,-0.10055647045373917
157.24166300,157241663,-0.090979665517807
157.24219500,157242195,-0.090979665517807
157.24273100,157242731,-0.09576806426048279
157.24326100,157243261,-0.10055647045373917
157.24393400,157243934,-0.10055647045373917
157.24458900,157244589,-0.10055647045373917
157.24460900,157244609,-0.10055647045373917
157.24510200,157245102,-0.10534487664699554
157.24563300,157245633,-0.11013327538967133
157.24616400,157246164,-0.1149216815829277
157.24669300,157246693,-0.1149216815829277
157.24722400,157247224,-0.11013327538967133
157.24775700,157247757,-0.1149216815829277
157.24846100,157248461,-0.1149216815829277
157.24905600,157249056,-0.11971008777618408
157.24958900,157249589,-0.11013327538967133
157.25016700,157250167,-0.10534487664699554
157.25018900,157250189,-0.10534487664699554
157.25066800,157250668,-0.11013327538967133
157.25119600,157251196,-0.11971008777618408
157.25173100,157251731,-0.12449848651885986
157.25226100,157252261,-0.12449848651885986
157.25297200,157252972,-0.12928688526153564
157.25350600,157253506,-0.12928688526153564
157.25405900,157254059,-0.12928688526153564
157.25458400,157254584,-0.12928688526153564
157.25513700,157255137,-0.12928688526153564
157.25567100,157255671,-0.12928688526153564
157.25622500,157256225,-0.12928688526153564
157.25624500,157256245,-0.11971008777618408
157.25673000,157256730,-0.1149216815829277
157.25725900,157257259,-0.1149216815829277
157.25791700,157257917,-0.11013327538967133
157.25858000,157258580,-0.10534487664699554
157.25911700,157259117,-0.10534487664699554
157.25964300,157259643,-0.11013327538967133
157.26019500,157260195,-0.1149216815829277
157.26072900,157260729,-0.12449848651885986
157.26128100,157261281,-0.12928688526153564
157.26130100,157261301,-0.13407529890537262
157.26190500,157261905,-0.12449848651885986
157.26249400,157262494,-0.11971008777618408
157.26302200,157263022,-0.11971008777618408
157.26354900,157263549,-0.1149216815829277
157.26408400,157264084,-0.11013327538967133
157.26460900,157264609,-0.10534487664699554
157.26516000,157265160,-0.10534487664699554
157.26569100,157265691,-0.11013327538967133
157.26622000,157266220,-0.11971008777618408
157.26675400,157266754,-0.12449848651885986
157.26736900,157267369,-0.12449848651885986
157.26739100,157267391,-0.12449848651885986
157.26794400,157267944,-0.12449848651885986
157.26857900,157268579,-0.1149216815829277
157.26911000,157269110,-0.11013327538967133
157.26963900,157269639,-0.1149216815829277
157.27017800,157270178,-0.11971008777618408
157.27070700,157270707,-0.12449848651885986
157.27123500,157271235,-0.12928688526153564
157.27176300,157271763,-0.12449848651885986
157.27250500,157272505,-0.11971008777618408
157.27252700,157272527,-0.1149216815829277
157.27301000,157273010,-0.11013327538967133
157.27353600,157273536,-0.10534487664699554
157.27406800,157274068,-0.10055647045373917
157.27459500,157274595,-0.10055647045373917
157.27515800,157275158,-0.10055647045373917
157.27569000,157275690,-0.10534487664699554
157.27621500,157276215,-0.10055647045373917
157.27675100,157276751,-0.10055647045373917
157.27728900,157277289,-0.10534487664699554
157.27797400,157277974,-0.11013327538967133
157.27799600,157277996,-0.10534487664699554
157.27859300,157278593,-0.09576806426048279
157.27912200,157279122,-0.09576806426048279
157.27964900,157279649,-0.10055647045373917
157.28019300,157280193,-0.10534487664699554
157.28072500,157280725,-0.10534487664699554
157.28125000,157281250,-0.10534487664699554
157.28183200,157281832,-0.1149216815829277
157.28251800,157282518,-0.1149216815829277
157.28254000,157282540,-0.11013327538967133
157.28305900,157283059,-0.11013327538967133
157.28359300,157283593,-0.10534487664699554
157.28412000,157284120,-0.10534487664699554
157.28465200,157284652,-0.10055647045373917
157.28518900,157285189,-0.10055647045373917
157.28572600,157285726,-0.10534487664699554
157.28625100,157286251,-0.10055647045373917
157.28683500,157286835,-0.09576806426048279
157.28746900,157287469,-0.09576806426048279
157.28800100,157288001,-0.10534487664699554
157.28852600,157288526,-0.1149216815829277
157.28910200,157289102,-0.11971008777618408
157.28912200,157289122,-0.11971008777618408
157.28960300,157289603,-0.12449848651885986
157.29013900,157290139,-0.11971008777618408
157.29067100,157290671,-0.11013327538967133
157.29119500,157291195,-0.10055647045373917
157.29173100,157291731,-0.10055647045373917
157.29225900,157292259,-0.11013327538967133
157.29291400,157292914,-0.11013327538967133
157.29346300,157293463,-0.11013327538967133
157.29399600,157293996,-0.10534487664699554
157.29452500,157294525,-0.10055647045373917
157.29510000,157295100,-0.10055647045373917
157.29566200,157295662,-0.10534487664699554
157.29568300,157295683,-0.10534487664699554
157.29616600,157296166,-0.10055647045373917
157.29669400,157296694,-0.10534487664699554
157.29722400,157297224,-0.11013327538967133
157.29775900,157297759,-0.1149216815829277
157.29843800,157298438,-0.1149216815829277
157.29896600,157298966,-0.11971008777618408
157.29950000,157299500,-0.11971008777618408
157.30003900,157300039,-0.11971008777618408
157.30056900,157300569,-0.11971008777618408
157.30109700,157301097,-0.1149216815829277
157.30163100,157301631,-0.1149216815829277
157.30216100,157302161,-0.11013327538967133
157.30270600,157302706,-0.10055647045373917
157.30325800,157303258,-0.10055647045373917
157.30328100,157303281,-0.10534487664699554
157.30375600,157303756,-0.11013327538967133
157.30443100,157304431,-0.1149216815829277
157.30496900,157304969,-0.1149216815829277
157.30553500,157305535,-0.11971008777618408
157.30602900,157306029,-0.11971008777618408
157.30657700,157306577,-0.11971008777618408
157.30710700,157307107,-0.11971008777618408
157.30765900,157307659,-0.1149216815829277
157.30819000,157308190,-0.11013327538967133
157.30871700,157308717,-0.10534487664699554
157.30925000,157309250,-0.10055647045373917
157.30978800,157309788,-0.10055647045373917
157.31047400,157310474,-0.10534487664699554
157.31049500,157310495,-0.1149216815829277
157.31097800,157310978,-0.11971008777618408
157.31155800,157311558,-0.1149216815829277
157.31209100,157312091,-0.1149216815829277
157.31264300,157312643,-0.11971008777618408
157.31316900,157313169,-0.11971008777618408
157.31369700,157313697,-0.12449848651885986
157.31422700,157314227,-0.12449848651885986
157.31475500,157314755,-0.11013327538967133
157.31547200,157315472,-0.10055647045373917
157.31549800,157315498,-0.10055647045373917
157.31597100,157315971,-0.11013327538967133
157.31656000,157316560,-0.1149216815829277
157.31709000,157317090,-0.11971008777618408
157.31763800,157317638,-0.11971008777618408
157.31816700,157318167,-0.11013327538967133
157.31869900,157318699,-0.11013327538967133
157.31923100,157319231,-0.11013327538967133
157.31975700,157319757,-0.11013327538967133
157.32047600,157320476,-0.11013327538967133
157.32049800,157320498,-0.11013327538967133
157.32098000,157320980,-0.1149216815829277
157.32449000,157324490,-0.1149216815829277
157.32451000,157324510,-0.1149216815829277
157.32453000,157324530,-0.1149216815829277
157.32454900,157324549,-0.1149216815829277
157.32456900,157324569,-0.11971008777618408
157.32458800,157324588,-0.11971008777618408
157.32502900,157325029,-0.10534487664699554
157.32505500,157325055,-0.10055647045373917
157.32553300,157325533,-0.10055647045373917
157.32605900,157326059,-0.10055647045373917
157.32658600,157326586,-0.10055647045373917
157.32711700,157327117,-0.10055647045373917
157.32766700,157327667,-0.10534487664699554
157.32819500,157328195,-0.10055647045373917
157.32872600,157328726,-0.10534487664699554
157.32925800,157329258,-0.10534487664699554
157.32992700,157329927,-0.10534487664699554
157.33047400,157330474,-0.10534487664699554
157.33100000,157331000,-0.10055647045373917
157.33152800,157331528,-0.10534487664699554
157.33210200,157332102,-0.11971008777618408
157.33212200,157332122,-0.12449848651885986
157.33262600,157332626,-0.12449848651885986
157.33314500,157333145,-0.11971008777618408
157.33367100,157333671,-0.11971008777618408
157.33420800,157334208,-0.11971008777618408
157.33473800,157334738,-0.11971008777618408
157.33527500,157335275,-0.11971008777618408
157.33596700,157335967,-0.12449848651885986
157.33649700,157336497,-0.12449848651885986
157.33702500,157337025,-0.1149216815829277
157.33756400,157337564,-0.11013327538967133
157.33809600,157338096,-0.11013327538967133
157.33864700,157338647,-0.11013327538967133
157.33866700,157338667,-0.11013327538967133
157.33915100,157339151,-0.11013327538967133
157.33967900,157339679,-0.11013327538967133
157.34021800,157340218,-0.11013327538967133
157.34075500,157340755,-0.10534487664699554
157.34127600,157341276,-0.10055647045373917
157.34194300,157341943,-0.10534487664699554
157.34247900,157342479,-0.11013327538967133
157.34301100,157343011,-0.1149216815829277
157.34353700,157343537,-0.11971008777618408
157.34406600,157344066,-0.11971008777618408
157.34459400,157344594,-0.11971008777618408
157.34514600,157345146,-0.1149216815829277
157.34566500,157345665,-0.11013327538967133
157.34619900,157346199,-0.11013327538967133
157.34675100,157346751,-0.10534487664699554
157.34677200,157346772,-0.10534487664699554
157.34725700,157347257,-0.10055647045373917
157.34786700,157347867,-0.10055647045373917
157.34846200,157348462,-0.10534487664699554
157.34899500,157348995,-0.11013327538967133
157.34955800,157349558,-0.11013327538967133
157.35010000,157350100,-0.11013327538967133
157.35063000,157350630,-0.11013327538967133
157.35116000,157351160,-0.1149216815829277
157.35169300,157351693,-0.12449848651885986
157.35221700,157352217,-0.12928688526153564
157.35276800,157352768,-0.13407529890537262
157.35349700,157353497,-0.13407529890537262
157.35351700,157353517,-0.13407529890537262
157.35400400,157354004,-0.12449848651885986
157.35452900,157354529,-0.1149216815829277
157.35508500,157355085,-0.11013327538967133
157.35560800,157355608,-0.11013327538967133
157.35613600,157356136,-0.10534487664699554
157.35667700,157356677,-0.10055647045373917
157.35719900,157357199,-0.10534487664699554
157.35773500,157357735,-0.11013327538967133
157.35826900,157358269,-0.1149216815829277
157.35895800,157358958,-0.1149216815829277
157.35897900,157358979,-0.1149216815829277
157.35956500,157359565,-0.1149216815829277
157.36011800,157360118,-0.1149216815829277
157.36063900,157360639,-0.11971008777618408
157.36116400,157361164,-0.11971008777618408
157.36169800,157361698,-0.11971008777618408
157.36222200,157362222,-0.1149216815829277
157.36276300,157362763,-0.11013327538967133
157.36349000,157363490,-0.10534487664699554
157.36351200,157363512,-0.11013327538967133
157.36407900,157364079,-0.1149216815829277
157.36460800,157364608,-0.11971008777618408
157.36516200,157365162,-0.11971008777618408
157.36569400,157365694,-0.11971008777618408
157.36621700,157366217,-0.1149216815829277
157.36674700,157366747,-0.11013327538967133
157.36727600,157367276,-0.10534487664699554
157.36799600,157367996,-0.10534487664699554
157.36801800,157368018,-0.10534487664699554
157.36849700,157368497,-0.10534487664699554
157.36903600,157369036,-0.10055647045373917
157.36956300,157369563,-0.10055647045373917
157.37010600,157370106,-0.10055647045373917
157.37063700,157370637,-0.10055647045373917
157.37116600,157371166,-0.11013327538967133
157.37169300,157371693,-0.1149216815829277
157.37222800,157372228,-0.1149216815829277
157.37276200,157372762,-0.1149216815829277
157.37343500,157373435,-0.1149216815829277
157.37396600,157373966,-0.1149216815829277
157.37449300,157374493,-0.1149216815829277
157.37506400,157375064,-0.1149216815829277
157.37509900,157375099,-0.11013327538967133
157.37556500,157375565,-0.10055647045373917
157.37609500,157376095,-0.10055647045373917
157.37662200,157376622,-0.10534487664699554
157.37715300,157377153,-0.11013327538967133
157.37769200,157377692,-0.1149216815829277
157.37822000,157378220,-0.11013327538967133
157.37874300,157378743,-0.10534487664699554
157.37927300,157379273,-0.10055647045373917
157.37996500,157379965,-0.10534487664699554
157.38052600,157380526,-0.1149216815829277
157.38105500,157381055,-0.12449848651885986
157.38158300,157381583,-0.1149216815829277
157.38213900,157382139,-0.11013327538967133
157.38216000,157382160,-0.10534487664699554
157.38266400,157382664,-0.10055647045373917
157.38319600,157383196,-0.10055647045373917
157.38372700,157383727,-0.10055647045373917
157.38425300,157384253,-0.10534487664699554
157.38492400,157384924,-0.1149216815829277
157.38548000,157385480,-0.1149216815829277
157.38601000,157386010,-0.1149216815829277
157.38653600,157386536,-0.1149216815829277
157.38706400,157387064,-0.11971008777618408
157.38760100,157387601,-0.11971008777618408
157.38813200,157388132,-0.11971008777618408
157.38865800,157388658,-0.12449848651885986
157.38921500,157389215,-0.12449848651885986
157.38923600,157389236,-0.11971008777618408
157.38971800,157389718,-0.11971008777618408
157.39026900,157390269,-0.1149216815829277
157.39094100,157390941,-0.1149216815829277
157.39146500,157391465,-0.1149216815829277
157.39199400,157391994,-0.11013327538967133
157.39259500,157392595,-0.11013327538967133
157.39312400,157393124,-0.1149216815829277
157.39364800,157393648,-0.1149216815829277
157.39417800,157394178,-0.1149216815829277
157.39470900,157394709,-0.1149216815829277
157.39524500,157395245,-0.1149216815829277
157.39580300,157395803,-0.1149216815829277
157.39582400,157395824,-0.1149216815829277
157.39645900,157396459,-0.11971008777618408
157.39699000,157396990,-0.11971008777618408
157.39759100,157397591,-0.1149216815829277
157.39812300,157398123,-0.11013327538967133
157.39864800,157398648,-0.10055647045373917
157.39917900,157399179,-0.09576806426048279
157.39970700,157399707,-0.09576806426048279
157.40024700,157400247,-0.09576806426048279
157.40077900,157400779,-0.10055647045373917
157.40148200,157401482,-0.10055647045373917
157.40150300,157401503,-0.10534487664699554
157.40206300,157402063,-0.11013327538967133
157.40260000,157402600,-0.1149216815829277
157.40313300,157403133,-0.1149216815829277
157.40366100,157403661,-0.1149216815829277
157.40419000,157404190,-0.11013327538967133
157.40471800,157404718,-0.11013327538967133
157.40525600,157405256,-0.1149216815829277
157.40583500,157405835,-0.1149216815829277
157.40648700,157406487,-0.1149216815829277
157.40650700,157406507,-0.1149216815829277
157.40698700,157406987,-0.1149216815829277
157.40752800,157407528,-0.1149216815829277
157.40805400,157408054,-0.1149216815829277
157.40858100,157408581,-0.11013327538967133
157.40910900,157409109,-0.10534487664699554
157.40963900,157409639,-0.10534487664699554
157.41018300,157410183,-0.10534487664699554
157.41071300,157410713,-0.10534487664699554
157.41123900,157411239,-0.11013327538967133
157.41177500,157411775,-0.11971008777618408
157.41249100,157412491,-0.1149216815829277
157.41251700,157412517,-0.11013327538967133
157.41299400,157412994,-0.11013327538967133
157.41352100,157413521,-0.11013327538967133
157.41406600,157414066,-0.11013327538967133
157.41458900,157414589,-0.11013327538967133
157.41514200,157415142,-0.1149216815829277
157.41567300,157415673,-0.1149216815829277
157.41620100,157416201,-0.11971008777618408
157.41673500,157416735,-0.12449848651885986
157.41726200,157417262,-0.12449848651885986
157.41800700,157418007,-0.11971008777618408
157.41859300,157418593,-0.11013327538967133
157.41861500,157418615,-0.11013327538967133
157.41909700,157419097,-0.11013327538967133
157.41962600,157419626,-0.10534487664699554
157.42016700,157420167,-0.10534487664699554
157.42069900,157420699,-0.11013327538967133
157.42122700,157421227,-0.11013327538967133
157.42175400,157421754,-0.1149216815829277
157.42247600,157422476,-0.11971008777618408
157.42302000,157423020,-0.12449848651885986
157.42355900,157423559,-0.12449848651885986
157.42412400,157424124,-0.1149216815829277
157.42414400,157424144,-0.11013327538967133
157.42462700,157424627,-0.10534487664699554
157.42516800,157425168,-0.11013327538967133
157.42570900,157425709,-0.11013327538967133
157.42622300,157426223,-0.11013327538967133
157.42675700,157426757,-0.11013327538967133
157.42746300,157427463,-0.1149216815829277
157.42799900,157427999,-0.11971008777618408
157.42856200,157428562,-0.11971008777618408
157.42909300,157429093,-0.12449848651885986
157.42962000,157429620,-0.12449848651885986
157.43020100,157430201,-0.11971008777618408
157.43022200,157430222,-0.1149216815829277
157.43070800,157430708,-0.1149216815829277
157.43123100,157431231,-0.1149216815829277
157.43177300,157431773,-0.11971008777618408
157.43246300,157432463,-0.11971008777618408
157.43302500,157433025,-0.11971008777618408
157.43355200,157433552,-0.11971008777618408
157.43408000,157434080,-0.11971008777618408
157.43460800,157434608,-0.1149216815829277
157.43516000,157435160,-0.1149216815829277
157.43569000,157435690,-0.11013327538967133
157.43624200,157436242,-0.11013327538967133
157.43626500,157436265,-0.1149216815829277
157.43674900,157436749,-0.1149216815829277
157.43727900,157437279,-0.11971008777618408
157.43794200,157437942,-0.11971008777618408
157.43846700,157438467,-0.1149216815829277
157.43906900,157439069,-0.11971008777618408
157.43959600,157439596,-0.11971008777618408
157.44015200,157440152,-0.11013327538967133
157.44068700,157440687,-0.10534487664699554
157.44121200,157441212,-0.10055647045373917
157.44174000,157441740,-0.10534487664699554
157.44226800,157442268,-0.10534487664699554
157.44302000,157443020,-0.10534487664699554
157.44304000,157443040,-0.10055647045373917
157.44352300,157443523,-0.10055647045373917
157.44404900,157444049,-0.10534487664699554
157.44457800,157444578,-0.1149216815829277
157.44513100,157445131,-0.12449848651885986
157.44566100,157445661,-0.12449848651885986
157.44619300,157446193,-0.11971008777618408
157.44672000,157446720,-0.11971008777618408
157.44725500,157447255,-0.1149216815829277
157.44782300,157447823,-0.11013327538967133
157.44849000,157448490,-0.10055647045373917
157.44851300,157448513,-0.09576806426048279
157.44900400,157449004,-0.090979665517807
157.44953300,157449533,-0.090979665517807
157.45008900,157450089,-0.09576806426048279
157.45060900,157450609,-0.09576806426048279
157.45113700,157451137,-0.10055647045373917
157.45166700,157451667,-0.10055647045373917
157.45219300,157452193,-0.10534487664699554
157.45273200,157452732,-0.10534487664699554
157.45326500,157453265,-0.10534487664699554
157.45395800,157453958,-0.10534487664699554
157.45398100,157453981,-0.10534487664699554
157.45455800,157454558,-0.10534487664699554
157.45512200,157455122,-0.10055647045373917
157.45564600,157455646,-0.10055647045373917
157.45617500,157456175,-0.10055647045373917
157.45670100,157456701,-0.10055647045373917
157.45723200,157457232,-0.11013327538967133
157.45777000,157457770,-0.1149216815829277
157.45850200,157458502,-0.1149216815829277
157.45852400,157458524,-0.11013327538967133
157.45903300,157459033,-0.10534487664699554
157.45957100,157459571,-0.10055647045373917
157.46012800,157460128,-0.09576806426048279
157.46065700,157460657,-0.10055647045373917
157.46118400,157461184,-0.10534487664699554
157.46172000,157461720,-0.11013327538967133
157.46224900,157462249,-0.11971008777618408
157.46286900,157462869,-0.1149216815829277
157.46346400,157463464,-0.10534487664699554
157.46399100,157463991,-0.09576806426048279
157.46452000,157464520,-0.09576806426048279
157.46516900,157465169,-0.10055647045373917
157.46519100,157465191,-0.10055647045373917
157.46567400,157465674,-0.10055647045373917
157.46620100,157466201,-0.10055647045373917
157.46673300,157466733,-0.10534487664699554
157.46726100,157467261,-0.11013327538967133
157.46797100,157467971,-0.11013327538967133
157.46856100,157468561,-0.10534487664699554
157.46912000,157469120,-0.10534487664699554
157.46914100,157469141,-0.10055647045373917
157.46962000,157469620,-0.10534487664699554
157.47016200,157470162,-0.11013327538967133
157.47069200,157470692,-0.1149216815829277
157.47121900,157471219,-0.1149216815829277
157.47175000,157471750,-0.10534487664699554
157.47236200,157472362,-0.10055647045373917
157.47296900,157472969,-0.10055647045373917
157.47349500,157473495,-0.10055647045373917
157.47408100,157474081,-0.10534487664699554
157.47461100,157474611,-0.10534487664699554
157.47518900,157475189,-0.10534487664699554
157.47521300,157475213,-0.11013327538967133
157.47569400,157475694,-0.11013327538967133
157.47622000,157476220,-0.11013327538967133
157.47675000,157476750,-0.11013327538967133
157.47737200,157477372,-0.1149216815829277
157.47798400,157477984,-0.1149216815829277
157.47851300,157478513,-0.1149216815829277
157.47908000,157479080,-0.11013327538967133
157.47961000,157479610,-0.11013327538967133
157.48016000,157480160,-0.11013327538967133
157.48069200,157480692,-0.11013327538967133
157.48124500,157481245,-0.1149216815829277
157.48126800,157481268,-0.12449848651885986
157.48174800,157481748,-0.12449848651885986
157.48227600,157482276,-0.12449848651885986
157.48294300,157482943,-0.1149216815829277
157.48347500,157483475,-0.1149216815829277
157.48407800,157484078,-0.11971008777618408
157.48461400,157484614,-0.12449848651885986
157.48517100,157485171,-0.12449848651885986
157.48570600,157485706,-0.12449848651885986
157.48623400,157486234,-0.12449848651885986
157.48677200,157486772,-0.12449848651885986
157.48750700,157487507,-0.11971008777618408
157.48752800,157487528,-0.1149216815829277
157.48801400,157488014,-0.1149216815829277
157.48860000,157488600,-0.1149216815829277
157.48913300,157489133,-0.11013327538967133
157.48965700,157489657,-0.11013327538967133
157.49019800,157490198,-0.11013327538967133
157.49073300,157490733,-0.10534487664699554
157.49125700,157491257,-0.10055647045373917
157.49186700,157491867,-0.10055647045373917
157.49189000,157491890,-0.10055647045373917
157.49247000,157492470,-0.10055647045373917
157.49299700,157492997,-0.10534487664699554
157.49352500,157493525,-0.10534487664699554
157.49405800,157494058,-0.10055647045373917
157.49458700,157494587,-0.10055647045373917
157.49513600,157495136,-0.10055647045373917
157.49566400,157495664,-0.10534487664699554
157.49619200,157496192,-0.11013327538967133
157.49671900,157496719,-0.11013327538967133
157.49725100,157497251,-0.11013327538967133
157.49783400,157497834,-0.11013327538967133
157.49850000,157498500,-0.1149216815829277
157.49852100,157498521,-0.11013327538967133
157.49907600,157499076,-0.10534487664699554
157.49960700,157499607,-0.10055647045373917
157.50015800,157500158,-0.10055647045373917
157.50068700,157500687,-0.10055647045373917
157.50121700,157501217,-0.10055647045373917
157.50175200,157501752,-0.10055647045373917
157.50228900,157502289,-0.09576806426048279
157.50294500,157502945,-0.090979665517807
157.50360600,157503606,-0.08619125932455063
157.50362600,157503626,-0.090979665517807
157.50411000,157504110,-0.090979665517807
157.50463900,157504639,-0.090979665517807
157.50517500,157505175,-0.10055647045373917
157.50570800,157505708,-0.10534487664699554
157.50623600,157506236,-0.10534487664699554
157.50677700,157506777,-0.10534487664699554
157.50747600,157507476,-0.11013327538967133
157.50801900,157508019,-0.1149216815829277
157.50856700,157508567,-0.11971008777618408
157.50858700,157508587,-0.11971008777618408
157.50906700,157509067,-0.11013327538967133
157.50959800,157509598,-0.10534487664699554
157.51014800,157510148,-0.11013327538967133
157.51067900,157510679,-0.11013327538967133
157.51120500,157511205,-0.1149216815829277
157.51173600,157511736,-0.1149216815829277
157.51226600,157512266,-0.1149216815829277
157.51294200,157512942,-0.11013327538967133
157.51347300,157513473,-0.10534487664699554
157.51407300,157514073,-0.10055647045373917
157.51462700,157514627,-0.10055647045373917
157.51464800,157514648,-0.10055647045373917
157.51515200,157515152,-0.10534487664699554
157.51568600,157515686,-0.10534487664699554
157.51621300,157516213,-0.10055647045373917
157.51674800,157516748,-0.08619125932455063
157.51736500,157517365,-0.08619125932455063
157.51795500,157517955,-0.090979665517807
157.51848300,157518483,-0.09576806426048279
157.51902100,157519021,-0.10055647045373917
157.51954900,157519549,-0.10534487664699554
157.52009200,157520092,-0.11013327538967133
157.52061800,157520618,-0.1149216815829277
157.52114800,157521148,-0.12449848651885986
157.52169900,157521699,-0.12928688526153564
157.52172000,157521720,-0.12449848651885986
157.52220300,157522203,-0.11971008777618408
157.52274000,157522740,-0.1149216815829277
157.52327100,157523271,-0.11013327538967133
157.52390500,157523905,-0.10055647045373917
157.52448600,157524486,-0.10055647045373917
157.52502700,157525027,-0.10055647045373917
157.52555700,157525557,-0.10055647045373917
157.52608200,157526082,-0.09576806426048279
157.52661000,157526610,-0.090979665517807
157.52714200,157527142,-0.09576806426048279
157.52768300,157527683,-0.10055647045373917
157.52820800,157528208,-0.10055647045373917
157.52873600,157528736,-0.11013327538967133
157.52929600,157529296,-0.11971008777618408
157.52931700,157529317,-0.1149216815829277
157.52996300,157529963,-0.11013327538967133
157.53051200,157530512,-0.10534487664699554
157.53101500,157531015,-0.10534487664699554
157.53157600,157531576,-0.1149216815829277
157.53210600,157532106,-0.11971008777618408
157.53265600,157532656,-0.11971008777618408
157.53318800,157533188,-0.11971008777618408
157.53371400,157533714,-0.11971008777618408
157.53424900,157534249,-0.1149216815829277
157.53477300,157534773,-0.10534487664699554
157.53544100,157535441,-0.10055647045373917
157.53546200,157535462,-0.10534487664699554
157.53596700,157535967,-0.11013327538967133
157.53649700,157536497,-0.1149216815829277
157.53703000,157537030,-0.12449848651885986
157.53756400,157537564,-0.12449848651885986
157.53809500,157538095,-0.11971008777618408
157.53862300,157538623,-0.11971008777618408
157.53915100,157539151,-0.11971008777618408
157.53968100,157539681,-0.11971008777618408
157.54021800,157540218,-0.12449848651885986
157.54074900,157540749,-0.12449848651885986
157.54127900,157541279,-0.11971008777618408
157.54196700,157541967,-0.1149216815829277
157.54198700,157541987,-0.11013327538967133
157.54247600,157542476,-0.11013327538967133
157.54300900,157543009,-0.11013327538967133
157.54353600,157543536,-0.11013327538967133
157.54406700,157544067,-0.11013327538967133
157.54459400,157544594,-0.11013327538967133
157.54514300,157545143,-0.10534487664699554
157.54568100,157545681,-0.11013327538967133
157.54621300,157546213,-0.1149216815829277
157.54673900,157546739,-0.1149216815829277
157.54727700,157547277,-0.1149216815829277
157.54791200,157547912,-0.1149216815829277
157.54852300,157548523,-0.11013327538967133
157.54854300,157548543,-0.11013327538967133
157.54905700,157549057,-0.10534487664699554
157.54958600,157549586,-0.10534487664699554
157.55013800,157550138,-0.11013327538967133
157.55066900,157550669,-0.11013327538967133
157.55119100,157551191,-0.11013327538967133
157.55172500,157551725,-0.11013327538967133
157.55225700,157552257,-0.10055647045373917
157.55294400,157552944,-0.10055647045373917
157.55347300,157553473,-0.10055647045373917
157.55408700,157554087,-0.10534487664699554
157.55410800,157554108,-0.11013327538967133
157.55459000,157554590,-0.1149216815829277
157.55514400,157555144,-0.1149216815829277
157.55567100,157555671,-0.11013327538967133
157.55619700,157556197,-0.1149216815829277
157.55672900,157556729,-0.1149216815829277
157.55726100,157557261,-0.1149216815829277
157.55796900,157557969,-0.1149216815829277
157.55849700,157558497,-0.11971008777618408
157.55902400,157559024,-0.11971008777618408
157.55955800,157559558,-0.11971008777618408
157.56009800,157560098,-0.11013327538967133
157.56065800,157560658,-0.11013327538967133
157.56067900,157560679,-0.11013327538967133
157.56116300,157561163,-0.10534487664699554
157.56169600,157561696,-0.10534487664699554
157.56222400,157562224,-0.11013327538967133
157.56276600,157562766,-0.1149216815829277
157.56346700,157563467,-0.1149216815829277
157.56406500,157564065,-0.11971008777618408
157.56459300,157564593,-0.1149216815829277
157.56514900,157565149,-0.10534487664699554
157.56570500,157565705,-0.10534487664699554
157.56572600,157565726,-0.11013327538967133
157.56620600,157566206,-0.11013327538967133
157.56673500,157566735,-0.11013327538967133
157.56726600,157567266,-0.10534487664699554
157.56797000,157567970,-0.10055647045373917
157.56847100,157568471,-0.11013327538967133
157.56900400,157569004,-0.11013327538967133
157.56953000,157569530,-0.1149216815829277
157.57009100,157570091,-0.11971008777618408
157.57061500,157570615,-0.11971008777618408
157.57114700,157571147,-0.11971008777618408
157.57167300,157571673,-0.1149216815829277
157.57220400,157572204,-0.1149216815829277
157.57274100,157572741,-0.1149216815829277
157.57329700,157573297,-0.1149216815829277
157.57331700,157573317,-0.1149216815829277
157.57393200,157573932,-0.11013327538967133
157.57446800,157574468,-0.11013327538967133
157.57500900,157575009,-0.10534487664699554
157.57558100,157575581,-0.10055647045373917
157.57610800,157576108,-0.10534487664699554
157.57663400,157576634,-0.1149216815829277
157.57716500,157577165,-0.1149216815829277
157.57770900,157577709,-0.10534487664699554
157.57823000,157578230,-0.11013327538967133
157.57875700,157578757,-0.11971008777618408
157.57949200,157579492,-0.12928688526153564
157.57951300,157579513,-0.12928688526153564
157.58000400,157580004,-0.12928688526153564
157.58053000,157580530,-0.12928688526153564
157.58106600,157581066,-0.12449848651885986
157.58159500,157581595,-0.1149216815829277
157.58212500,157582125,-0.11013327538967133
157.58267400,157582674,-0.11013327538967133
157.58320300,157583203,-0.11013327538967133
157.58373500,157583735,-0.11013327538967133
157.58426000,157584260,-0.1149216815829277
157.58496700,157584967,-0.11013327538967133
157.58499000,157584990,-0.11013327538967133
157.58548300,157585483,-0.11013327538967133
157.58600900,157586009,-0.11013327538967133
157.58653800,157586538,-0.10055647045373917
157.58706700,157587067,-0.10055647045373917
157.58760500,157587605,-0.10055647045373917
157.58813500,157588135,-0.10534487664699554
157.58866200,157588662,-0.11013327538967133
157.58919100,157589191,-0.1149216815829277
157.58971800,157589718,-0.1149216815829277
157.59026000,157590260,-0.1149216815829277
157.59099200,157590992,-0.1149216815829277
157.59101300,157591013,-0.11013327538967133
157.59149400,157591494,-0.11013327538967133
157.59202600,157592026,-0.1149216815829277
157.59256500,157592565,-0.11971008777618408
157.59309200,157593092,-0.1149216815829277
157.59362000,157593620,-0.10534487664699554
157.59415000,157594150,-0.10534487664699554
157.59468200,157594682,-0.1149216815829277
157.59521800,157595218,-0.11971008777618408
157.59574900,157595749,-0.12449848651885986
157.59627700,157596277,-0.11971008777618408
157.59696700,157596967,-0.1149216815829277
157.59750700,157597507,-0.11013327538967133
157.59809800,157598098,-0.10534487664699554
157.59812100,157598121,-0.10534487664699554
157.59860000,157598600,-0.11013327538967133
157.59913100,157599131,-0.1149216815829277
157.59965600,157599656,-0.1149216815829277
157.60019400,157600194,-0.11013327538967133
157.60072600,157600726,-0.10534487664699554
157.60125400,157601254,-0.10534487664699554
157.60193300,157601933,-0.10534487664699554
157.60246700,157602467,-0.10534487664699554
157.60300100,157603001,-0.11013327538967133
157.60352600,157603526,-0.11013327538967133
157.60406000,157604060,-0.1149216815829277
157.60458900,157604589,-0.11971008777618408
157.60516700,157605167,-0.11971008777618408
157.60518900,157605189,-0.11013327538967133
157.60567300,157605673,-0.11013327538967133
157.60619700,157606197,-0.11013327538967133
157.60673600,157606736,-0.11013327538967133
157.60726300,157607263,-0.11013327538967133
157.60797600,157607976,-0.11013327538967133
157.60850500,157608505,-0.11013327538967133
157.60907000,157609070,-0.11013327538967133
157.60960200,157609602,-0.10534487664699554
157.61015900,157610159,-0.1149216815829277
157.61071200,157610712,-0.1149216815829277
157.61073300,157610733,-0.1149216815829277
157.61121300,157611213,-0.1149216815829277
157.61174400,157611744,-0.11971008777618408
157.61227200,157612272,-0.1149216815829277
157.61298300,157612983,-0.11013327538967133
157.61351100,157613511,-0.10534487664699554
157.61406300,157614063,-0.10534487664699554
157.61459400,157614594,-0.10055647045373917
157.61514500,157615145,-0.09576806426048279
157.61567300,157615673,-0.10055647045373917
157.61619900,157616199,-0.10534487664699554
157.61673000,157616730,-0.11013327538967133
157.61728600,157617286,-0.1149216815829277
157.61737100,157617371,-0.1149216815829277
157.61794100,157617941,-0.11971008777618408
157.61846800,157618468,-0.1149216815829277
157.61907200,157619072,-0.1149216815829277
157.61959800,157619598,-0.11013327538967133
157.62015900,157620159,-0.11013327538967133
157.62069300,157620693,-0.1149216815829277
157.62122100,157621221,-0.12449848651885986
157.62174700,157621747,-0.13407529890537262
157.62235100,157622351,-0.1388636976480484
157.62300900,157623009,-0.12928688526153564
157.62303100,157623031,-0.11971008777618408
157.62356700,157623567,-0.11013327538967133
157.62409400,157624094,-0.10534487664699554
157.62461900,157624619,-0.1149216815829277
157.62517200,157625172,-0.11971008777618408
157.62570400,157625704,-0.11971008777618408
157.62623000,157626230,-0.12449848651885986
157.62676600,157626766,-0.12449848651885986
157.62750600,157627506,-0.11971008777618408
157.62752700,157627527,-0.11013327538967133
157.62800900,157628009,-0.10534487664699554
157.62856500,157628565,-0.10055647045373917
157.62910000,157629100,-0.10055647045373917
157.62962400,157629624,-0.10534487664699554
157.63016800,157630168,-0.11013327538967133
157.63069800,157630698,-0.1149216815829277
157.63122600,157631226,-0.1149216815829277
157.63175600,157631756,-0.1149216815829277
157.63249300,157632493,-0.11971008777618408
157.63251500,157632515,-0.1149216815829277
157.63299900,157632999,-0.11013327538967133
157.63352400,157633524,-0.10534487664699554
157.63405300,157634053,-0.11013327538967133
157.63458200,157634582,-0.1149216815829277
157.63513100,157635131,-0.11971008777618408
157.63566200,157635662,-0.1149216815829277
157.63618700,157636187,-0.1149216815829277
157.63672000,157636720,-0.11971008777618408
157.63725200,157637252,-0.11971008777618408
157.63784000,157637840,-0.11971008777618408
157.63846500,157638465,-0.11971008777618408
157.63902300,157639023,-0.11971008777618408
157.63904300,157639043,-0.11971008777618408
157.63952300,157639523,-0.1149216815829277
157.64008000,157640080,-0.11013327538967133
157.64059900,157640599,-0.1149216815829277
157.64112700,157641127,-0.11971008777618408
157.64165500,157641655,-0.1149216815829277
157.64218500,157642185,-0.1149216815829277
157.64271900,157642719,-0.11971008777618408
157.64325300,157643253,-0.11971008777618408
157.64381600,157643816,-0.1149216815829277
157.64447500,157644475,-0.1149216815829277
157.64501400,157645014,-0.11013327538967133
157.64559900,157645599,-0.1149216815829277
157.64562000,157645620,-0.1149216815829277
157.64610300,157646103,-0.11013327538967133
157.64663400,157646634,-0.11013327538967133
157.64716400,157647164,-0.11013327538967133
157.64770200,157647702,-0.11013327538967133
157.64823000,157648230,-0.11013327538967133
157.64875900,157648759,-0.11013327538967133
157.64943200,157649432,-0.11013327538967133
157.64996800,157649968,-0.11013327538967133
157.65050200,157650502,-0.1149216815829277
157.65102900,157651029,-0.11013327538967133
157.65155600,157651556,-0.10534487664699554
157.65208700,157652087,-0.10534487664699554
157.65263400,157652634,-0.10534487664699554
157.65319100,157653191,-0.10534487664699554
157.65321200,157653212,-0.10534487664699554
157.65369100,157653691,-0.10055647045373917
157.65422000,157654220,-0.10534487664699554
157.65474800,157654748,-0.11013327538967133
157.65530000,157655300,-0.11013327538967133
157.65598000,157655980,-0.11013327538967133
157.65656000,157656560,-0.11013327538967133
157.65708700,157657087,-0.11013327538967133
157.65763700,157657637,-0.11013327538967133
157.65816500,157658165,-0.11013327538967133
157.65869100,157658691,-0.11013327538967133
157.65925000,157659250,-0.11013327538967133
157.65927100,157659271,-0.11013327538967133
157.65975100,157659751,-0.11013327538967133
157.66036600,157660366,-0.11013327538967133
157.66096600,157660966,-0.1149216815829277
157.66156000,157661560,-0.11971008777618408
157.66209100,157662091,-0.12449848651885986
157.66263900,157662639,-0.12928688526153564
157.66317000,157663170,-0.12928688526153564
157.66369900,157663699,-0.12449848651885986
157.66423000,157664230,-0.11013327538967133
157.66475700,157664757,-0.10534487664699554
157.66550400,157665504,-0.11013327538967133
157.66552600,157665526,-0.1149216815829277
157.66597800,157665978,-0.11013327538967133
157.66656300,157666563,-0.11013327538967133
157.66709500,157667095,-0.11013327538967133
157.66764700,157667647,-0.11013327538967133
157.66817400,157668174,-0.10534487664699554
157.66870400,157668704,-0.11013327538967133
157.66923500,157669235,-0.10534487664699554
157.66976100,157669761,-0.10055647045373917
157.67047600,157670476,-0.10055647045373917
157.67049800,157670498,-0.10534487664699554
157.67098400,157670984,-0.11013327538967133
157.67150900,157671509,-0.1149216815829277
157.67204100,157672041,-0.1149216815829277
157.67259300,157672593,-0.11013327538967133
157.67311400,157673114,-0.10055647045373917
157.67364000,157673640,-0.10534487664699554
157.67416900,157674169,-0.1149216815829277
157.67470300,157674703,-0.1149216815829277
157.67524200,157675242,-0.1149216815829277
157.67577200,157675772,-0.11013327538967133
157.67649100,157676491,-0.11013327538967133
157.67651100,157676511,-0.11013327538967133
157.67699400,157676994,-0.11013327538967133
157.67753200,157677532,-0.1149216815829277
157.67807000,157678070,-0.11971008777618408
157.67859800,157678598,-0.11971008777618408
157.67912900,157679129,-0.11971008777618408
157.67965600,157679656,-0.11971008777618408
157.68019400,157680194,-0.1149216815829277
157.68072600,157680726,-0.11013327538967133
157.68125300,157681253,-0.11013327538967133
157.68185600,157681856,-0.11971008777618408
157.68246400,157682464,-0.12449848651885986
157.68302300,157683023,-0.12449848651885986
157.68304400,157683044,-0.11971008777618408
157.68352900,157683529,-0.11971008777618408
157.68405400,157684054,-0.1149216815829277
157.68459400,157684594,-0.1149216815829277
157.68514000,157685140,-0.1149216815829277
157.68567000,157685670,-0.1149216815829277
157.68619500,157686195,-0.11013327538967133
157.68673300,157686733,-0.10534487664699554
157.68725800,157687258,-0.10055647045373917
157.68791100,157687911,-0.11013327538967133
157.68851000,157688510,-0.1149216815829277
157.68908800,157689088,-0.11013327538967133
157.68910800,157689108,-0.1149216815829277
157.68958700,157689587,-0.1149216815829277
157.69012600,157690126,-0.1149216815829277
157.69065400,157690654,-0.11013327538967133
157.69118100,157691181,-0.10534487664699554
157.69170900,157691709,-0.11013327538967133
157.69224000,157692240,-0.1149216815829277
157.69278100,157692781,-0.11971008777618408
157.69346700,157693467,-0.1149216815829277
157.69406000,157694060,-0.1149216815829277
157.69458600,157694586,-0.1149216815829277
157.69517900,157695179,-0.1149216815829277
157.69520100,157695201,-0.1149216815829277
157.69568600,157695686,-0.1149216815829277
157.69621900,157696219,-0.11971008777618408
157.69674300,157696743,-0.11971008777618408
157.69727300,157697273,-0.11971008777618408
157.69791300,157697913,-0.1149216815829277
157.69846900,157698469,-0.1149216815829277
157.69900300,157699003,-0.11013327538967133
157.69952800,157699528,-0.10534487664699554
157.70009800,157700098,-0.10534487664699554
157.70062900,157700629,-0.10534487664699554
157.70115700,157701157,-0.11013327538967133
157.70168700,157701687,-0.11013327538967133
157.70224600,157702246,-0.11013327538967133
157.70226700,157702267,-0.11013327538967133
157.70276000,157702760,-0.11013327538967133
157.70340800,157703408,-0.10055647045373917
157.70408000,157704080,-0.090979665517807
157.70460500,157704605,-0.090979665517807
157.70515800,157705158,-0.10055647045373917
157.70568900,157705689,-0.10534487664699554
157.70621500,157706215,-0.10534487664699554
157.70674800,157706748,-0.11013327538967133
157.70736300,157707363,-0.11013327538967133
157.70738600,157707386,-0.11013327538967133
157.70795800,157707958,-0.1149216815829277
157.70849500,157708495,-0.11971008777618408
157.70902600,157709026,-0.12449848651885986
157.70955100,157709551,-0.11971008777618408
157.71009400,157710094,-0.11971008777618408
157.71062300,157710623,-0.1149216815829277
157.71114900,157711149,-0.1149216815829277
157.71167900,157711679,-0.11971008777618408
157.71220500,157712205,-0.11971008777618408
157.71274000,157712740,-0.1149216815829277
157.71326900,157713269,-0.11013327538967133
157.71395800,157713958,-0.11013327538967133
157.71398200,157713982,-0.11013327538967133
157.71446200,157714462,-0.10534487664699554
157.71500400,157715004,-0.10055647045373917
157.71553500,157715535,-0.10055647045373917
157.71606100,157716061,-0.10055647045373917
157.71658700,157716587,-0.10055647045373917
157.71711700,157717117,-0.11013327538967133
157.71767100,157717671,-0.1149216815829277
157.71820100,157718201,-0.11971008777618408
157.71872700,157718727,-0.12449848651885986
157.71925800,157719258,-0.12449848651885986
157.72000500,157720005,-0.12928688526153564
157.72002700,157720027,-0.12928688526153564
157.72051200,157720512,-0.12449848651885986
157.72104300,157721043,-0.12449848651885986
157.72156800,157721568,-0.11971008777618408
157.72210000,157722100,-0.1149216815829277
157.72265100,157722651,-0.10534487664699554
157.72317700,157723177,-0.10055647045373917
157.72370500,157723705,-0.090979665517807
157.72423800,157724238,-0.09576806426048279
157.72476800,157724768,-0.10534487664699554
157.72550600,157725506,-0.1149216815829277
157.72553000,157725530,-0.11971008777618408
157.72600700,157726007,-0.1149216815829277
157.72653300,157726533,-0.11013327538967133
157.72706200,157727062,-0.11013327538967133
157.72760100,157727601,-0.1149216815829277
157.72813400,157728134,-0.11971008777618408
157.72866900,157728669,-0.11971008777618408
157.72919900,157729199,-0.1149216815829277
157.72972700,157729727,-0.11013327538967133
157.73026600,157730266,-0.1149216815829277
157.73093800,157730938,-0.1149216815829277
157.73158300,157731583,-0.1149216815829277
157.73160400,157731604,-0.1149216815829277
157.73208700,157732087,-0.1149216815829277
157.73264800,157732648,-0.11971008777618408
157.73317800,157733178,-0.12449848651885986
157.73370600,157733706,-0.11971008777618408
157.73424200,157734242,-0.11971008777618408
157.73477000,157734770,-0.11971008777618408
157.73542500,157735425,-0.12449848651885986
157.73611900,157736119,-0.11971008777618408
157.73614000,157736140,-0.11971008777618408
157.73662500,157736625,-0.11971008777618408
157.73715500,157737155,-0.11971008777618408
157.73769200,157737692,-0.11971008777618408
157.73822100,157738221,-0.1149216815829277
157.73875600,157738756,-0.1149216815829277
157.73944600,157739446,-0.1149216815829277
157.73998600,157739986,-0.11013327538967133
157.74051500,157740515,-0.10534487664699554
157.74104400,157741044,-0.11013327538967133
157.74157200,157741572,-0.1149216815829277
157.74210300,157742103,-0.1149216815829277
157.74264900,157742649,-0.1149216815829277
157.74320900,157743209,-0.1149216815829277
157.74323000,157743230,-0.11013327538967133
157.74370600,157743706,-0.11013327538967133
157.74424000,157744240,-0.11013327538967133
157.74476800,157744768,-0.10534487664699554
157.74544000,157745440,-0.10534487664699554
157.74597300,157745973,-0.10534487664699554
157.74650100,157746501,-0.10055647045373917
157.74703000,157747030,-0.10055647045373917
157.74757200,157747572,-0.10055647045373917
157.74811000,157748110,-0.09576806426048279
157.74863700,157748637,-0.090979665517807
157.74916600,157749166,-0.09576806426048279
157.74970100,157749701,-0.10055647045373917
157.75024400,157750244,-0.11013327538967133
157.75079700,157750797,-0.1149216815829277
157.75081800,157750818,-0.1149216815829277
157.75140300,157751403,-0.10534487664699554
157.75196700,157751967,-0.10055647045373917
157.75250400,157752504,-0.09576806426048279
157.75303600,157753036,-0.09576806426048279
157.75356200,157753562,-0.09576806426048279
157.75409600,157754096,-0.10055647045373917
157.75462500,157754625,-0.11013327538967133
157.75516600,157755166,-0.1149216815829277
157.75569700,157755697,-0.1149216815829277
157.75622400,157756224,-0.11971008777618408
157.75675400,157756754,-0.12449848651885986
157.75750400,157757504,-0.12928688526153564
157.75752600,157757526,-0.12928688526153564
157.75801500,157758015,-0.12449848651885986
157.75854200,157758542,-0.11971008777618408
157.75907200,157759072,-0.1149216815829277
157.75960000,157759600,-0.1149216815829277
157.76015000,157760150,-0.1149216815829277
157.76068200,157760682,-0.1149216815829277
157.76120700,157761207,-0.10534487664699554
157.76173800,157761738,-0.09576806426048279
157.76226600,157762266,-0.09576806426048279
157.76297800,157762978,-0.10055647045373917
157.76300100,157763001,-0.10534487664699554
157.76347500,157763475,-0.1149216815829277
157.76401100,157764011,-0.11971008777618408
157.76453600,157764536,-0.11971008777618408
157.76510400,157765104,-0.11971008777618408
157.76563500,157765635,-0.12449848651885986
157.76616300,157766163,-0.12449848651885986
157.76670200,157766702,-0.12449848651885986
157.76722900,157767229,-0.11971008777618408
157.76777100,157767771,-0.11971008777618408
157.76843600,157768436,-0.11971008777618408
157.76899500,157768995,-0.11971008777618408
157.76901900,157769019,-0.12449848651885986
157.76949400,157769494,-0.11971008777618408
157.77010600,157770106,-0.1149216815829277
157.77063800,157770638,-0.1149216815829277
157.77116800,157771168,-0.1149216815829277
157.77169600,157771696,-0.1149216815829277
157.77222700,157772227,-0.11971008777618408
157.77276200,157772762,-0.12449848651885986
157.77346000,157773460,-0.11971008777618408
157.77409000,157774090,-0.1149216815829277
157.77411100,157774111,-0.11013327538967133
157.77459100,157774591,-0.11013327538967133
157.77514600,157775146,-0.10055647045373917
157.77567800,157775678,-0.10055647045373917
157.77620300,157776203,-0.10055647045373917
157.77673300,157776733,-0.09576806426048279
157.77726100,157777261,-0.09576806426048279
157.77800600,157778006,-0.10055647045373917
157.77849300,157778493,-0.10534487664699554
157.77902100,157779021,-0.11013327538967133
157.77954800,157779548,-0.1149216815829277
157.78012600,157780126,-0.11971008777618408
157.78014800,157780148,-0.12449848651885986
157.78063200,157780632,-0.11971008777618408
157.78115900,157781159,-0.1149216815829277
157.78168600,157781686,-0.1149216815829277
157.78221600,157782216,-0.1149216815829277
157.78275300,157782753,-0.11013327538967133
157.78328500,157783285,-0.11013327538967133
157.78390700,157783907,-0.1149216815829277
157.78446200,157784462,-0.1149216815829277
157.78499700,157784997,-0.1149216815829277
157.78552900,157785529,-0.1149216815829277
157.78605400,157786054,-0.1149216815829277
157.78658300,157786583,-0.11971008777618408
157.78711200,157787112,-0.1149216815829277
157.78765800,157787658,-0.10534487664699554
157.78821300,157788213,-0.10055647045373917
157.78823800,157788238,-0.10055647045373917
157.78871200,157788712,-0.10534487664699554
157.78924500,157789245,-0.10055647045373917
157.78977400,157789774,-0.10055647045373917
157.79049900,157790499,-0.10055647045373917
157.79106100,157791061,-0.10055647045373917
157.79159100,157791591,-0.10534487664699554
157.79211900,157792119,-0.11013327538967133
157.79266800,157792668,-0.11013327538967133
157.79319800,157793198,-0.1149216815829277
157.79375400,157793754,-0.1149216815829277
157.79377600,157793776,-0.1149216815829277
157.79425800,157794258,-0.10534487664699554
157.79496600,157794966,-0.11013327538967133
157.79549600,157795496,-0.11971008777618408
157.79602600,157796026,-0.12928688526153564
157.79655300,157796553,-0.13407529890537262
157.79708300,157797083,-0.13407529890537262
157.79763400,157797634,-0.12449848651885986
157.79816400,157798164,-0.11971008777618408
157.79869100,157798691,-0.11013327538967133
157.79922100,157799221,-0.10534487664699554
157.79974900,157799749,-0.10534487664699554
157.80029900,157800299,-0.10534487664699554
157.80099100,157800991,-0.11013327538967133
157.80101100,157801011,-0.10534487664699554
157.80156300,157801563,-0.11013327538967133
157.80209400,157802094,-0.1149216815829277
157.80263000,157802630,-0.11971008777618408
157.80316000,157803160,-0.1149216815829277
157.80368700,157803687,-0.1149216815829277
157.80421700,157804217,-0.1149216815829277
157.80474600,157804746,-0.1149216815829277
157.80528900,157805289,-0.1149216815829277
157.80599800,157805998,-0.1149216815829277
157.80601800,157806018,-0.1149216815829277
157.80650800,157806508,-0.11013327538967133
157.80704100,157807041,-0.11013327538967133
157.80759000,157807590,-0.11013327538967133
157.80810500,157808105,-0.1149216815829277
157.80863300,157808633,-0.12449848651885986
157.80916600,157809166,-0.12928688526153564
157.80969000,157809690,-0.12928688526153564
157.81023200,157810232,-0.12449848651885986
157.81076100,157810761,-0.11971008777618408
157.81148200,157811482,-0.11971008777618408
157.81150400,157811504,-0.11971008777618408
157.81207500,157812075,-0.11971008777618408
157.81261200,157812612,-0.11971008777618408
157.81314500,157813145,-0.1149216815829277
157.81367000,157813670,-0.1149216815829277
157.81420000,157814200,-0.11971008777618408
157.81472800,157814728,-0.1149216815829277
157.81526800,157815268,-0.10534487664699554
157.81593500,157815935,-0.11013327538967133
157.81646100,157816461,-0.11013327538967133
157.81702000,157817020,-0.10055647045373917
157.81704000,157817040,-0.11013327538967133
157.81752900,157817529,-0.11013327538967133
157.81806300,157818063,-0.11013327538967133
157.81859000,157818590,-0.11013327538967133
157.81912000,157819120,-0.11013327538967133
157.81964700,157819647,-0.10534487664699554
157.82018800,157820188,-0.10055647045373917
157.82072100,157820721,-0.09576806426048279
157.82125100,157821251,-0.090979665517807
157.82177500,157821775,-0.090979665517807
157.82247700,157822477,-0.09576806426048279
157.82304700,157823047,-0.10534487664699554
157.82360300,157823603,-0.11013327538967133
157.82362600,157823626,-0.1149216815829277
157.82411000,157824110,-0.12449848651885986
157.82463700,157824637,-0.12928688526153564
157.82517900,157825179,-0.12928688526153564
157.82571000,157825710,-0.12449848651885986
157.82623600,157826236,-0.11971008777618408
157.82676500,157826765,-0.1149216815829277
157.82747600,157827476,-0.11013327538967133
157.82800900,157828009,-0.10534487664699554
157.82856600,157828566,-0.1149216815829277
157.82909600,157829096,-0.12928688526153564
157.82962800,157829628,-0.12928688526153564
157.83020800,157830208,-0.12928688526153564
157.83023000,157830230,-0.12449848651885986
157.83070800,157830708,-0.11971008777618408
157.83123700,157831237,-0.1149216815829277
157.83176700,157831767,-0.1149216815829277
157.83244000,157832440,-0.1149216815829277
157.83297400,157832974,-0.11013327538967133
157.83350100,157833501,-0.10534487664699554
157.83403000,157834030,-0.10055647045373917
157.83455700,157834557,-0.09576806426048279
157.83509500,157835095,-0.09576806426048279
157.83562700,157835627,-0.10055647045373917
157.83615400,157836154,-0.1149216815829277
157.83668000,157836680,-0.12449848651885986
157.83720800,157837208,-0.11971008777618408
157.83777200,157837772,-0.1149216815829277
157.83779300,157837793,-0.11013327538967133
157.83827100,157838271,-0.11013327538967133
157.83896000,157838960,-0.11013327538967133
157.83949600,157839496,-0.11013327538967133
157.84004300,157840043,-0.11971008777618408
157.84057400,157840574,-0.12449848651885986
157.84110600,157841106,-0.11971008777618408
157.84163300,157841633,-0.11971008777618408
157.84216700,157842167,-0.11971008777618408
157.84270500,157842705,-0.11013327538967133
157.84324000,157843240,-0.10534487664699554
157.84376200,157843762,-0.10534487664699554
157.84448700,157844487,-0.10534487664699554
157.84450800,157844508,-0.11013327538967133
157.84500400,157845004,-0.1149216815829277
157.84557000,157845570,-0.11971008777618408
157.84610400,157846104,-0.1149216815829277
157.84663100,157846631,-0.1149216815829277
157.84716600,157847166,-0.11013327538967133
157.84770300,157847703,-0.11013327538967133
157.84823800,157848238,-0.10534487664699554
157.84876100,157848761,-0.10055647045373917
157.84946400,157849464,-0.10055647045373917
157.84948500,157849485,-0.10055647045373917
157.85009000,157850090,-0.10055647045373917
157.85061800,157850618,-0.10055647045373917
157.85114900,157851149,-0.10055647045373917
157.85167700,157851677,-0.10534487664699554
157.85220700,157852207,-0.10534487664699554
157.85274400,157852744,-0.10055647045373917
157.85327900,157853279,-0.10055647045373917
157.85399100,157853991,-0.10055647045373917
157.85401500,157854015,-0.10055647045373917
157.85449600,157854496,-0.10534487664699554
157.85503600,157855036,-0.11013327538967133
157.85556500,157855565,-0.11013327538967133
157.85609400,157856094,-0.1149216815829277
157.85662400,157856624,-0.11971008777618408
157.85715100,157857151,-0.12449848651885986
157.85768800,157857688,-0.11971008777618408
157.85822000,157858220,-0.1149216815829277
157.85874500,157858745,-0.11013327538967133
157.85928000,157859280,-0.11013327538967133
157.85997100,157859971,-0.1149216815829277
157.86053200,157860532,-0.11971008777618408
157.86055400,157860554,-0.11971008777618408
157.86103600,157861036,-0.11971008777618408
157.86156100,157861561,-0.1149216815829277
157.86209200,157862092,-0.11013327538967133
157.86264000,157862640,-0.10055647045373917
157.86317300,157863173,-0.10055647045373917
157.86369700,157863697,-0.11013327538967133
157.86423700,157864237,-0.1149216815829277
157.86475800,157864758,-0.11971008777618408
157.86545100,157865451,-0.11971008777618408
157.86597600,157865976,-0.11971008777618408
157.86650500,157866505,-0.12449848651885986
157.86704100,157867041,-0.12449848651885986
157.86761000,157867610,-0.11971008777618408
157.86763600,157867636,-0.1149216815829277
157.86811400,157868114,-0.10534487664699554
157.86864100,157868641,-0.10055647045373917
157.86917500,157869175,-0.09576806426048279
157.86970500,157869705,-0.090979665517807
157.87024100,157870241,-0.09576806426048279
157.87077100,157870771,-0.10055647045373917
157.87146000,157871460,-0.11013327538967133
157.87198800,157871988,-0.1149216815829277
157.87259300,157872593,-0.11971008777618408
157.87314600,157873146,-0.1149216815829277
157.87316700,157873167,-0.11971008777618408
157.87364700,157873647,-0.12449848651885986
157.87418500,157874185,-0.12449848651885986
157.87471400,157874714,-0.1149216815829277
157.87525100,157875251,-0.11013327538967133
157.87578200,157875782,-0.11013327538967133
157.87646200,157876462,-0.11013327538967133
157.87699100,157876991,-0.11013327538967133
157.87753000,157877530,-0.11013327538967133
157.87806100,157878061,-0.10055647045373917
157.87858700,157878587,-0.09576806426048279
157.87911800,157879118,-0.10055647045373917
157.87964500,157879645,-0.10055647045373917
157.88018800,157880188,-0.10055647045373917
157.88075000,157880750,-0.10534487664699554
157.88077300,157880773,-0.11013327538967133
157.88125000,157881250,-0.1149216815829277
157.88183700,157881837,-0.11013327538967133
157.88247600,157882476,-0.11013327538967133
157.88300400,157883004,-0.11013327538967133
157.88352900,157883529,-0.11013327538967133
157.88406000,157884060,-0.11013327538967133
157.88458600,157884586,-0.11013327538967133
157.88514100,157885141,-0.11013327538967133
157.88565800,157885658,-0.10534487664699554
157.88619300,157886193,-0.10534487664699554
157.88671900,157886719,-0.11013327538967133
157.88725600,157887256,-0.11971008777618408
157.88789000,157887890,-0.11971008777618408
157.88791000,157887910,-0.1149216815829277
157.88847600,157888476,-0.11013327538967133
157.88900700,157889007,-0.1149216815829277
157.88953300,157889533,-0.11971008777618408
157.89007900,157890079,-0.11971008777618408
157.89063700,157890637,-0.12449848651885986
157.89116100,157891161,-0.11971008777618408
157.89168800,157891688,-0.11013327538967133
157.89221800,157892218,-0.10055647045373917
157.89275600,157892756,-0.09576806426048279
157.89338500,157893385,-0.09576806426048279
157.89340500,157893405,-0.09576806426048279
157.89396300,157893963,-0.10055647045373917
157.89456000,157894560,-0.10055647045373917
157.89509800,157895098,-0.10055647045373917
157.89563000,157895630,-0.10534487664699554
157.89615800,157896158,-0.1149216815829277
157.89669300,157896693,-0.1149216815829277
157.89721900,157897219,-0.1149216815829277
157.89776300,157897763,-0.1149216815829277
157.89846800,157898468,-0.1149216815829277
157.89848900,157898489,-0.11013327538967133
157.89896800,157898968,-0.11013327538967133
157.89950000,157899500,-0.1149216815829277
157.90009200,157900092,-0.11013327538967133
157.90061700,157900617,-0.1149216815829277
157.90114700,157901147,-0.11013327538967133
157.90167200,157901672,-0.11013327538967133
157.90219900,157902199,-0.10055647045373917
157.90273900,157902739,-0.10055647045373917
157.90326800,157903268,-0.10055647045373917
157.90395400,157903954,-0.10055647045373917
157.90459500,157904595,-0.10055647045373917
157.90461500,157904615,-0.10534487664699554
157.90511000,157905110,-0.1149216815829277
157.90564000,157905640,-0.11971008777618408
157.90616400,157906164,-0.11971008777618408
157.90669200,157906692,-0.1149216815829277
157.90722000,157907220,-0.10534487664699554
157.90775800,157907758,-0.09576806426048279
157.90846600,157908466,-0.090979665517807
157.90909100,157909091,-0.09576806426048279
157.90911400,157909114,-0.1149216815829277
157.90959300,157909593,-0.11971008777618408
157.91015100,157910151,-0.11971008777618408
157.91068100,157910681,-0.1149216815829277
157.91121100,157911211,-0.1149216815829277
157.91173700,157911737,-0.1149216815829277
157.91226800,157912268,-0.11013327538967133
157.91294600,157912946,-0.11013327538967133
157.91347300,157913473,-0.10534487664699554
157.91401100,157914011,-0.10055647045373917
157.91456500,157914565,-0.10534487664699554
157.91513200,157915132,-0.1149216815829277
157.91515400,157915154,-0.11971008777618408
157.91563600,157915636,-0.12449848651885986
157.91616300,157916163,-0.11971008777618408
157.91669300,157916693,-0.11013327538967133
157.91722200,157917222,-0.11013327538967133
157.91775800,157917758,-0.10534487664699554
157.91843800,157918438,-0.10534487664699554
157.91907600,157919076,-0.10534487664699554
157.91960500,157919605,-0.10055647045373917
157.92018500,157920185,-0.09576806426048279
157.92020700,157920207,-0.10055647045373917
157.92069000,157920690,-0.10534487664699554
157.92121700,157921217,-0.11013327538967133
157.92175600,157921756,-0.1149216815829277
157.92246800,157922468,-0.1149216815829277
157.92300000,157923000,-0.11013327538967133
157.92352600,157923526,-0.11013327538967133
157.92405500,157924055,-0.1149216815829277
157.92458300,157924583,-0.11971008777618408
157.92511900,157925119,-0.11971008777618408
157.92565200,157925652,-0.12449848651885986
157.92617800,157926178,-0.13407529890537262
157.92671600,157926716,-0.1388636976480484
157.92726700,157927267,-0.12928688526153564
157.92735300,157927353,-0.11971008777618408
157.92777600,157927776,-0.10534487664699554
157.92843200,157928432,-0.10055647045373917
157.92906500,157929065,-0.10534487664699554
157.92958900,157929589,-0.11013327538967133
157.93014600,157930146,-0.11013327538967133
157.93067800,157930678,-0.10055647045373917
157.93120400,157931204,-0.09576806426048279
157.93173800,157931738,-0.08619125932455063
157.93226400,157932264,-0.08619125932455063
157.93296300,157932963,-0.08619125932455063
157.93298500,157932985,-0.08619125932455063
157.93356600,157933566,-0.08619125932455063
157.93409800,157934098,-0.10055647045373917
157.93462400,157934624,-0.11013327538967133
157.93517500,157935175,-0.1149216815829277
157.93570800,157935708,-0.11971008777618408
157.93624100,157936241,-0.11971008777618408
157.93676800,157936768,-0.1149216815829277
157.93748800,157937488,-0.11013327538967133
157.93750900,157937509,-0.10534487664699554
157.93799400,157937994,-0.10534487664699554
157.93851700,157938517,-0.10534487664699554
157.93907400,157939074,-0.10055647045373917
157.93960100,157939601,-0.10055647045373917
157.94016000,157940160,-0.10534487664699554
157.94070000,157940700,-0.11013327538967133
157.94122700,157941227,-0.11013327538967133
157.94176100,157941761,-0.1149216815829277
157.94246500,157942465,-0.1149216815829277
157.94248600,157942486,-0.11971008777618408
157.94297300,157942973,-0.11971008777618408
157.94350300,157943503,-0.11013327538967133
157.94407600,157944076,-0.10534487664699554
157.94460000,157944600,-0.10534487664699554
157.94515400,157945154,-0.10055647045373917
157.94569300,157945693,-0.10055647045373917
157.94621500,157946215,-0.10055647045373917
157.94674300,157946743,-0.10534487664699554
157.94727700,157947277,-0.10534487664699554
157.94791400,157947914,-0.10055647045373917
157.94861100,157948611,-0.10534487664699554
157.94863200,157948632,-0.11013327538967133
157.94911500,157949115,-0.1149216815829277
157.94964100,157949641,-0.1149216815829277
157.95018000,157950180,-0.11013327538967133
157.95071200,157950712,-0.1149216815829277
157.95123800,157951238,-0.1149216815829277
157.95176600,157951766,-0.1149216815829277
157.95244300,157952443,-0.1149216815829277
157.95297400,157952974,-0.1149216815829277
157.95360500,157953605,-0.11013327538967133
157.95362500,157953625,-0.11013327538967133
157.95411100,157954111,-0.1149216815829277
157.95463900,157954639,-0.1149216815829277
157.95517700,157955177,-0.1149216815829277
157.95570800,157955708,-0.1149216815829277
157.95624400,157956244,-0.11013327538967133
157.95676600,157956766,-0.10534487664699554
157.95744500,157957445,-0.10055647045373917
157.95801500,157958015,-0.10055647045373917
157.95851500,157958515,-0.10055647045373917
157.95904400,157959044,-0.10055647045373917
157.95957000,157959570,-0.10534487664699554
157.96013400,157960134,-0.11013327538967133
157.96015600,157960156,-0.1149216815829277
157.96063900,157960639,-0.11971008777618408
157.96117300,157961173,-0.1149216815829277
157.96169900,157961699,-0.1149216815829277
157.96223000,157962230,-0.11971008777618408
157.96276500,157962765,-0.12449848651885986
157.96341100,157963411,-0.12449848651885986
157.96396400,157963964,-0.11971008777618408
157.96449500,157964495,-0.11013327538967133
157.96512100,157965121,-0.10534487664699554
157.96564400,157965644,-0.11013327538967133
157.96619600,157966196,-0.11013327538967133
157.96621600,157966216,-0.10534487664699554
157.96670400,157966704,-0.10534487664699554
157.96723200,157967232,-0.10534487664699554
157.96776500,157967765,-0.1149216815829277
157.96845300,157968453,-0.12449848651885986
157.96899200,157968992,-0.12449848651885986
157.96952100,157969521,-0.11971008777618408
157.97012700,157970127,-0.1149216815829277
157.97065900,157970659,-0.11013327538967133
157.97118600,157971186,-0.10055647045373917
157.97171700,157971717,-0.10055647045373917
157.97226900,157972269,-0.10534487664699554
157.97228900,157972289,-0.11971008777618408
157.97278300,157972783,-0.12449848651885986
157.97343900,157973439,-0.12449848651885986
157.97396700,157973967,-0.1149216815829277
157.97450200,157974502,-0.10534487664699554
157.97510800,157975108,-0.10055647045373917
157.97563100,157975631,-0.10055647045373917
157.97615800,157976158,-0.09576806426048279
157.97668800,157976688,-0.09576806426048279
157.97721700,157977217,-0.09576806426048279
157.97775500,157977755,-0.10055647045373917
157.97843500,157978435,-0.11013327538967133
157.97845600,157978456,-0.1149216815829277
157.97896700,157978967,-0.1149216815829277
157.97949400,157979494,-0.11971008777618408
157.98003500,157980035,-0.11971008777618408
157.98056900,157980569,-0.11971008777618408
157.98110200,157981102,-0.12449848651885986
157.98162700,157981627,-0.12928688526153564
157.98215400,157982154,-0.12449848651885986
157.98268700,157982687,-0.11971008777618408
157.98321800,157983218,-0.11013327538967133
157.98374700,157983747,-0.10534487664699554
157.98427700,157984277,-0.10055647045373917
157.98496900,157984969,-0.10055647045373917
157.98499700,157984997,-0.10534487664699554
157.98547100,157985471,-0.10055647045373917
157.98600400,157986004,-0.09576806426048279
157.98653200,157986532,-0.09576806426048279
157.98705900,157987059,-0.09576806426048279
157.98760700,157987607,-0.10055647045373917
157.98812900,157988129,-0.10534487664699554
157.98865400,157988654,-0.1149216815829277
157.98918600,157989186,-0.11971008777618408
157.98971800,157989718,-0.1149216815829277
157.99026000,157990260,-0.11013327538967133
157.99093500,157990935,-0.10534487664699554
157.99148900,157991489,-0.10534487664699554
157.99150900,157991509,-0.11013327538967133
157.99199400,157991994,-0.1149216815829277
157.99252900,157992529,-0.1149216815829277
157.99305900,157993059,-0.1149216815829277
157.99358500,157993585,-0.10534487664699554
157.99411700,157994117,-0.10055647045373917
157.99465000,157994650,-0.09576806426048279
157.99518800,157995188,-0.09576806426048279
157.99572100,157995721,-0.09576806426048279
157.99625200,157996252,-0.10055647045373917
157.99690400,157996904,-0.11013327538967133
157.99747500,157997475,-0.11971008777618408
157.99800900,157998009,-0.11971008777618408
157.99856500,157998565,-0.1149216815829277
157.99859100,157998591,-0.1149216815829277
157.99906400,157999064,-0.11971008777618408
157.99959800,157999598,-0.11971008777618408
158.00014600,158000146,-0.11971008777618408
158.00067700,158000677,-0.1149216815829277
158.00120100,158001201,-0.11013327538967133
158.00173400,158001734,-0.11013327538967133
158.00226700,158002267,-0.1149216815829277
158.00299000,158002990,-0.1149216815829277
158.00356400,158003564,-0.1149216815829277
158.00412800,158004128,-0.11971008777618408
158.00414900,158004149,-0.11971008777618408
158.00462900,158004629,-0.11971008777618408
158.00517400,158005174,-0.11013327538967133
158.00570400,158005704,-0.10055647045373917
158.00623100,158006231,-0.10055647045373917
158.00676200,158006762,-0.10534487664699554
158.00746600,158007466,-0.11013327538967133
158.00799600,158007996,-0.1149216815829277
158.00852200,158008522,-0.11971008777618408
158.00906000,158009060,-0.11971008777618408
158.00959000,158009590,-0.11971008777618408
158.01014700,158010147,-0.11971008777618408
158.01070800,158010708,-0.1149216815829277
158.01072900,158010729,-0.11013327538967133
158.01121000,158011210,-0.11013327538967133
158.01173600,158011736,-0.1149216815829277
158.01227000,158012270,-0.11971008777618408
158.01295800,158012958,-0.12449848651885986
158.01357000,158013570,-0.11971008777618408
158.01410100,158014101,-0.1149216815829277
158.01463000,158014630,-0.1149216815829277
158.01516800,158015168,-0.11013327538967133
158.01570200,158015702,-0.10055647045373917
158.01625400,158016254,-0.10055647045373917
158.01627400,158016274,-0.11013327538967133
158.01675800,158016758,-0.11013327538967133
158.01748200,158017482,-0.11013327538967133
158.01801300,158018013,-0.10534487664699554
158.01853900,158018539,-0.11013327538967133
158.01907800,158019078,-0.1149216815829277
158.01960600,158019606,-0.11971008777618408
158.02015900,158020159,-0.12449848651885986
158.02069000,158020690,-0.11971008777618408
158.02121600,158021216,-0.11971008777618408
158.02174900,158021749,-0.11971008777618408
158.02227600,158022276,-0.11971008777618408
158.02301100,158023011,-0.12449848651885986
158.02303400,158023034,-0.12928688526153564
158.02351300,158023513,-0.12928688526153564
158.02405500,158024055,-0.12449848651885986
158.02458500,158024585,-0.11971008777618408
158.02513700,158025137,-0.11971008777618408
158.02567000,158025670,-0.1149216815829277
158.02619400,158026194,-0.1149216815829277
158.02673000,158026730,-0.1149216815829277
158.02725900,158027259,-0.1149216815829277
158.02797500,158027975,-0.11971008777618408
158.02799600,158027996,-0.11971008777618408
158.02847300,158028473,-0.11013327538967133
158.02900400,158029004,-0.11013327538967133
158.02955700,158029557,-0.11013327538967133
158.03009700,158030097,-0.11013327538967133
158.03062700,158030627,-0.11013327538967133
158.03115300,158031153,-0.10534487664699554
158.03168900,158031689,-0.10055647045373917
158.03221700,158032217,-0.09576806426048279
158.03276500,158032765,-0.10534487664699554
158.03348800,158033488,-0.1149216815829277
158.03350800,158033508,-0.11013327538967133
158.03399500,158033995,-0.11013327538967133
158.03456300,158034563,-0.11013327538967133
158.03510600,158035106,-0.1149216815829277
158.03564200,158035642,-0.11971008777618408
158.03617000,158036170,-0.1149216815829277
158.03670100,158036701,-0.11013327538967133
158.03723400,158037234,-0.10534487664699554
158.03777500,158037775,-0.10534487664699554
158.03845900,158038459,-0.11013327538967133
158.03902000,158039020,-0.1149216815829277
158.03904100,158039041,-0.11013327538967133
158.03951700,158039517,-0.10055647045373917
158.04005900,158040059,-0.10055647045373917
158.04061400,158040614,-0.11013327538967133
158.04114300,158041143,-0.11013327538967133
158.04167200,158041672,-0.11013327538967133
158.04220200,158042202,-0.1149216815829277
158.04273500,158042735,-0.11013327538967133
158.04326600,158043266,-0.10055647045373917
158.04392900,158043929,-0.10055647045373917
158.04445700,158044457,-0.09576806426048279
158.04499600,158044996,-0.10055647045373917
158.04552400,158045524,-0.11013327538967133
158.04605700,158046057,-0.11013327538967133
158.04661100,158046611,-0.11013327538967133
158.04663100,158046631,-0.11013327538967133
158.04711300,158047113,-0.11971008777618408
158.04767100,158047671,-0.12449848651885986
158.04820600,158048206,-0.12928688526153564
158.04873800,158048738,-0.12928688526153564
158.04927600,158049276,-0.12928688526153564
158.04996500,158049965,-0.11971008777618408
158.05049800,158050498,-0.1149216815829277
158.05102300,158051023,-0.11013327538967133
158.05155500,158051555,-0.11013327538967133
158.05208700,158052087,-0.1149216815829277
158.05266500,158052665,-0.11971008777618408
158.05269200,158052692,-0.11971008777618408
158.05316700,158053167,-0.11971008777618408
158.05369300,158053693,-0.11971008777618408
158.05422300,158054223,-0.11971008777618408
158.05475400,158054754,-0.12449848651885986
158.05536900,158055369,-0.11971008777618408
158.05596900,158055969,-0.11013327538967133
158.05649600,158056496,-0.10055647045373917
158.05702500,158057025,-0.090979665517807
158.05759100,158057591,-0.09576806426048279
158.05811800,158058118,-0.10055647045373917
158.05864600,158058646,-0.10534487664699554
158.05917600,158059176,-0.10534487664699554
158.05970400,158059704,-0.1149216815829277
158.06026600,158060266,-0.12449848651885986
158.06028800,158060288,-0.12928688526153564
158.06077100,158060771,-0.12928688526153564
158.06143000,158061430,-0.12928688526153564
158.06206500,158062065,-0.12928688526153564
158.06260500,158062605,-0.12928688526153564
158.06313900,158063139,-0.12928688526153564
158.06366800,158063668,-0.12449848651885986
158.06420200,158064202,-0.12928688526153564
158.06472700,158064727,-0.12449848651885986
158.06526500,158065265,-0.11971008777618408
158.06600700,158066007,-0.11971008777618408
158.06602700,158066027,-0.1149216815829277
158.06650800,158066508,-0.10534487664699554
158.06705900,158067059,-0.09576806426048279
158.06759600,158067596,-0.09576806426048279
158.06812900,158068129,-0.10055647045373917
158.06865500,158068655,-0.10055647045373917
158.06918400,158069184,-0.10055647045373917
158.06971300,158069713,-0.10055647045373917
158.07025000,158070250,-0.10055647045373917
158.07082000,158070820,-0.10534487664699554
158.07149600,158071496,-0.11013327538967133
158.07151600,158071516,-0.1149216815829277
158.07200000,158072000,-0.11971008777618408
158.07253600,158072536,-0.11971008777618408
158.07306700,158073067,-0.11971008777618408
158.07359400,158073594,-0.11971008777618408
158.07412100,158074121,-0.1149216815829277
158.07465200,158074652,-0.11013327538967133
158.07519700,158075197,-0.10534487664699554
158.07572500,158075725,-0.10534487664699554
158.07625400,158076254,-0.10534487664699554
158.07695700,158076957,-0.10055647045373917
158.07698000,158076980,-0.09576806426048279
158.07746700,158077467,-0.09576806426048279
158.07800000,158078000,-0.10055647045373917
158.07852400,158078524,-0.11013327538967133
158.07906500,158079065,-0.1149216815829277
158.07959100,158079591,-0.11971008777618408
158.08014400,158080144,-0.11971008777618408
158.08067600,158080676,-0.11971008777618408
158.08120500,158081205,-0.1149216815829277
158.08173800,158081738,-0.11013327538967133
158.08226800,158082268,-0.11013327538967133
158.08300800,158083008,-0.11971008777618408
158.08302900,158083029,-0.11971008777618408
158.08350800,158083508,-0.1149216815829277
158.08404300,158084043,-0.10534487664699554
158.08457100,158084571,-0.10055647045373917
158.08510900,158085109,-0.10055647045373917
158.08564300,158085643,-0.10055647045373917
158.08617800,158086178,-0.10055647045373917
158.08670600,158086706,-0.11013327538967133
158.08723800,158087238,-0.1149216815829277
158.08777200,158087772,-0.11971008777618408
158.08847100,158088471,-0.11971008777618408
158.08899700,158088997,-0.11971008777618408
158.08952700,158089527,-0.1149216815829277
158.09009300,158090093,-0.1149216815829277
158.09011700,158090117,-0.11013327538967133
158.09059800,158090598,-0.11013327538967133
158.09112500,158091125,-0.11013327538967133
158.09165600,158091656,-0.11013327538967133
158.09218600,158092186,-0.11013327538967133
158.09272400,158092724,-0.11013327538967133
158.09325400,158093254,-0.1149216815829277
158.09393200,158093932,-0.1149216815829277
158.09446000,158094460,-0.1149216815829277
158.09499900,158094999,-0.1149216815829277
158.09557400,158095574,-0.1149216815829277
158.09610200,158096102,-0.1149216815829277
158.09665800,158096658,-0.11971008777618408
158.09668300,158096683,-0.1149216815829277
158.09716600,158097166,-0.1149216815829277
158.09770400,158097704,-0.1149216815829277
158.09823600,158098236,-0.1149216815829277
158.09876100,158098761,-0.11971008777618408
158.09946600,158099466,-0.1149216815829277
158.10010000,158100100,-0.10534487664699554
158.10062000,158100620,-0.10055647045373917
158.10114600,158101146,-0.10534487664699554
158.10167600,158101676,-0.10534487664699554
158.10223700,158102237,-0.11013327538967133
158.10225700,158102257,-0.1149216815829277
158.10273800,158102738,-0.11971008777618408
158.10327200,158103272,-0.12449848651885986
158.10395800,158103958,-0.11971008777618408
158.10448800,158104488,-0.1149216815829277
158.10502900,158105029,-0.10534487664699554
158.10555700,158105557,-0.10055647045373917
158.10608500,158106085,-0.09576806426048279
158.10661400,158106614,-0.10534487664699554
158.10714200,158107142,-0.11971008777618408
158.10768800,158107688,-0.12928688526153564
158.10821600,158108216,-0.13407529890537262
158.10874400,158108744,-0.12928688526153564
158.10930000,158109300,-0.12449848651885986
158.10932000,158109320,-0.11971008777618408
158.10998500,158109985,-0.11971008777618408
158.11051300,158110513,-0.11971008777618408
158.11104300,158111043,-0.12449848651885986
158.11156800,158111568,-0.11971008777618408
158.11210500,158112105,-0.11971008777618408
158.11265500,158112655,-0.11971008777618408
158.11318400,158113184,-0.11971008777618408
158.11371100,158113711,-0.11971008777618408
158.11424100,158114241,-0.12449848651885986
158.11477200,158114772,-0.11971008777618408
158.11550900,158115509,-0.11971008777618408
158.11553100,158115531,-0.1149216815829277
158.11601100,158116011,-0.11013327538967133
158.11653800,158116538,-0.10055647045373917
158.11706700,158117067,-0.09576806426048279
158.11760400,158117604,-0.09576806426048279
158.11813500,158118135,-0.10055647045373917
158.11866100,158118661,-0.10055647045373917
158.11919000,158119190,-0.10055647045373917
158.11971800,158119718,-0.10534487664699554
158.12025400,158120254,-0.11013327538967133
158.12086200,158120862,-0.11013327538967133
158.12148600,158121486,-0.11013327538967133
158.12150600,158121506,-0.11013327538967133
158.12198900,158121989,-0.1149216815829277
158.12253200,158122532,-0.1149216815829277
158.12306400,158123064,-0.11013327538967133
158.12359300,158123593,-0.10534487664699554
158.12411700,158124117,-0.10534487664699554
158.12464600,158124646,-0.1149216815829277
158.12518700,158125187,-0.11971008777618408
158.12571700,158125717,-0.11013327538967133
158.12624200,158126242,-0.10534487664699554
158.12677200,158126772,-0.10534487664699554
158.12750700,158127507,-0.11013327538967133
158.12752900,158127529,-0.11013327538967133
158.12801300,158128013,-0.11013327538967133
158.12854100,158128541,-0.10534487664699554
158.12908000,158129080,-0.10055647045373917
158.12961000,158129610,-0.10534487664699554
158.13015800,158130158,-0.1149216815829277
158.13069000,158130690,-0.1149216815829277
158.13121400,158131214,-0.11013327538967133
158.13175000,158131750,-0.10534487664699554
158.13227600,158132276,-0.10534487664699554
158.13298300,158132983,-0.11013327538967133
158.13360400,158133604,-0.1149216815829277
158.13362500,158133625,-0.11013327538967133
158.13410600,158134106,-0.10534487664699554
158.13463400,158134634,-0.10534487664699554
158.13517200,158135172,-0.11013327538967133
158.13570300,158135703,-0.11971008777618408
158.13623300,158136233,-0.1149216815829277
158.13676000,158136760,-0.11013327538967133
158.13746900,158137469,-0.10534487664699554
158.13807200,158138072,-0.10534487664699554
158.13862600,158138626,-0.11013327538967133
158.13864700,158138647,-0.1149216815829277
158.13913200,158139132,-0.12449848651885986
158.13966200,158139662,-0.12928688526153564
158.14020000,158140200,-0.12928688526153564
158.14073300,158140733,-0.12449848651885986
158.14126000,158141260,-0.12449848651885986
158.14193500,158141935,-0.11971008777618408
158.14247000,158142470,-0.1149216815829277
158.14300500,158143005,-0.11971008777618408
158.14352800,158143528,-0.11971008777618408
158.14408100,158144081,-0.1149216815829277
158.14460800,158144608,-0.11013327538967133
158.14517100,158145171,-0.10534487664699554
158.14573200,158145732,-0.10055647045373917
158.14575400,158145754,-0.10055647045373917
158.14623800,158146238,-0.10534487664699554
158.14676400,158146764,-0.10534487664699554
158.14747900,158147479,-0.10055647045373917
158.14801400,158148014,-0.10534487664699554
158.14857200,158148572,-0.10534487664699554
158.14910600,158149106,-0.11013327538967133
158.14963800,158149638,-0.11013327538967133
158.15017700,158150177,-0.1149216815829277
158.15070800,158150708,-0.1149216815829277
158.15123600,158151236,-0.1149216815829277
158.15179100,158151791,-0.1149216815829277
158.15181400,158151814,-0.11013327538967133
158.15247600,158152476,-0.10534487664699554
158.15301000,158153010,-0.11013327538967133
158.15353600,158153536,-0.11013327538967133
158.15406400,158154064,-0.11013327538967133
158.15459400,158154594,-0.11013327538967133
158.15514800,158155148,-0.11013327538967133
158.15568200,158155682,-0.11013327538967133
158.15620400,158156204,-0.11013327538967133
158.15673700,158156737,-0.11013327538967133
158.15726800,158157268,-0.11013327538967133
158.15794000,158157940,-0.10534487664699554
158.15796100,158157961,-0.10534487664699554
158.15857600,158158576,-0.10534487664699554
158.15911000,158159110,-0.11013327538967133
158.15963700,158159637,-0.1149216815829277
158.16017800,158160178,-0.11971008777618408
158.16071100,158160711,-0.11971008777618408
158.16124500,158161245,-0.1149216815829277
158.16177100,158161771,-0.1149216815829277
158.16245800,158162458,-0.1149216815829277
158.16248000,158162480,-0.11971008777618408
158.16298800,158162988,-0.11971008777618408
158.16351300,158163513,-0.11013327538967133
158.16405100,158164051,-0.11013327538967133
158.16457500,158164575,-0.1149216815829277
158.16513600,158165136,-0.12449848651885986
158.16566200,158165662,-0.12449848651885986
158.16618800,158166188,-0.12449848651885986
158.16672100,158166721,-0.12449848651885986
158.16724800,158167248,-0.12449848651885986
158.16782100,158167821,-0.12449848651885986
158.16846300,158168463,-0.12449848651885986
158.16848400,158168484,-0.12449848651885986
158.16908800,158169088,-0.11971008777618408
158.16960500,158169605,-0.1149216815829277
158.17016000,158170160,-0.1149216815829277
158.17069100,158170691,-0.1149216815829277
158.17122000,158171220,-0.11013327538967133
158.17175100,158171751,-0.11013327538967133
158.17237100,158172371,-0.11013327538967133
158.17297300,158172973,-0.11013327538967133
158.17352900,158173529,-0.1149216815829277
158.17355200,158173552,-0.11971008777618408
158.17403000,158174030,-0.12928688526153564
158.17457700,158174577,-0.12928688526153564
158.17512900,158175129,-0.11971008777618408
158.17566000,158175660,-0.11971008777618408
158.17618600,158176186,-0.11971008777618408
158.17671500,158176715,-0.1149216815829277
158.17724500,158177245,-0.1149216815829277
158.17778200,158177782,-0.1149216815829277
158.17844200,158178442,-0.11013327538967133
158.17910000,158179100,-0.11013327538967133
158.17912500,158179125,-0.1149216815829277
158.17960300,158179603,-0.1149216815829277
158.18015500,158180155,-0.1149216815829277
158.18068700,158180687,-0.11013327538967133
158.18121300,158181213,-0.10534487664699554
158.18174900,158181749,-0.10534487664699554
158.18236600,158182366,-0.11013327538967133
158.18294000,158182940,-0.11013327538967133
158.18357900,158183579,-0.11013327538967133
158.18413800,158184138,-0.1149216815829277
158.18415900,158184159,-0.11971008777618408
158.18464100,158184641,-0.11971008777618408
158.18518100,158185181,-0.11013327538967133
158.18571400,158185714,-0.10534487664699554
158.18624100,158186241,-0.10534487664699554
158.18676900,158186769,-0.10534487664699554
158.18745100,158187451,-0.10534487664699554
158.18797800,158187978,-0.11013327538967133
158.18858100,158188581,-0.1149216815829277
158.18911000,158189110,-0.1149216815829277
158.18963900,158189639,-0.11013327538967133
158.19017900,158190179,-0.11013327538967133
158.19073800,158190738,-0.11013327538967133
158.19075900,158190759,-0.1149216815829277
158.19123800,158191238,-0.12449848651885986
158.19177000,158191770,-0.12449848651885986
158.19247300,158192473,-0.12449848651885986
158.19300500,158193005,-0.11971008777618408
158.19353100,158193531,-0.1149216815829277
158.19406700,158194067,-0.10534487664699554
158.19459300,158194593,-0.10055647045373917
158.19515300,158195153,-0.10055647045373917
158.19568400,158195684,-0.10055647045373917
158.19621000,158196210,-0.10055647045373917
158.19674100,158196741,-0.09576806426048279
158.19736100,158197361,-0.09576806426048279
158.19738200,158197382,-0.10055647045373917
158.19797300,158197973,-0.11013327538967133
158.19850100,158198501,-0.1149216815829277
158.19902700,158199027,-0.11013327538967133
158.19957500,158199575,-0.11013327538967133
158.20012500,158200125,-0.10534487664699554
158.20065700,158200657,-0.10055647045373917
158.20118400,158201184,-0.10534487664699554
158.20172300,158201723,-0.11013327538967133
158.20225000,158202250,-0.1149216815829277
158.20286300,158202863,-0.11013327538967133
158.20288600,158202886,-0.10055647045373917
158.20347600,158203476,-0.090979665517807
158.20400500,158204005,-0.08619125932455063
158.20453100,158204531,-0.08619125932455063
158.20509200,158205092,-0.090979665517807
158.20561600,158205616,-0.09576806426048279
158.20614200,158206142,-0.10534487664699554
158.20666900,158206669,-0.10534487664699554
158.20720400,158207204,-0.10055647045373917
158.20774400,158207744,-0.10534487664699554
158.20827100,158208271,-0.11013327538967133
158.20893000,158208930,-0.10534487664699554
158.20895000,158208950,-0.10534487664699554
158.20945800,158209458,-0.10534487664699554
158.20999900,158209999,-0.11013327538967133
158.21059600,158210596,-0.1149216815829277
158.21112700,158211127,-0.11971008777618408
158.21165300,158211653,-0.11971008777618408
158.21218300,158212183,-0.11013327538967133
158.21271900,158212719,-0.10055647045373917
158.21325300,158213253,-0.09576806426048279
158.21382600,158213826,-0.090979665517807
158.21448900,158214489,-0.09576806426048279
158.21451000,158214510,-0.10055647045373917
158.21500000,158215000,-0.10534487664699554
158.21552700,158215527,-0.10055647045373917
158.21605400,158216054,-0.10055647045373917
158.21658100,158216581,-0.10055647045373917
158.21711200,158217112,-0.11013327538967133
158.21766200,158217662,-0.1149216815829277
158.21818800,158218188,-0.11971008777618408
158.21871700,158218717,-0.1149216815829277
158.21924600,158219246,-0.11013327538967133
158.21977300,158219773,-0.11013327538967133
158.22045800,158220458,-0.10534487664699554
158.22109600,158221096,-0.11013327538967133
158.22111700,158221117,-0.1149216815829277
158.22159900,158221599,-0.11013327538967133
158.22212700,158222127,-0.10534487664699554
158.22267700,158222677,-0.11013327538967133
158.22320600,158223206,-0.12449848651885986
158.22373300,158223733,-0.12449848651885986
158.22426500,158224265,-0.12449848651885986
158.22493500,158224935,-0.11971008777618408
158.22547700,158225477,-0.1149216815829277
158.22606500,158226065,-0.1149216815829277
158.22661900,158226619,-0.1149216815829277
158.22664300,158226643,-0.11013327538967133
158.22711900,158227119,-0.10534487664699554
158.22767100,158227671,-0.11013327538967133
158.22820100,158228201,-0.1149216815829277
158.22873100,158228731,-0.11971008777618408
158.22926200,158229262,-0.11971008777618408
158.22997400,158229974,-0.1149216815829277
158.23050100,158230501,-0.1149216815829277
158.23102700,158231027,-0.1149216815829277
158.23155600,158231556,-0.11013327538967133
158.23208400,158232084,-0.11013327538967133
158.23263400,158232634,-0.11013327538967133
158.23318900,158233189,-0.11013327538967133
158.23321000,158233210,-0.1149216815829277
158.23368900,158233689,-0.11971008777618408
158.23422200,158234222,-0.11971008777618408
158.23474900,158234749,-0.1149216815829277
158.23528800,158235288,-0.11013327538967133
158.23594200,158235942,-0.10534487664699554
158.23655900,158236559,-0.11013327538967133
158.23709000,158237090,-0.11013327538967133
158.23763200,158237632,-0.11013327538967133
158.23816200,158238162,-0.11013327538967133
158.23869100,158238691,-0.1149216815829277
158.23926200,158239262,-0.11013327538967133
158.23928300,158239283,-0.10534487664699554
158.23976000,158239760,-0.10534487664699554
158.24044700,158240447,-0.10055647045373917
158.24098300,158240983,-0.10055647045373917
158.24151100,158241511,-0.10055647045373917
158.24207000,158242070,-0.10055647045373917
158.24260600,158242606,-0.10055647045373917
158.24313800,158243138,-0.10534487664699554
158.24366500,158243665,-0.10534487664699554
158.24419600,158244196,-0.10534487664699554
158.24472300,158244723,-0.10055647045373917
158.24526000,158245260,-0.10055647045373917
158.24600200,158246002,-0.10055647045373917
158.24602200,158246022,-0.09576806426048279
158.24650200,158246502,-0.09576806426048279
158.24703000,158247030,-0.10055647045373917
158.24759400,158247594,-0.10055647045373917
158.24812700,158248127,-0.10534487664699554
158.24864900,158248649,-0.1149216815829277
158.24918200,158249182,-0.1149216815829277
158.24970700,158249707,-0.1149216815829277
158.25024600,158250246,-0.10534487664699554
158.25078000,158250780,-0.10055647045373917
158.25148300,158251483,-0.10534487664699554
158.25150500,158251505,-0.11013327538967133
158.25198800,158251988,-0.1149216815829277
158.25252500,158252525,-0.11971008777618408
158.25305400,158253054,-0.11971008777618408
158.25358200,158253582,-0.1149216815829277
158.25411300,158254113,-0.10534487664699554
158.25464200,158254642,-0.10534487664699554
158.25518000,158255180,-0.11013327538967133
158.25570900,158255709,-0.11013327538967133
158.25623600,158256236,-0.10534487664699554
158.25676600,158256766,-0.10534487664699554
158.25746900,158257469,-0.1149216815829277
158.25749400,158257494,-0.11971008777618408
158.25798400,158257984,-0.11971008777618408
158.25850800,158258508,-0.1149216815829277
158.25904300,158259043,-0.1149216815829277
158.25957100,158259571,-0.11013327538967133
158.26013000,158260130,-0.10534487664699554
158.26066600,158260666,-0.10055647045373917
158.26119700,158261197,-0.10534487664699554
158.26172200,158261722,-0.11013327538967133
158.26225200,158262252,-0.10055647045373917
158.26286500,158262865,-0.10055647045373917
158.26347100,158263471,-0.10534487664699554
158.26409300,158264093,-0.10534487664699554
158.26411400,158264114,-0.10534487664699554
158.26459400,158264594,-0.11013327538967133
158.26515200,158265152,-0.1149216815829277
158.26568100,158265681,-0.1149216815829277
158.26620700,158266207,-0.11971008777618408
158.26673700,158266737,-0.1149216815829277
158.26726900,158267269,-0.1149216815829277
158.26798000,158267980,-0.11971008777618408
158.26850400,158268504,-0.1149216815829277
158.26905900,158269059,-0.1149216815829277
158.26961300,158269613,-0.11013327538967133
158.26963400,158269634,-0.11013327538967133
158.27013800,158270138,-0.11013327538967133
158.27067300,158270673,-0.11013327538967133
