timestamp,TimeUS,I,GyrX,GyrY,GyrZ,AccX,AccY,AccZ,EG,EA,T,GH,AH,GHz,AHz
153.03150500,153031505,1,0.0007478544721379876,0.0017621659208089113,0.0014429379953071475,-0.48660629987716675,-0.1435985118150711,-9.969034194946289,0,0,44.0,1,1,1995,2060
153.03309200,153033092,1,0.000981917604804039,0.0014241690514609218,0.001594038330949843,-0.48663830757141113,-0.14655068516731262,-9.972162246704102,0,0,44.0,1,1,1995,2060
153.03549100,153035491,1,0.0010421961778774858,0.001036593341268599,0.0012128506787121296,-0.48657095432281494,-0.14795410633087158,-9.97648811340332,0,0,44.0,1,1,1995,2060
153.03788100,153037881,1,0.0010589387966319919,0.0010512910084798932,0.0007295712712220848,-0.48457154631614685,-0.14884649217128754,-9.977127075195312,0,0,44.0,1,1,1995,2060
153.04046000,153040460,1,0.0011873202165588737,0.0010156739735975862,0.0002644825435709208,-0.48190590739250183,-0.14736390113830566,-9.96890640258789,0,0,44.0,1,1,1995,2060
153.04298800,153042988,1,0.0018125685164704919,0.0006243175594136119,-0.0006234617321752012,-0.4843205213546753,-0.1462443619966507,-9.963543891906738,0,0,44.0,1,1,1995,2060
153.04531200,153045312,1,0.002141186036169529,0.0007456097519025207,-0.000871160882525146,-0.48919594287872314,-0.1465035229921341,-9.961751937866211,0,0,44.0,1,1,1995,2060
153.04802000,153048020,1,0.0025084044318646193,0.0008615929982624948,-0.0006189587875269353,-0.49128323793411255,-0.1470862329006195,-9.95983600616455,0,0,44.0,1,1,1995,2060
153.05036500,153050365,1,0.002629837952554226,0.0011285842629149556,-0.000384039303753525,-0.49229127168655396,-0.14776046574115753,-9.961148262023926,0,0,44.0,1,1,1995,2060
153.05283000,153052830,1,0.002216140739619732,0.0012917493004351854,-8.161640289472416e-05,-0.49003976583480835,-0.14606349170207977,-9.962565422058105,0,0,44.0,1,1,1995,2060
153.05552100,153055521,1,0.002067210851237178,0.0010841584298759699,0.00014197434938978404,-0.4864107072353363,-0.1466226726770401,-9.96252727508545,0,0,44.0,1,1,1995,2060
153.05782400,153057824,1,0.0016767238266766071,0.000431138469139114,-7.014055881882086e-05,-0.48275139927864075,-0.15068556368350983,-9.955598831176758,0,0,44.0,1,1,1995,2060
153.06059900,153060599,1,0.0017885275883600116,0.0001785068161552772,-0.00020434858743101358,-0.479962021112442,-0.15440386533737183,-9.950645446777344,0,0,44.0,1,1,1995,2060
153.06281800,153062818,1,0.0017921451944857836,-1.0919499800365884e-05,-0.00015658959455322474,-0.4771641194820404,-0.1579267680644989,-9.945770263671875,0,0,44.0,1,1,1995,2060
153.06531100,153065311,1,0.001779109355993569,-9.013750968733802e-06,-0.00031330814817920327,-0.47897446155548096,-0.1578020304441452,-9.943194389343262,0,0,44.0,1,1,1995,2060
153.06798800,153067988,1,0.0018467138288542628,5.958459587418474e-05,-0.0003911836538463831,-0.4834367632865906,-0.15642136335372925,-9.942188262939453,0,0,44.0,1,1,1995,2060
153.07031900,153070319,1,0.002149593783542514,-0.00017989941989071667,-0.00024345524434465915,-0.4908551275730133,-0.15803614258766174,-9.946073532104492,0,0,44.0,1,1,1995,2060
153.07298900,153072989,1,0.0022004670463502407,0.00015286468260455877,0.00046001060400158167,-0.4963154196739197,-0.15864066779613495,-9.952455520629883,0,0,44.0,1,1,1995,2060
153.07536900,153075369,1,0.0016323222080245614,-7.092700252542272e-05,0.0004906874382868409,-0.5024757385253906,-0.16251613199710846,-9.959894180297852,0,0,44.0,1,1,1995,2060
153.07782200,153077822,1,0.0010275202803313732,0.0002952311187982559,9.377860260428861e-05,-0.5038435459136963,-0.1648341715335846,-9.96378231048584,0,0,44.0,1,1,1995,2060
153.08090400,153080904,1,0.0004961547092534602,0.0004373815027065575,2.1126608771737665e-05,-0.5026480555534363,-0.16533073782920837,-9.967613220214844,0,0,44.0,1,1,1995,2060
153.08281000,153082810,1,-5.150450670043938e-05,0.0007089534192346036,-0.0006698616198264062,-0.5001317858695984,-0.16715194284915924,-9.971229553222656,0,0,44.0,1,1,1995,2060
153.08592000,153085920,1,0.00015816812810953707,0.0006461190641857684,-0.0004864685470238328,-0.49942559003829956,-0.16751626133918762,-9.973357200622559,0,0,44.0,1,1,1995,2060
153.08777300,153087773,1,-0.00012799313117284328,0.0007035863236524165,-0.0004921634681522846,-0.5005601048469543,-0.16666506230831146,-9.972678184509277,0,0,44.0,1,1,1995,2060
153.09035100,153090351,1,-0.0003594275622162968,0.0007701655267737806,-0.00027282850351184607,-0.5018735527992249,-0.16367703676223755,-9.971797943115234,0,0,44.0,1,1,1995,2060
153.09301900,153093019,1,-0.0003267232677899301,0.0010705298045650125,-0.0005555824027396739,-0.5044565796852112,-0.16147565841674805,-9.96855354309082,0,0,44.0,1,1,1995,2060
153.09531800,153095318,1,-0.00014969229232519865,0.0011225366033613682,-0.0007715484825894237,-0.5028356313705444,-0.16116103529930115,-9.964444160461426,0,0,44.0,1,1,1995,2060
153.09891400,153098914,1,0.000638409226667136,0.0010463393991813064,-0.0006578920874744654,-0.49908971786499023,-0.16046328842639923,-9.961162567138672,0,0,44.0,1,1,1995,2060
153.10045000,153100450,1,0.0015045145992189646,-1.899995368148666e-05,-0.0003061571915168315,-0.4992583990097046,-0.15691742300987244,-9.958229064941406,0,0,44.0,1,1,1995,2060
153.10287000,153102870,1,0.0016995531041175127,-0.00012653700832743198,-0.00046378542901948094,-0.4985630214214325,-0.15389510989189148,-9.95347785949707,0,0,44.0,1,1,1995,2060
153.10550100,153105501,1,0.0022662212140858173,-0.0008582022855989635,-3.942300099879503e-05,-0.4969771206378937,-0.15660205483436584,-9.949923515319824,0,0,44.0,1,1,1995,2060
153.10781800,153107818,1,0.002717368071898818,-0.0010135715128853917,-3.308141094748862e-05,-0.4940093159675598,-0.15847915410995483,-9.94935131072998,0,0,44.0,1,1,1995,2060
153.11047700,153110477,1,0.0023326771333813667,-0.0013292016228660941,-0.00020486462744884193,-0.4894024431705475,-0.16159647703170776,-9.950828552246094,0,0,44.0,1,1,1995,2060
153.11285300,153112853,1,0.002134514506906271,-0.0012129269307479262,0.0005349765415303409,-0.485371470451355,-0.16217657923698425,-9.951823234558105,0,0,44.0,1,1,1995,2060
153.11531500,153115315,1,0.0019831263925880194,-0.0008242461481131613,0.0013749856734648347,-0.4825212359428406,-0.1625094711780548,-9.9533052444458,0,0,44.0,1,1,1995,2060
153.11799100,153117991,1,0.002296439139172435,-0.001112773665226996,0.0016598497750237584,-0.4803772270679474,-0.15973103046417236,-9.957029342651367,0,0,44.0,1,1,1995,2060
153.12033800,153120338,1,0.002486021723598242,-0.001383539754897356,0.001553686335682869,-0.4776325225830078,-0.15471790730953217,-9.962850570678711,0,0,44.0,1,1,1995,2060
153.12296400,153122964,1,0.003009314415976405,-0.0018122987821698189,0.0017066203290596604,-0.4768194556236267,-0.15206162631511688,-9.969051361083984,0,0,44.0,1,1,1995,2060
153.12530500,153125305,1,0.0035869276616722345,-0.0011676998110488057,0.0016018364112824202,-0.4791370630264282,-0.14838907122612,-9.976095199584961,0,0,44.0,1,1,1995,2060
153.12784600,153127846,1,0.0038468949496746063,-0.0007142962422221899,0.0016449829563498497,-0.4859393239021301,-0.14767976105213165,-9.980984687805176,0,0,44.0,1,1,1995,2060
153.13047800,153130478,1,0.004043137189000845,-0.00011487067240523174,0.001306482357904315,-0.49258431792259216,-0.14855721592903137,-9.980287551879883,0,0,44.0,1,1,1995,2060
153.13280200,153132802,1,0.004433395806699991,-0.00040491489926353097,0.0016449526883661747,-0.49366459250450134,-0.1476661115884781,-9.976343154907227,0,0,44.0,1,1,1995,2060
153.13547800,153135478,1,0.004482727963477373,-0.0006995269213803113,0.0013176328502595425,-0.49501460790634155,-0.14807263016700745,-9.968616485595703,0,0,44.0,1,1,1995,2060
153.13782600,153137826,1,0.004329141695052385,-0.0006665167747996747,0.0013037065509706736,-0.4963531792163849,-0.150836780667305,-9.962435722351074,0,0,44.0,1,1,1995,2060
153.14040000,153140400,1,0.004191441927105188,-0.0012039975263178349,0.0014709129463881254,-0.49615350365638733,-0.15650203824043274,-9.95615005493164,0,0,44.0,1,1,1995,2060
153.14305300,153143053,1,0.0035511606838554144,-0.0011928906897082925,0.0012921123998239636,-0.4942656457424164,-0.16155610978603363,-9.948402404785156,0,0,44.0,1,1,1995,2060
153.14530900,153145309,1,0.003073727712035179,-0.0015659087803214788,0.0011049375170841813,-0.49421826004981995,-0.16380004584789276,-9.942371368408203,0,0,44.0,1,1,1995,2060
153.14800800,153148008,1,0.0025067238602787256,-0.0013630302855744958,0.0015654901508241892,-0.4957026243209839,-0.1640598326921463,-9.940580368041992,0,0,44.0,1,1,1995,2060
153.15031300,153150313,1,0.00236849975772202,-0.0009720730013214052,0.0015794206410646439,-0.4976314902305603,-0.1639213114976883,-9.939465522766113,0,0,44.0,1,1,1995,2060
153.15277600,153152776,1,0.0027257141191512346,-0.0015662271762266755,0.001197696547023952,-0.5019693970680237,-0.1630944311618805,-9.939796447753906,0,0,44.0,1,1,1995,2060
153.15547800,153155478,1,0.0025697455275803804,-0.001740606501698494,0.0007769688381813467,-0.503603458404541,-0.16428044438362122,-9.94438362121582,0,0,44.0,1,1,1995,2060
153.15780700,153157807,1,0.002758147893473506,-0.0021481760777533054,0.0010218003299087286,-0.5017632246017456,-0.1683073788881302,-9.950963973999023,0,0,44.0,1,1,1995,2060
153.16048100,153160481,1,0.00317567540332675,-0.002326016314327717,0.0011676931753754616,-0.5004752278327942,-0.1703370213508606,-9.952674865722656,0,0,44.0,1,1,1995,2060
153.16282400,153162824,1,0.002765293698757887,-0.001914875116199255,0.0011180891888216138,-0.49786409735679626,-0.1706571727991104,-9.949617385864258,0,0,44.0,1,1,1995,2060
153.16529300,153165293,1,0.002365415683016181,-0.0010043649235740304,0.0011568928603082895,-0.49395257234573364,-0.1704692840576172,-9.946497917175293,0,0,44.0,1,1,1995,2060
153.16797800,153167978,1,0.002105453982949257,-0.00028154486790299416,0.0006701999809592962,-0.49113744497299194,-0.168086439371109,-9.950052261352539,0,0,44.0,1,1,1995,2060
153.17028700,153170287,1,0.001706540584564209,0.0003341718402225524,0.000734651752281934,-0.4898283779621124,-0.16500312089920044,-9.956689834594727,0,0,44.0,1,1,1995,2060
153.17297300,153172973,1,0.001548516913317144,5.251255424809642e-05,0.0008858049404807389,-0.48693814873695374,-0.1580071896314621,-9.961679458618164,0,0,44.0,1,1,1995,2060
153.17536600,153175366,1,0.0017027808353304863,-0.0002898804086726159,0.0007557044154964387,-0.4855186641216278,-0.15510904788970947,-9.9672212600708,0,0,44.0,1,1,1995,2060
153.17865300,153178653,1,0.0015680984361097217,-0.00034266486181877553,0.00011527835886226967,-0.48732560873031616,-0.15302146971225739,-9.97529411315918,0,0,44.0,1,1,1995,2060
153.18084500,153180845,1,0.0009509108494967222,-0.00018041871953755617,3.745971116586588e-05,-0.48691749572753906,-0.15320587158203125,-9.977051734924316,0,0,44.0,1,1,1995,2060
153.18284600,153182846,1,0.00047752904356457293,-0.0005075968219898641,-0.00018688853015191853,-0.48659807443618774,-0.15657298266887665,-9.979472160339355,0,0,44.0,1,1,1995,2060
153.18586000,153185860,1,0.00042926750029437244,-0.0008743118378333747,-0.0009618782205507159,-0.4874083697795868,-0.16125375032424927,-9.981585502624512,0,0,44.0,1,1,1995,2060
153.18784800,153187848,1,0.0003051333187613636,-0.0013150263112038374,-0.001246645231731236,-0.4897420406341553,-0.16421031951904297,-9.982952117919922,0,0,44.0,1,1,1995,2060
153.19038100,153190381,1,0.00017927656881511211,-0.002079989295452833,-0.0013358573196455836,-0.49184879660606384,-0.16708146035671234,-9.97964859008789,0,0,44.0,1,1,1995,2060
153.19302300,153193023,1,0.00024082673189695925,-0.002534471917897463,-0.0007170884637162089,-0.49258047342300415,-0.17530740797519684,-9.973302841186523,0,0,44.0,1,1,1995,2060
153.19531700,153195317,1,9.418272384209558e-05,-0.0028299354016780853,-0.0006499621085822582,-0.4909105896949768,-0.18099527060985565,-9.968420028686523,0,0,44.0,1,1,1995,2060
153.19800400,153198004,1,-7.31520340195857e-05,-0.002876570215448737,-0.0007240815320983529,-0.4897203743457794,-0.18378859758377075,-9.963799476623535,0,0,44.0,1,1,1995,2060
153.20033500,153200335,1,7.112087041605264e-05,-0.003005760256201029,-0.00044807218364439905,-0.48590970039367676,-0.182002454996109,-9.957967758178711,0,0,44.0,1,1,1995,2060
153.20282000,153202820,1,-0.0003030546067748219,-0.002556526567786932,-0.0002612814714666456,-0.4880286455154419,-0.17716461420059204,-9.956949234008789,0,0,44.0,1,1,1995,2060
153.20550000,153205500,1,0.00018590925901662558,-0.00211168616078794,0.00042376297642476857,-0.49510061740875244,-0.17043595016002655,-9.954187393188477,0,0,44.0,1,1,1995,2060
153.20784200,153207842,1,0.0010075224563479424,-0.001682103844359517,0.0007114377804100513,-0.49994343519210815,-0.16852568089962006,-9.952747344970703,0,0,44.0,1,1,1995,2060
153.21053100,153210531,1,0.001515301875770092,-0.001423901179805398,0.0008250925457105041,-0.5033217072486877,-0.1684475541114807,-9.951622009277344,0,0,44.0,1,1,1995,2060
153.21282500,153212825,1,0.0017794333398342133,-0.0013307919725775719,0.0011810215655714273,-0.5065045356750488,-0.16750413179397583,-9.95029067993164,0,0,44.0,1,1,1995,2060
153.21529800,153215298,1,0.0017503194976598024,-0.001248128479346633,0.001470923307351768,-0.5075943470001221,-0.1667710393667221,-9.952625274658203,0,0,44.0,1,1,1995,2060
153.21805200,153218052,1,0.002036194782704115,-0.0005697374581359327,0.0012413040967658162,-0.5082058906555176,-0.16770847141742706,-9.962739944458008,0,0,44.0,1,1,1995,2060
153.22033700,153220337,1,0.0022506676614284515,-0.0002799035282805562,0.0010611258912831545,-0.5104963183403015,-0.16495274007320404,-9.969390869140625,0,0,44.0,1,1,1995,2060
153.22298400,153222984,1,0.0025978335179388523,-0.0003551423142198473,0.0010179664241150022,-0.510057806968689,-0.1620710790157318,-9.971902847290039,0,0,44.0,1,1,1995,2060
153.22529400,153225294,1,0.0023343253415077925,-7.23103221389465e-05,0.0011511635966598988,-0.5067431330680847,-0.1593954712152481,-9.972986221313477,0,0,44.0,1,1,1995,2060
153.22784100,153227841,1,0.0020202540326863527,0.0006403181469067931,0.0013982318341732025,-0.5015529990196228,-0.15668030083179474,-9.971492767333984,0,0,44.0,1,1,1995,2060
153.23048700,153230487,1,0.002091499976813793,0.0008172278176061809,0.001104593276977539,-0.4991554617881775,-0.1533999890089035,-9.971601486206055,0,0,44.0,1,1,1995,2060
153.23282700,153232827,1,0.0022961273789405823,0.0011796503094956279,0.0003379300469532609,-0.4932118356227875,-0.1509997546672821,-9.9771146774292,0,0,44.0,1,1,1995,2060
153.23548600,153235486,1,0.0022372619714587927,0.0012971950927749276,1.365288881061133e-05,-0.4879836440086365,-0.1452312171459198,-9.97679328918457,0,0,44.0,1,1,1995,2060
153.23786300,153237863,1,0.0016577054047957063,0.0009614247246645391,-7.069421371852513e-06,-0.4838745892047882,-0.14223667979240417,-9.97666072845459,0,0,44.0,1,1,1995,2060
153.24043600,153240436,1,0.001628049649298191,0.00021235649182926863,-2.734141526161693e-05,-0.47981274127960205,-0.14259614050388336,-9.973688125610352,0,0,44.0,1,1,1995,2060
153.24303800,153243038,1,0.00161085557192564,-0.001363115618005395,8.597316627856344e-05,-0.4742043912410736,-0.1439656764268875,-9.970319747924805,0,0,44.0,1,1,1995,2060
153.24531600,153245316,1,0.0010191402398049831,-0.0016950605204328895,0.0003066177887376398,-0.47182536125183105,-0.14529556035995483,-9.96439266204834,0,0,44.0,1,1,1995,2060
153.24801900,153248019,1,0.00011490359611343592,-0.0016961925430223346,0.0007442805799655616,-0.4721192419528961,-0.14775797724723816,-9.9566068649292,0,0,44.0,1,1,1995,2060
153.25032600,153250326,1,-0.00014112793724052608,-0.0013378642033785582,0.00046439343714155257,-0.47462692856788635,-0.14801345765590668,-9.950949668884277,0,0,44.0,1,1,1995,2060
153.25281200,153252812,1,-0.0004918334889225662,-0.0011451409664005041,0.0006676040939055383,-0.4760087728500366,-0.14888666570186615,-9.94980525970459,0,0,44.0,1,1,1995,2060
153.25553900,153255539,1,-0.0009974109707400203,-0.0007049529813230038,0.0005529905902221799,-0.47708988189697266,-0.14681631326675415,-9.945169448852539,0,0,44.0,1,1,1995,2060
153.25786800,153257868,1,-0.0011216499842703342,-0.0006044554174877703,0.0006281282985582948,-0.478607714176178,-0.14559835195541382,-9.942032814025879,0,0,44.0,1,1,1995,2060
153.26142100,153261421,1,-0.0019711751956492662,-0.0011326317908242345,0.0010031323181465268,-0.48393863439559937,-0.14662638306617737,-9.941015243530273,0,0,44.0,1,1,1995,2060
153.26281000,153262810,1,-0.002045633038505912,-0.0016828960506245494,0.0014251224929466844,-0.4862147867679596,-0.14704570174217224,-9.94373607635498,0,0,44.0,1,1,1995,2060
153.26534200,153265342,1,-0.0019891420379281044,-0.0021303945686668158,0.0017946453299373388,-0.49015817046165466,-0.1489850878715515,-9.948424339294434,0,0,44.0,1,1,1995,2060
153.26801300,153268013,1,-0.0020538296084851027,-0.002488762140274048,0.0017686882056295872,-0.4922559857368469,-0.148633673787117,-9.947942733764648,0,0,44.0,1,1,1995,2060
153.27036200,153270362,1,-0.0017377248732373118,-0.0024104511830955744,0.001961527857929468,-0.4951515793800354,-0.14882142841815948,-9.948410034179688,0,0,44.0,1,1,1995,2060
153.27301200,153273012,1,-0.0017487818840891123,-0.0023377411998808384,0.0018683032831177115,-0.4962807595729828,-0.15034084022045135,-9.948974609375,0,0,44.0,1,1,1995,2060
153.27534700,153275347,1,-0.0014814402675256133,-0.0018307690043002367,0.001447449205443263,-0.4990469515323639,-0.1522263139486313,-9.952495574951172,0,0,44.0,1,1,1995,2060
153.27786400,153277864,1,-0.0005481584812514484,-0.0015080819139257073,0.0009712707251310349,-0.4995901584625244,-0.15482616424560547,-9.954028129577637,0,0,44.0,1,1,1995,2060
153.28091900,153280919,1,-0.00016777458949945867,-0.0017551364144310355,0.0006833745283074677,-0.49755728244781494,-0.15579107403755188,-9.950661659240723,0,0,44.0,1,1,1995,2060
153.28282000,153282820,1,0.00013597965880762786,-0.0016553918831050396,0.00043975815060548484,-0.4955655634403229,-0.15512359142303467,-9.948749542236328,0,0,44.0,1,1,1995,2060
153.28589500,153285895,1,0.0009837558027356863,-0.0010870213154703379,0.00011784773232648149,-0.49611806869506836,-0.15449202060699463,-9.947785377502441,0,0,44.0,1,1,1995,2060
153.28782100,153287821,1,0.0014234889531508088,-0.0008043726556934416,-0.00025272706989198923,-0.4961549937725067,-0.15144912898540497,-9.949074745178223,0,0,44.0,1,1,1995,2060
153.29038200,153290382,1,0.0016999098006635904,-0.0010326630435883999,7.01284225215204e-05,-0.4943866729736328,-0.1478206217288971,-9.95079231262207,0,0,44.0,1,1,1995,2060
153.29301800,153293018,1,0.0018862374126911163,-0.0006280988454818726,0.0007270523929037154,-0.4942503273487091,-0.14486682415008545,-9.952093124389648,0,0,44.0,1,1,1995,2060
153.29534400,153295344,1,0.0017559052212163806,0.0002706283121369779,0.001684672897681594,-0.4937001168727875,-0.14271901547908783,-9.95050048828125,0,0,44.0,1,1,1995,2060
153.29801700,153298017,1,0.001235514529980719,3.345365621498786e-05,0.0021326816640794277,-0.49340906739234924,-0.14125365018844604,-9.952007293701172,0,0,44.0,1,1,1995,2060
153.30036700,153300367,1,0.001429161406122148,-0.00024836580269038677,0.0014692621771246195,-0.49246594309806824,-0.13936811685562134,-9.955486297607422,0,0,44.0,1,1,1995,2060
153.30285300,153302853,1,0.0018668333068490028,-0.0006197193870320916,0.0010468518594279885,-0.4901285469532013,-0.13937817513942719,-9.955437660217285,0,0,44.0,1,1,1995,2060
153.30553000,153305530,1,0.0019997062627226114,-0.0004462150391191244,0.0005333638400770724,-0.4909878969192505,-0.14013633131980896,-9.953319549560547,0,0,44.0,1,1,1995,2060
153.30785400,153307854,1,0.001668873243033886,-0.000839217915199697,0.00048446771688759327,-0.4913613796234131,-0.14169998466968536,-9.950699806213379,0,0,44.0,1,1,1995,2060
153.31051600,153310516,1,0.0016849288949742913,-0.0010498507181182504,-1.0562636134636705e-06,-0.4923679232597351,-0.14188584685325623,-9.952146530151367,0,0,44.0,1,1,1995,2060
153.31286600,153312866,1,0.002158005256205797,-0.0012875498505309224,-0.00019661318219732493,-0.49506092071533203,-0.1414913833141327,-9.95741081237793,0,0,44.0,1,1,1995,2060
153.31531800,153315318,1,0.0027149466332048178,-0.0009225644171237946,-0.0003049746446777135,-0.4979690909385681,-0.14210164546966553,-9.96731185913086,0,0,44.0,1,1,1995,2060
153.31801900,153318019,1,0.0020977125968784094,0.00019154278561472893,-0.000675673596560955,-0.496089905500412,-0.14168593287467957,-9.97275447845459,0,0,44.0,1,1,1995,2060
153.32036400,153320364,1,0.0024305719416588545,0.0010338126448914409,-0.0005743319052271545,-0.4947774112224579,-0.14298351109027863,-9.977755546569824,0,0,44.0,1,1,1995,2060
153.32307500,153323075,1,0.002385673113167286,0.0017576327081769705,-0.0004544050607364625,-0.49543628096580505,-0.14409670233726501,-9.977437973022461,0,0,44.0,1,1,1995,2060
153.32529000,153325290,1,0.0020393389277160168,0.0020075938664376736,-0.000977607793174684,-0.4948618710041046,-0.14494426548480988,-9.973847389221191,0,0,44.0,1,1,1995,2060
153.32784600,153327846,1,0.0012231414439156651,0.0018084165640175343,-0.0011279769241809845,-0.49487459659576416,-0.14554131031036377,-9.969618797302246,0,0,44.0,1,1,1995,2060
153.33050100,153330501,1,0.0003777749079745263,0.0013244339497759938,-0.0012272358871996403,-0.49369966983795166,-0.1442440003156662,-9.963339805603027,0,0,44.0,1,1,1995,2060
153.33285000,153332850,1,-0.00014825160906184465,0.00047524389810860157,-0.0009160596528090537,-0.4908311069011688,-0.14343756437301636,-9.957967758178711,0,0,44.0,1,1,1995,2060
153.33551200,153335512,1,-0.00027692498406395316,-0.000175658700754866,-0.0009037886629812419,-0.48791199922561646,-0.14261583983898163,-9.953970909118652,0,0,44.0,1,1,1995,2060
153.33789700,153337897,1,-0.0010743745369836688,-0.0007008873508311808,-0.0005066198064014316,-0.4854204058647156,-0.14396944642066956,-9.950057029724121,0,0,44.0,1,1,1995,2060
153.34126000,153341260,1,-0.0009675011970102787,-0.0010023218346759677,-0.00028461869806051254,-0.4805043935775757,-0.14903950691223145,-9.94379711151123,0,0,44.0,1,1,1995,2060
153.34304200,153343042,1,-0.0006233830936253071,-0.0012610272970050573,4.544750845525414e-05,-0.47810307145118713,-0.1489947885274887,-9.941883087158203,0,0,44.0,1,1,1995,2060
153.34537500,153345375,1,-0.0006648475537076592,-0.001786422566510737,0.000831465469673276,-0.4740535020828247,-0.14932237565517426,-9.940526962280273,0,0,44.0,1,1,1995,2060
153.34808700,153348087,1,-0.0005559038836508989,-0.002124887891113758,0.0013492051512002945,-0.47286272048950195,-0.15223021805286407,-9.940438270568848,0,0,44.0,1,1,1995,2060
153.35034800,153350348,1,8.645167690701783e-05,-0.0022737598046660423,0.0015371801564469934,-0.47328677773475647,-0.15612101554870605,-9.9398832321167,0,0,44.0,1,1,1995,2060
153.35287700,153352877,1,0.00010106987610924989,-0.002291429089382291,0.0017636261181905866,-0.47276970744132996,-0.15856190025806427,-9.940374374389648,0,0,44.0,1,1,1995,2060
153.35553000,153355530,1,0.0005934557993896306,-0.0024596124421805143,0.0015518461586907506,-0.4743502140045166,-0.15639939904212952,-9.942999839782715,0,0,44.0,1,1,1995,2060
153.35787800,153357878,1,0.0007574345218017697,-0.0020052308682352304,0.001428465940989554,-0.4756537675857544,-0.15264005959033966,-9.94544792175293,0,0,44.0,1,1,1995,2060
153.36056100,153360561,1,0.000901025312487036,-0.0019714466761797667,0.0014090966433286667,-0.47487130761146545,-0.15061518549919128,-9.948710441589355,0,0,44.0,1,1,1995,2060
153.36284800,153362848,1,0.0006661252700723708,-0.0016362599562853575,0.0013361552264541388,-0.4786222279071808,-0.14762838184833527,-9.95495319366455,0,0,44.0,1,1,1995,2060
153.36537600,153365376,1,0.00022481507039628923,-0.001479160855524242,0.001895291730761528,-0.48068851232528687,-0.146675705909729,-9.956157684326172,0,0,44.0,1,1,1995,2060
153.36809000,153368090,1,0.0005210535018704832,-0.001095435000024736,0.0023853410966694355,-0.4833841621875763,-0.14457562565803528,-9.95918083190918,0,0,44.0,1,1,1995,2060
153.37035600,153370356,1,6.114149437053129e-05,-0.0010570480953902006,0.0020655763801187277,-0.48489946126937866,-0.14133921265602112,-9.965616226196289,0,0,44.0,1,1,1995,2060
153.37304200,153373042,1,0.0002352839073864743,-0.00038107208092696965,0.001787823042832315,-0.48646265268325806,-0.13742345571517944,-9.969086647033691,0,0,44.0,1,1,1995,2060
153.37537200,153375372,1,0.0003007136983796954,0.0004298757703509182,0.0013506240211427212,-0.48959144949913025,-0.13610705733299255,-9.96841812133789,0,0,44.0,1,1,1995,2060
153.37785500,153377855,1,0.0004872428544331342,0.0012038490967825055,0.0009730116580612957,-0.4899829626083374,-0.1369268298149109,-9.96560001373291,0,0,44.0,1,1,1995,2060
153.38094300,153380943,1,0.0012508254731073976,0.0013565000845119357,0.0014123126165941358,-0.4898090064525604,-0.13857559859752655,-9.963258743286133,0,0,44.0,1,1,1995,2060
153.38280900,153382809,1,0.001783379353582859,0.0015579973114654422,0.0014659586595371366,-0.4905954599380493,-0.14265817403793335,-9.96086597442627,0,0,44.0,1,1,1995,2060
153.38591600,153385916,1,0.002265558810904622,0.0020518002565950155,0.0008861036039888859,-0.493261456489563,-0.14704330265522003,-9.95942211151123,0,0,44.0,1,1,1995,2060
153.38784600,153387846,1,0.00248886039480567,0.002789777470752597,0.0005312184221111238,-0.49750205874443054,-0.15091145038604736,-9.958420753479004,0,0,44.0,1,1,1995,2060
153.39044900,153390449,1,0.0020521818660199642,0.002869224175810814,0.00016801747551653534,-0.49969175457954407,-0.1533876210451126,-9.956315994262695,0,0,44.0,1,1,1995,2060
153.39301900,153393019,1,0.0015593082644045353,0.0025747676845639944,-0.00019004472414962947,-0.5010775923728943,-0.15562699735164642,-9.9557523727417,0,0,44.0,1,1,1995,2060
153.39536800,153395368,1,0.0012914325343444943,0.0018029413186013699,-0.0005316006718203425,-0.5022867918014526,-0.15910586714744568,-9.953864097595215,0,0,44.0,1,1,1995,2060
153.39803200,153398032,1,0.0010560532100498676,0.0009240462677553296,-0.00040016398997977376,-0.503188967704773,-0.16117465496063232,-9.955578804016113,0,0,44.0,1,1,1995,2060
153.40041500,153400415,1,0.0006347826565615833,0.00027963536558672786,-0.0007314430549740791,-0.5043228268623352,-0.16091127693653107,-9.960461616516113,0,0,44.0,1,1,1995,2060
153.40286700,153402867,1,0.0007525670807808638,-8.820313087198883e-05,-0.00025188393192365766,-0.5039034485816956,-0.15984921157360077,-9.967533111572266,0,0,44.0,1,1,1995,2060
153.40555400,153405554,1,0.000608117610681802,0.000237320113228634,-5.824000982102007e-05,-0.5016663074493408,-0.156942218542099,-9.971854209899902,0,0,44.0,1,1,1995,2060
153.40785800,153407858,1,0.0004934960161335766,4.667976463679224e-05,9.470854274695739e-05,-0.500121533870697,-0.15653808414936066,-9.974340438842773,0,0,44.0,1,1,1995,2060
153.41055800,153410558,1,0.0009172269492410123,-5.495986988535151e-05,-0.0002373263268964365,-0.49911803007125854,-0.1579635888338089,-9.973155975341797,0,0,44.0,1,1,1995,2060
153.41288200,153412882,1,0.0011620208388194442,-0.00012463581515476108,-0.0005040468531660736,-0.4999812841415405,-0.15734107792377472,-9.969691276550293,0,0,44.0,1,1,1995,2060
153.41537300,153415373,1,0.0013891109265387058,-0.0004836062144022435,-0.0008193512330763042,-0.5009163022041321,-0.15485846996307373,-9.968144416809082,0,0,44.0,1,1,1995,2060
153.41805500,153418055,1,0.0012018888955935836,-0.0011199163272976875,-0.0010397901060059667,-0.5018087029457092,-0.15109874308109283,-9.967046737670898,0,0,44.0,1,1,1995,2060
153.42140700,153421407,1,0.000771359889768064,-0.0022020109463483095,-0.001452695345506072,-0.49973925948143005,-0.14741791784763336,-9.966601371765137,0,0,44.0,1,1,1995,2060
153.42278000,153422780,1,0.00028983596712350845,-0.0024598080199211836,-0.001320557203143835,-0.49816828966140747,-0.1473061591386795,-9.966338157653809,0,0,44.0,1,1,1995,2060
153.42537800,153425378,1,-0.000402208068408072,-0.002507135970517993,-0.0013272728538140655,-0.4943656325340271,-0.14771293103694916,-9.965564727783203,0,0,44.0,1,1,1995,2060
153.42788200,153427882,1,-0.00048118393169716,-0.001984711503610015,-0.0006968927918933332,-0.4915505051612854,-0.14839231967926025,-9.963204383850098,0,0,44.0,1,1,1995,2060
153.43056000,153430560,1,-0.00051665841601789,-0.0017124756705015898,-0.000711187080014497,-0.48972049355506897,-0.14940756559371948,-9.958599090576172,0,0,44.0,1,1,1995,2060
153.43304300,153433043,1,-0.0008122522267512977,-0.0016612154431641102,-0.0006761295371688902,-0.4876149594783783,-0.15022969245910645,-9.955299377441406,0,0,44.0,1,1,1995,2060
153.43533700,153435337,1,-0.00029130117036402225,-0.0008082051062956452,-0.0005842398968525231,-0.48679882287979126,-0.15023566782474518,-9.955531120300293,0,0,44.0,1,1,1995,2060
153.43781100,153437811,1,8.873714978108183e-05,-0.0005375271430239081,-0.00012070112279616296,-0.48260992765426636,-0.14901739358901978,-9.957531929016113,0,0,44.0,1,1,1995,2060
153.44046200,153440462,1,0.0003373859799467027,3.682369060697965e-05,0.0003912305401172489,-0.48088255524635315,-0.14896689355373383,-9.958328247070312,0,0,44.0,1,1,1995,2060
153.44311400,153443114,1,8.425572013948113e-05,0.00032996918889693916,0.0005196185084059834,-0.48120400309562683,-0.15053138136863708,-9.961098670959473,0,0,44.0,1,1,1995,2060
153.44555500,153445555,1,-0.0001430073898518458,0.0005801361403428018,0.0007987894350662827,-0.4814473092556,-0.15335078537464142,-9.959212303161621,0,0,44.0,1,1,1995,2060
153.44788500,153447885,1,-0.0001224620355060324,0.00041795551078394055,0.001035049557685852,-0.48403146862983704,-0.15392976999282837,-9.955995559692383,0,0,44.0,1,1,1995,2060
153.45036900,153450369,1,-0.00012772333866450936,-7.717786502325907e-05,0.000860853586345911,-0.48522084951400757,-0.1546696573495865,-9.956162452697754,0,0,44.0,1,1,1995,2060
153.45288200,153452882,1,-0.00030299066565930843,9.650407446315512e-05,0.000714755617082119,-0.4863825738430023,-0.15651057660579681,-9.95882511138916,0,0,44.0,1,1,1995,2060
153.45591500,153455915,1,3.5641751310322434e-05,0.0006895838305354118,0.0011755033629015088,-0.48665767908096313,-0.16064582765102386,-9.959259986877441,0,0,44.0,1,1,1995,2060
153.45824200,153458242,1,-0.00015816176892258227,0.0013119279174134135,0.0014907005243003368,-0.4865334928035736,-0.16323018074035645,-9.957995414733887,0,0,44.0,1,1,1995,2060
153.46038300,153460383,1,-0.00016605251585133374,0.0018733532633632421,0.0011194280814379454,-0.48808518052101135,-0.16212286055088043,-9.957206726074219,0,0,44.0,1,1,1995,2060
153.46284900,153462849,1,-0.00018029376224149019,0.0024934904649853706,0.0006151791894808412,-0.4919430911540985,-0.16199487447738647,-9.957210540771484,0,0,44.0,1,1,1995,2060
153.46533500,153465335,1,0.0006161021301522851,0.0019461557967588305,0.00022701022680848837,-0.49501973390579224,-0.16321803629398346,-9.95528507232666,0,0,44.0,1,1,1995,2060
153.46805100,153468051,1,0.00044152632472105324,0.0013698246330022812,0.00021475597168318927,-0.4936957061290741,-0.1660778820514679,-9.949627876281738,0,0,44.0,1,1,1995,2060
153.47054700,153470547,1,0.0011285168584436178,0.0012888771016150713,0.00012289857841096818,-0.49066001176834106,-0.16852058470249176,-9.945409774780273,0,0,44.0,1,1,1995,2060
153.47286200,153472862,1,0.0016869663959369063,0.001463811146095395,0.00039039779221639037,-0.4874001145362854,-0.17159751057624817,-9.94405460357666,0,0,44.0,1,1,1995,2060
153.47530700,153475307,1,0.00181620754301548,0.001171317184343934,0.00011020383681170642,-0.48338648676872253,-0.17247357964515686,-9.943175315856934,0,0,44.0,1,1,1995,2060
153.47783300,153477833,1,0.0021392873022705317,0.0012209236156195402,0.00029829764389432967,-0.4790618121623993,-0.17101314663887024,-9.94521713256836,0,0,44.0,1,1,1995,2060
153.48103700,153481037,1,0.002541566966101527,0.0012115082936361432,0.0008374246535822749,-0.47736358642578125,-0.1678931713104248,-9.950557708740234,0,0,44.0,1,1,1995,2060
153.48342000,153483420,1,0.0019522382644936442,0.0014297881862148643,0.0014704960631206632,-0.47753944993019104,-0.1625109165906906,-9.954657554626465,0,0,44.0,1,1,1995,2060
153.48529600,153485296,1,0.0016352868406102061,0.0012924788752570748,0.0016417218139395118,-0.4773752689361572,-0.15672630071640015,-9.958749771118164,0,0,44.0,1,1,1995,2060
153.48783800,153487838,1,0.0012598605826497078,0.0011662767501547933,0.001337807159870863,-0.4777871072292328,-0.15610454976558685,-9.961124420166016,0,0,44.0,1,1,1995,2060
153.49043900,153490439,1,0.001083897310309112,0.00031454229610972106,0.0014913976192474365,-0.48302483558654785,-0.15661977231502533,-9.960897445678711,0,0,44.0,1,1,1995,2060
153.49305100,153493051,1,0.00013395238784141839,-0.00019380389130674303,0.0014296515146270394,-0.4885920286178589,-0.1555023193359375,-9.962578773498535,0,0,44.0,1,1,1995,2060
153.49554400,153495544,1,-0.00026903836987912655,-0.0003042657335754484,0.0009502255124971271,-0.49287059903144836,-0.15517021715641022,-9.966832160949707,0,0,44.0,1,1,1995,2060
153.49785100,153497851,1,-0.0007470316486433148,-0.0007917461334727705,0.0011989496415480971,-0.5003272891044617,-0.15686146914958954,-9.969904899597168,0,0,44.0,1,1,1995,2060
153.50034200,153500342,1,-0.0011572518851608038,-0.0006235299515537918,0.0012876010732725263,-0.5080913305282593,-0.15846964716911316,-9.967438697814941,0,0,44.0,1,1,1995,2060
153.50365700,153503657,1,0.00033952223020605743,-0.0003610923304222524,0.0009154509752988815,-0.5090413093566895,-0.16023845970630646,-9.965332984924316,0,0,44.0,1,1,1995,2060
153.50547400,153505474,1,0.0006532308761961758,0.00014739471953362226,0.0004836975422222167,-0.5087109208106995,-0.16087570786476135,-9.9650239944458,0,0,44.0,1,1,1995,2060
153.50801100,153508011,1,0.0007715727551840246,0.0008307467796839774,0.0006174824666231871,-0.5056012868881226,-0.16208380460739136,-9.962560653686523,0,0,44.0,1,1,1995,2060
153.51032300,153510323,1,0.001153930090367794,0.0008203995530493557,0.0002850952441804111,-0.49759286642074585,-0.164847731590271,-9.960658073425293,0,0,44.0,1,1,1995,2060
153.51280100,153512801,1,0.0010256357491016388,0.0010747818741947412,0.001090207020752132,-0.4929327964782715,-0.166643425822258,-9.960321426391602,0,0,44.0,1,1,1995,2060
153.51531800,153515318,1,0.0007525146356783807,0.0012273414758965373,0.0017102307174354792,-0.48853620886802673,-0.16566021740436554,-9.960580825805664,0,0,44.0,1,1,1995,2060
153.51804100,153518041,1,0.00041016118484549224,0.001261813216842711,0.0017611108487471938,-0.48477721214294434,-0.16378585994243622,-9.961570739746094,0,0,44.0,1,1,1995,2060
153.52055500,153520555,1,-8.700440230313689e-05,0.0009986989898607135,0.0017939350800588727,-0.4826287031173706,-0.16546815633773804,-9.962362289428711,0,0,44.0,1,1,1995,2060
153.52280600,153522806,1,-0.0009618144831620157,0.0007255304954014719,0.0019562458619475365,-0.48099765181541443,-0.16643744707107544,-9.966529846191406,0,0,44.0,1,1,1995,2060
153.52532700,153525327,1,-0.0010000502225011587,0.00030054195667617023,0.0016625025309622288,-0.4815318286418915,-0.1665840595960617,-9.96967887878418,0,0,44.0,1,1,1995,2060
153.52780400,153527804,1,-0.0006985986256040633,-0.00012647257244680077,0.0016137749189510942,-0.48723188042640686,-0.16532568633556366,-9.970272064208984,0,0,44.0,1,1,1995,2060
153.53051200,153530512,1,-0.0006504144985228777,0.00034630700247362256,0.0011937306262552738,-0.49553021788597107,-0.16294176876544952,-9.970054626464844,0,0,44.0,1,1,1995,2060
153.53305600,153533056,1,-0.00046790033229626715,0.0006075176643207669,0.0009374318760819733,-0.5015832185745239,-0.16075633466243744,-9.971114158630371,0,0,44.0,1,1,1995,2060
153.53531300,153535313,1,-9.083951590582728e-05,0.00044559413800016046,0.0008557271212339401,-0.504047155380249,-0.15991121530532837,-9.968524932861328,0,0,44.0,1,1,1995,2060
153.53781000,153537810,1,6.865766772534698e-05,0.00018869696941692382,0.0009137350134551525,-0.5052887797355652,-0.1568754017353058,-9.965365409851074,0,0,44.0,1,1,1995,2060
153.54043900,153540439,1,-0.00015177359455265105,0.00024615696747787297,0.0009225523099303246,-0.5081933736801147,-0.15519580245018005,-9.959273338317871,0,0,44.0,1,1,1995,2060
153.54300300,153543003,1,0.0005231514805927873,0.0008298847242258489,0.0007893863366916776,-0.5129736661911011,-0.15595154464244843,-9.952566146850586,0,0,44.0,1,1,1995,2060
153.54550400,153545504,1,0.001498352619819343,0.0005697924643754959,0.0007004213402979076,-0.515853762626648,-0.15494252741336823,-9.950401306152344,0,0,44.0,1,1,1995,2060
153.54785100,153547851,1,0.0019264079164713621,0.00037150600110180676,0.0009054053225554526,-0.5129408836364746,-0.1526114046573639,-9.947967529296875,0,0,44.0,1,1,1995,2060
153.55031100,153550311,1,0.0018091981764882803,8.848131983540952e-06,0.000993869616650045,-0.5088968873023987,-0.1523715704679489,-9.944648742675781,0,0,44.0,1,1,1995,2060
153.55284300,153552843,1,0.0017011075979098678,0.00013003261119592935,0.0012893917737528682,-0.5074689388275146,-0.15212737023830414,-9.942161560058594,0,0,44.0,1,1,1995,2060
153.55555600,153555556,1,0.001124726259149611,1.84330692718504e-05,0.001387673313729465,-0.5044878125190735,-0.15483275055885315,-9.942702293395996,0,0,44.0,1,1,1995,2060
153.55803400,153558034,1,0.0007087871781550348,-5.4384610848501325e-05,0.000959522498305887,-0.500796914100647,-0.15595054626464844,-9.945751190185547,0,0,44.0,1,1,1995,2060
153.56034400,153560344,1,0.00012658860941883177,0.0006088366499170661,0.00038995250361040235,-0.49218371510505676,-0.15728168189525604,-9.95300579071045,0,0,44.0,1,1,1995,2060
153.56284000,153562840,1,2.2438105588662438e-05,0.0008750106790103018,0.00018567295046523213,-0.48938122391700745,-0.15695610642433167,-9.958612442016602,0,0,44.0,1,1,1995,2060
153.56530400,153565304,1,-0.0008000165689736605,0.001801364473067224,-0.0005746717797592282,-0.4908073842525482,-0.15791170299053192,-9.961971282958984,0,0,44.0,1,1,1995,2060
153.56803700,153568037,1,-0.0006252552266232669,0.0019774779211729765,-0.000991541426628828,-0.48996466398239136,-0.15732574462890625,-9.967626571655273,0,0,44.0,1,1,1995,2060
153.57056000,153570560,1,-0.0010277018882334232,0.0019006985239684582,-0.001992369769141078,-0.4872460961341858,-0.15726108849048615,-9.968250274658203,0,0,44.0,1,1,1995,2060
153.57281500,153572815,1,-0.0006736307987011969,0.0017082382692024112,-0.0016426467336714268,-0.4845177233219147,-0.15464474260807037,-9.970796585083008,0,0,44.0,1,1,1995,2060
153.57531600,153575316,1,0.0002666652435436845,0.001667166594415903,-0.0010882680071517825,-0.4815911650657654,-0.15287190675735474,-9.975549697875977,0,0,44.0,1,1,1995,2060
153.57781300,153577813,1,0.0009150326368398964,0.0015277562197297812,-0.0009359669056721032,-0.4814310073852539,-0.15574802458286285,-9.979413032531738,0,0,44.0,1,1,1995,2060
153.58090800,153580908,1,0.0009567000670358539,0.0016079291235655546,-0.0007478423067368567,-0.4823147654533386,-0.15651096403598785,-9.980008125305176,0,0,44.0,1,1,1995,2060
153.58426500,153584265,1,0.0013805365888401866,0.0007314520771615207,-0.0007617601077072322,-0.483571320772171,-0.15685392916202545,-9.975347518920898,0,0,44.0,1,1,1995,2060
153.58519400,153585194,1,0.0017990523483604193,0.0008551955688744783,-0.001237271586433053,-0.4848178029060364,-0.1588786393404007,-9.971521377563477,0,0,44.0,1,1,1995,2060
153.58781900,153587819,1,0.0019230875186622143,0.0007000899640843272,-0.001493106596171856,-0.48771005868911743,-0.16109545528888702,-9.96802043914795,0,0,44.0,1,1,1995,2060
153.59033700,153590337,1,0.001975234830752015,0.0010231791529804468,-0.0012679202482104301,-0.48991483449935913,-0.16227665543556213,-9.964929580688477,0,0,44.0,1,1,1995,2060
153.59310000,153593100,1,0.0021972553804516792,0.0009635982569307089,-0.0013547114795073867,-0.4898158311843872,-0.1635940670967102,-9.958868980407715,0,0,44.0,1,1,1995,2060
153.59550100,153595501,1,0.0030707097612321377,0.0005941691342741251,-0.0015969942323863506,-0.4878610670566559,-0.16409224271774292,-9.95119857788086,0,0,44.0,1,1,1995,2060
153.59781900,153597819,1,0.0027211729902774096,-1.6626818251097575e-05,-0.001526892650872469,-0.4890451431274414,-0.1615346372127533,-9.944746971130371,0,0,44.0,1,1,1995,2060
153.60036200,153600362,1,0.0024059622082859278,-0.00026580269332043827,-0.0014303842326626182,-0.491201788187027,-0.15753374993801117,-9.94322395324707,0,0,44.0,1,1,1995,2060
153.60278500,153602785,1,0.0027088483329862356,-0.0008278519380837679,-0.0013007858069613576,-0.4946293830871582,-0.15469135344028473,-9.945571899414062,0,0,44.0,1,1,1995,2060
153.60555900,153605559,1,0.0030450401827692986,-0.0012879235437139869,-0.0012096399441361427,-0.49948233366012573,-0.15241441130638123,-9.951460838317871,0,0,44.0,1,1,1995,2060
153.60809600,153608096,1,0.002750647719949484,-0.0016350473742932081,-0.0009791163029149175,-0.5017712116241455,-0.15259647369384766,-9.955305099487305,0,0,44.0,1,1,1995,2060
153.61030700,153610307,1,0.0026206758338958025,-0.0013558903010562062,0.00025065720546990633,-0.5030007362365723,-0.15265795588493347,-9.958724975585938,0,0,44.0,1,1,1995,2060
153.61286200,153612862,1,0.0020202891901135445,-0.0013962199445813894,0.0006911245873197913,-0.503437876701355,-0.1508082002401352,-9.957624435424805,0,0,44.0,1,1,1995,2060
153.61531900,153615319,1,0.0019751577638089657,-0.0015450952341780066,0.0005032834014855325,-0.5028225183486938,-0.14881250262260437,-9.955342292785645,0,0,44.0,1,1,1995,2060
153.61801300,153618013,1,0.002000537933781743,-0.0014173195231705904,0.0006966412183828652,-0.4991738796234131,-0.14868949353694916,-9.95306396484375,0,0,44.0,1,1,1995,2060
153.62053500,153620535,1,0.0013728723861277103,-0.000993612571619451,0.0010574422776699066,-0.4953489899635315,-0.14779172837734222,-9.951885223388672,0,0,44.0,1,1,1995,2060
153.62284600,153622846,1,0.0007604316924698651,-0.0010264574084430933,0.001047784578986466,-0.49515706300735474,-0.14818687736988068,-9.952157020568848,0,0,44.0,1,1,1995,2060
153.62536200,153625362,1,0.000571111508179456,-0.0010900370543822646,0.001080043031834066,-0.4982777535915375,-0.14779995381832123,-9.954949378967285,0,0,44.0,1,1,1995,2060
153.62781500,153627815,1,0.0006887532654218376,-0.0014736517332494259,0.0009218025370500982,-0.5016987919807434,-0.150070458650589,-9.95783805847168,0,0,44.0,1,1,1995,2060
153.63050700,153630507,1,0.0005487938178703189,-0.001034381682984531,0.00038586644222959876,-0.5030248165130615,-0.15128286182880402,-9.9619779586792,0,0,44.0,1,1,1995,2060
153.63301000,153633010,1,1.3569356269726995e-05,-0.0011230650125071406,0.0008691174443811178,-0.5029663443565369,-0.14941872656345367,-9.963059425354004,0,0,44.0,1,1,1995,2060
153.63534000,153635340,1,8.206167694879696e-05,-0.0009896592237055302,0.0010070283897221088,-0.5017488598823547,-0.14565002918243408,-9.964540481567383,0,0,44.0,1,1,1995,2060
153.63782900,153637829,1,0.0005190499359741807,-0.0012790681794285774,0.0009885109029710293,-0.4996347427368164,-0.14275196194648743,-9.962373733520508,0,0,44.0,1,1,1995,2060
153.64041100,153640411,1,0.0010808040387928486,-0.0008098644902929664,0.0008841590024530888,-0.49586084485054016,-0.14277328550815582,-9.957108497619629,0,0,44.0,1,1,1995,2060
153.64304500,153643045,1,0.001276154420338571,-0.0005158802960067987,0.0009817930404096842,-0.49418067932128906,-0.14312025904655457,-9.952265739440918,0,0,44.0,1,1,1995,2060
153.64551800,153645518,1,0.001684654736891389,-0.0007152053876779974,0.0008513098582625389,-0.493056058883667,-0.1438107043504715,-9.955249786376953,0,0,44.0,1,1,1995,2060
153.64783900,153647839,1,0.0011945768492296338,-0.0013620322570204735,0.000980768701992929,-0.4921654164791107,-0.14518311619758606,-9.958646774291992,0,0,44.0,1,1,1995,2060
153.65031500,153650315,1,0.0012957153376191854,-0.0014486057916656137,0.001152940560132265,-0.48930197954177856,-0.1485278159379959,-9.961854934692383,0,0,44.0,1,1,1995,2060
153.65280900,153652809,1,0.0011804975802078843,-0.001192220370285213,0.0011140889255329967,-0.485573947429657,-0.1501762419939041,-9.960640907287598,0,0,44.0,1,1,1995,2060
153.65550900,153655509,1,0.0008587029878981411,-0.0012731235474348068,0.0011166917392984033,-0.48240095376968384,-0.1481793373823166,-9.958852767944336,0,0,44.0,1,1,1995,2060
153.65801500,153658015,1,0.0001699920539977029,-0.0008275562431663275,0.0011139143025502563,-0.4775855243206024,-0.14927391707897186,-9.958706855773926,0,0,44.0,1,1,1995,2060
153.66038700,153660387,1,-0.00037761853309348226,-0.0004215833032503724,0.0012559706810861826,-0.4744925796985626,-0.14922048151493073,-9.957784652709961,0,0,44.0,1,1,1995,2060
153.66281900,153662819,1,-0.0009479474392719567,-0.00013936539471615106,0.001423732261173427,-0.47330254316329956,-0.14965347945690155,-9.958253860473633,0,0,44.0,1,1,1995,2060
153.66613500,153666135,1,-0.0011524091241881251,-3.922433461411856e-05,0.0016735923709347844,-0.4769459068775177,-0.15184567868709564,-9.96100902557373,0,0,44.0,1,1,1995,2060
153.66798400,153667984,1,-0.0013552012387663126,0.0001306717749685049,0.001963320653885603,-0.4796616733074188,-0.15295825898647308,-9.962488174438477,0,0,44.0,1,1,1995,2060
153.67051300,153670513,1,-0.0016627334989607334,1.536725540063344e-05,0.0021211025305092335,-0.48477810621261597,-0.15271402895450592,-9.967917442321777,0,0,44.0,1,1,1995,2060
153.67282700,153672827,1,-0.0016834801062941551,0.0007510356954298913,0.001625473378226161,-0.4892786741256714,-0.14964336156845093,-9.972739219665527,0,0,44.0,1,1,1995,2060
153.67531500,153675315,1,-0.0013934776652604342,0.0006312268087640405,0.0009830306516960263,-0.4940527081489563,-0.14352653920650482,-9.971845626831055,0,0,44.0,1,1,1995,2060
153.67784000,153677840,1,-0.0012491209199652076,0.00022487786191049963,0.0008379408973269165,-0.49386802315711975,-0.14232291281223297,-9.966795921325684,0,0,44.0,1,1,1995,2060
153.68089900,153680899,1,-0.001496779965236783,0.00013580425002146512,0.0001380785251967609,-0.4924386441707611,-0.14108490943908691,-9.963753700256348,0,0,44.0,1,1,1995,2060
153.68342400,153683424,1,-0.0010257740505039692,0.00018200682825408876,-0.0005175660480745137,-0.4892856776714325,-0.1390843242406845,-9.965153694152832,0,0,44.0,1,1,1995,2060
153.68530900,153685309,1,-0.00030688318656757474,0.0005565243773162365,-0.0008412163588218391,-0.4860822856426239,-0.1366635113954544,-9.968955039978027,0,0,44.0,1,1,1995,2060
153.68783800,153687838,1,0.00044009758858010173,0.0011660743039101362,-0.0003286209248472005,-0.48246362805366516,-0.1347358524799347,-9.97259521484375,0,0,44.0,1,1,1995,2060
153.69033900,153690339,1,0.0011060450924560428,0.0013128607533872128,-0.00015823992725927383,-0.48240092396736145,-0.1356349140405655,-9.970137596130371,0,0,44.0,1,1,1995,2060
153.69309600,153693096,1,0.001253757392987609,0.0011457764776423573,-0.0003253140312153846,-0.48309996724128723,-0.1376953423023224,-9.971171379089355,0,0,44.0,1,1,1995,2060
153.69552100,153695521,1,0.002058638259768486,0.0007411396945826709,7.015893061179668e-05,-0.4833793640136719,-0.1375887542963028,-9.970717430114746,0,0,44.0,1,1,1995,2060
153.69782200,153697822,1,0.0015781891997903585,0.0002903306158259511,-2.7960515581071377e-05,-0.48589614033699036,-0.1365807205438614,-9.967309951782227,0,0,44.0,1,1,1995,2060
153.70035800,153700358,1,0.0010701162973418832,0.00017741970077622682,0.00017866578127723187,-0.48648834228515625,-0.13895836472511292,-9.964557647705078,0,0,44.0,1,1,1995,2060
153.70281300,153702813,1,0.0008449543383903801,-8.620996959507465e-05,0.0007423739298246801,-0.4854047894477844,-0.14331789314746857,-9.964935302734375,0,0,44.0,1,1,1995,2060
153.70557400,153705574,1,0.0012920994777232409,-0.0007607953739352524,0.0008506595622748137,-0.48294684290885925,-0.14740514755249023,-9.965402603149414,0,0,44.0,1,1,1995,2060
153.70800800,153708008,1,0.002198620932176709,-0.0010261809220537543,0.0005801038932986557,-0.4828217029571533,-0.1479777842760086,-9.961108207702637,0,0,44.0,1,1,1995,2060
153.71034700,153710347,1,0.0027949740178883076,-0.0009850949281826615,0.00043264232226647437,-0.4829427897930145,-0.14880333840847015,-9.955190658569336,0,0,44.0,1,1,1995,2060
153.71286600,153712866,1,0.00334353419020772,-0.00015143872587941587,0.0003705740673467517,-0.4851771295070648,-0.1487554907798767,-9.950434684753418,0,0,44.0,1,1,1995,2060
153.71530300,153715303,1,0.003594105364754796,0.00048234680434688926,-0.00011748338147299364,-0.48852774500846863,-0.14836464822292328,-9.949835777282715,0,0,44.0,1,1,1995,2060
153.71804900,153718049,1,0.003873963840305805,0.0007128515862859786,-0.00031742535065859556,-0.4920482039451599,-0.14920327067375183,-9.949958801269531,0,0,44.0,1,1,1995,2060
153.72051500,153720515,1,0.003367655212059617,0.00024261783983092755,-0.0006433503003790975,-0.4955257475376129,-0.15025371313095093,-9.954022407531738,0,0,44.0,1,1,1995,2060
153.72282100,153722821,1,0.0028041095938533545,8.456271461909637e-05,-0.0008681098697707057,-0.4991176724433899,-0.14891915023326874,-9.962267875671387,0,0,44.0,1,1,1995,2060
153.72530200,153725302,1,0.0021527493372559547,0.00028391004889272153,-0.00029956933576613665,-0.5042421221733093,-0.14710135757923126,-9.968267440795898,0,0,44.0,1,1,1995,2060
153.72783400,153727834,1,0.0016560772201046348,-1.5420599083881825e-05,7.474653102690354e-05,-0.5065141320228577,-0.14668548107147217,-9.969388008117676,0,0,44.0,1,1,1995,2060
153.73049800,153730498,1,0.0017292748671025038,1.3807763934892137e-05,-6.605777161894366e-05,-0.506753146648407,-0.1490616351366043,-9.966166496276855,0,0,44.0,1,1,1995,2060
153.73300500,153733005,1,0.0016614674823358655,0.00023297950974665582,0.0003117370360996574,-0.5076913237571716,-0.15245956182479858,-9.960583686828613,0,0,44.0,1,1,1995,2060
153.73530100,153735301,1,0.0016290522180497646,0.0006839217967353761,0.0005342518561519682,-0.5067205429077148,-0.15573947131633759,-9.956954956054688,0,0,44.0,1,1,1995,2060
153.73781800,153737818,1,0.0010691849747672677,0.00043171303695999086,0.0006264802650548518,-0.5061007738113403,-0.15725204348564148,-9.957636833190918,0,0,44.0,1,1,1995,2060
153.74047900,153740479,1,0.0010051678400486708,0.0007506672409363091,0.00013464574294630438,-0.5017993450164795,-0.15939059853553772,-9.958635330200195,0,0,44.0,1,1,1995,2060
153.74301500,153743015,1,0.000795068743173033,0.0013368745567277074,0.0001290429790969938,-0.497611403465271,-0.16237489879131317,-9.957749366760254,0,0,44.0,1,1,1995,2060
153.74639600,153746396,1,-4.2447140003787354e-05,0.0020065531134605408,0.0005179073777981102,-0.4940817952156067,-0.1649443656206131,-9.958649635314941,0,0,44.0,1,1,1995,2060
153.74783100,153747831,1,-0.0005772262229584157,0.0017408961430191994,0.0007488355040550232,-0.49198660254478455,-0.16619764268398285,-9.958495140075684,0,0,44.0,1,1,1995,2060
153.75032900,153750329,1,-0.001100266701541841,0.0016312220832332969,0.0004509725549723953,-0.49088066816329956,-0.16631725430488586,-9.953926086425781,0,0,44.0,1,1,1995,2060
153.75284400,153752844,1,-0.0008912280900403857,0.0015855940291658044,-5.7469507737550884e-05,-0.4914361536502838,-0.16341601312160492,-9.948333740234375,0,0,44.0,1,1,1995,2060
153.75551300,153755513,1,-0.000597235222812742,0.0006625681417062879,-0.00041378531022928655,-0.491699755191803,-0.15999719500541687,-9.94297981262207,0,0,44.0,1,1,1995,2060
153.75797900,153757979,1,-0.0009703440591692924,0.0004688772314693779,-0.0010874613653868437,-0.4925343692302704,-0.1568486988544464,-9.940808296203613,0,0,44.0,1,1,1995,2060
153.76032800,153760328,1,-0.0009702023817226291,0.0005565218743868172,-0.0013509518466889858,-0.48964837193489075,-0.15486738085746765,-9.938138008117676,0,0,44.0,1,1,1995,2060
153.76285400,153762854,1,-0.0006561419577337801,0.0009119522292166948,-0.0012368180323392153,-0.48872336745262146,-0.15164302289485931,-9.935066223144531,0,0,44.0,1,1,1995,2060
153.76532800,153765328,1,0.00017589212802704424,0.0009091580286622047,-0.0006226866971701384,-0.4906054437160492,-0.15273134410381317,-9.934880256652832,0,0,44.0,1,1,1995,2060
153.76804600,153768046,1,0.0002836842031683773,0.000814705912489444,-0.0004450119158718735,-0.4909815788269043,-0.1538541615009308,-9.933128356933594,0,0,44.0,1,1,1995,2060
153.77050900,153770509,1,0.00010616557119647041,0.00018070486839860678,-0.0001301970041822642,-0.49292176961898804,-0.15400874614715576,-9.930837631225586,0,0,44.0,1,1,1995,2060
153.77281400,153772814,1,-0.00019905786029994488,-0.0005878021474927664,-8.031690413190518e-06,-0.4943114221096039,-0.15261103212833405,-9.930313110351562,0,0,44.0,1,1,1995,2060
153.77531100,153775311,1,-0.0005359450588002801,-0.0013745772885158658,0.0004823880735784769,-0.4927619993686676,-0.14886991679668427,-9.930715560913086,0,0,44.0,1,1,1995,2060
153.77780700,153777807,1,-0.0005841095116920769,-0.001698971027508378,0.0007246201857924461,-0.4907270073890686,-0.1467493325471878,-9.933369636535645,0,0,44.0,1,1,1995,2060
153.78087400,153780874,1,-0.0005500123952515423,-0.0014128079637885094,0.00027434484218247235,-0.49287617206573486,-0.14813470840454102,-9.940914154052734,0,0,44.0,1,1,1995,2060
153.78334900,153783349,1,-0.0006625015521422029,-0.001457828446291387,-1.0130982445843983e-05,-0.49387767910957336,-0.15049904584884644,-9.946266174316406,0,0,44.0,1,1,1995,2060
153.78531900,153785319,1,-0.0005991511861793697,-0.0015802893321961164,-0.00026144870207645,-0.4922695755958557,-0.15228700637817383,-9.947128295898438,0,0,44.0,1,1,1995,2060
153.78786300,153787863,1,-0.0001482432708144188,-0.0012219578493386507,-0.00025647212169133127,-0.4913013279438019,-0.1536903977394104,-9.947288513183594,0,0,44.0,1,1,1995,2060
153.79036900,153790369,1,0.00012829003389924765,-0.0012037745909765363,-4.0149534470401704e-06,-0.4914058446884155,-0.15378238260746002,-9.948440551757812,0,0,44.0,1,1,1995,2060
153.79304300,153793043,1,0.00024756131460890174,-0.0011811046861112118,-6.514287815662101e-05,-0.4936395585536957,-0.15638048946857452,-9.951288223266602,0,0,44.0,1,1,1995,2060
153.79557100,153795571,1,0.00031761324498802423,-0.0010527760023251176,-0.0001614502107258886,-0.49525222182273865,-0.15813514590263367,-9.953543663024902,0,0,44.0,1,1,1995,2060
153.79781100,153797811,1,0.0006698647048324347,-0.0018537486903369427,-0.0001613740314496681,-0.4963175356388092,-0.16065014898777008,-9.956403732299805,0,0,44.0,1,1,1995,2060
153.80033400,153800334,1,0.0013208590680733323,-0.0021715734619647264,-0.0003254939219914377,-0.49920034408569336,-0.16495227813720703,-9.957847595214844,0,0,44.0,1,1,1995,2060
153.80284100,153802841,1,0.00206540385261178,-0.0025406815111637115,-0.00022515241289511323,-0.5040588974952698,-0.16657181084156036,-9.956380844116211,0,0,44.0,1,1,1995,2060
153.80553600,153805536,1,0.002455709734931588,-0.0022149027790874243,3.2800930057419464e-05,-0.5070741176605225,-0.1684909462928772,-9.956253051757812,0,0,44.0,1,1,1995,2060
153.80797500,153807975,1,0.0025685064028948545,-0.0024563877377659082,0.00022826134227216244,-0.5063961148262024,-0.1703106313943863,-9.954338073730469,0,0,44.0,1,1,1995,2060
153.81031500,153810315,1,0.0029952460899949074,-0.0026004733517766,0.0008929552277550101,-0.5041241645812988,-0.16996099054813385,-9.95080852508545,0,0,44.0,1,1,1995,2060
153.81281000,153812810,1,0.0029783444479107857,-0.0018112180987372994,0.0012361251283437014,-0.5009738206863403,-0.16997751593589783,-9.946701049804688,0,0,44.0,1,1,1995,2060
153.81531500,153815315,1,0.0024811069015413523,-0.0013900578487664461,0.0014070667093619704,-0.4958058297634125,-0.16857540607452393,-9.941877365112305,0,0,44.0,1,1,1995,2060
153.81810700,153818107,1,0.00236773700453341,-0.0008242931799031794,0.0017864468973129988,-0.48997870087623596,-0.16732333600521088,-9.938197135925293,0,0,44.0,1,1,1995,2060
153.82053200,153820532,1,0.0029871060978621244,0.00031702936394140124,0.0018657648470252752,-0.48693645000457764,-0.16702182590961456,-9.936495780944824,0,0,44.0,1,1,1995,2060
153.82282500,153822825,1,0.002807640703395009,-0.0006674510659649968,0.0018273730529472232,-0.4828653335571289,-0.16460783779621124,-9.939423561096191,0,0,44.0,1,1,1995,2060
153.82613300,153826133,1,0.0027667838148772717,-0.0010397357400506735,0.001595553825609386,-0.4786384403705597,-0.16478648781776428,-9.944378852844238,0,0,44.0,1,1,1995,2060
153.82774700,153827747,1,0.0026396934408694506,-0.0016625886783003807,0.0013122844975441694,-0.476504385471344,-0.16595926880836487,-9.947257041931152,0,0,44.0,1,1,1995,2060
153.83049300,153830493,1,0.002543759997934103,-0.0021580855827778578,0.00107085972558707,-0.4722583591938019,-0.16767528653144836,-9.950654983520508,0,0,44.0,1,1,1995,2060
153.83297900,153832979,1,0.0013987142592668533,-0.0016306290635839105,0.0008785009267739952,-0.46751606464385986,-0.1669767051935196,-9.950197219848633,0,0,44.0,1,1,1995,2060
153.83532200,153835322,1,0.0009364326251670718,-0.0015407501487061381,0.0014366921968758106,-0.46259886026382446,-0.16471853852272034,-9.949442863464355,0,0,44.0,1,1,1995,2060
153.83786400,153837864,1,0.000265096576185897,-0.001182553474791348,0.002179256407544017,-0.45851799845695496,-0.16364336013793945,-9.947690963745117,0,0,44.0,1,1,1995,2060
153.84055500,153840555,1,0.0001894087326945737,-0.0008360560750588775,0.002239715773612261,-0.4569929540157318,-0.16309383511543274,-9.951569557189941,0,0,44.0,1,1,1995,2060
153.84305400,153843054,1,0.0001713225501589477,-0.0010420619510114193,0.0026167365722358227,-0.4540412425994873,-0.16113056242465973,-9.95323657989502,0,0,44.0,1,1,1995,2060
153.84559800,153845598,1,2.2009529857314192e-05,-0.0012124900240451097,0.0024264282546937466,-0.4530307352542877,-0.15585212409496307,-9.955085754394531,0,0,44.0,1,1,1995,2060
153.84782400,153847824,1,0.000997851719148457,-0.0013009051326662302,0.0022404647897928953,-0.4550635516643524,-0.15225647389888763,-9.956182479858398,0,0,44.0,1,1,1995,2060
153.85031000,153850310,1,0.00171887525357306,-0.0018192898714914918,0.0012229058193042874,-0.46100106835365295,-0.1484241783618927,-9.957724571228027,0,0,44.0,1,1,1995,2060
153.85282500,153852825,1,0.002370971953496337,-0.0020208770874887705,0.0006121022161096334,-0.46606725454330444,-0.144046351313591,-9.96086597442627,0,0,44.0,1,1,1995,2060
153.85549700,153855497,1,0.003077336587011814,-0.0017157120164483786,0.0002757457550615072,-0.4701460599899292,-0.1387297362089157,-9.967575073242188,0,0,44.0,1,1,1995,2060
153.85797400,153857974,1,0.0031702418345957994,-0.0010576999047771096,-0.00037067264202050865,-0.4731887876987457,-0.13680005073547363,-9.967887878417969,0,0,44.0,1,1,1995,2060
153.86034500,153860345,1,0.0030576607678085566,-0.0005073380307294428,-0.0006401260034181178,-0.4760095179080963,-0.13593028485774994,-9.967873573303223,0,0,44.0,1,1,1995,2060
153.86284900,153862849,1,0.0031498312018811703,-0.0007266986649483442,-0.0007699673878960311,-0.477780818939209,-0.13695284724235535,-9.9700927734375,0,0,44.0,1,1,1995,2060
153.86530400,153865304,1,0.00288177072070539,-0.000910385453607887,-0.00023714388953521848,-0.47952595353126526,-0.13945741951465607,-9.972795486450195,0,0,44.0,1,1,1995,2060
153.86797500,153867975,1,0.0024146931245923042,-0.00013245111040305346,-0.00023087108274921775,-0.4812377691268921,-0.1425047516822815,-9.972807884216309,0,0,44.0,1,1,1995,2060
153.87055800,153870558,1,0.002317593665793538,-0.00044733978575095534,9.550495451549068e-05,-0.48650696873664856,-0.14337146282196045,-9.97252368927002,0,0,44.0,1,1,1995,2060
153.87281000,153872810,1,0.0018990915268659592,-0.0005354499444365501,0.0005156068946234882,-0.4903104901313782,-0.14320947229862213,-9.971511840820312,0,0,44.0,1,1,1995,2060
153.87531900,153875319,1,0.001980996923521161,-0.0001489207788836211,0.0010314240353181958,-0.4952733814716339,-0.1437627226114273,-9.972428321838379,0,0,44.0,1,1,1995,2060
153.87781300,153877813,1,0.002255235565826297,0.00012460873404052109,0.0014936242951080203,-0.4993401765823364,-0.1436520516872406,-9.974984169006348,0,0,44.0,1,1,1995,2060
153.88086700,153880867,1,0.0019570467993617058,0.0003722015826497227,0.0019052284769713879,-0.5004722476005554,-0.14292238652706146,-9.973820686340332,0,0,44.0,1,1,1995,2060
153.88335100,153883351,1,0.0019619388040155172,-0.00013303970627021044,0.002313552424311638,-0.5018789172172546,-0.14158648252487183,-9.971652030944824,0,0,44.0,1,1,1995,2060
153.88532900,153885329,1,0.0018694516038522124,-0.0005337728653103113,0.0018869013292714953,-0.5002409219741821,-0.14053326845169067,-9.971916198730469,0,0,44.0,1,1,1995,2060
153.88784600,153887846,1,0.002125664846971631,-0.0002310492709511891,0.0014539194526150823,-0.4912351667881012,-0.14016251266002655,-9.970457077026367,0,0,44.0,1,1,1995,2060
153.89035000,153890350,1,0.002357347169891,0.0001522651728009805,0.0011031002504751086,-0.4836057126522064,-0.14062891900539398,-9.962803840637207,0,0,44.0,1,1,1995,2060
153.89299500,153892995,1,0.0025787833146750927,0.00027468163170851767,0.00121087278239429,-0.4772977828979492,-0.1425427794456482,-9.954286575317383,0,0,44.0,1,1,1995,2060
153.89547400,153895474,1,0.0024769387673586607,0.0012036346597597003,0.0012147852685302496,-0.4735029339790344,-0.14392392337322235,-9.948869705200195,0,0,44.0,1,1,1995,2060
153.89784500,153897845,1,0.002147487597540021,0.001848347601480782,0.0015057737473398447,-0.4727358818054199,-0.14496947824954987,-9.947473526000977,0,0,44.0,1,1,1995,2060
153.90034200,153900342,1,0.0018980585737153888,0.0019490261329337955,0.0006449100910685956,-0.47299331426620483,-0.1489643007516861,-9.947949409484863,0,0,44.0,1,1,1995,2060
153.90283600,153902836,1,0.001600123941898346,0.0015197948087006807,0.000450790801551193,-0.4751438498497009,-0.15069246292114258,-9.951652526855469,0,0,44.0,1,1,1995,2060
153.90550500,153905505,1,0.001304909004829824,0.0012159369653090835,-3.1492811103817075e-05,-0.47780516743659973,-0.15045608580112457,-9.953628540039062,0,0,44.0,1,1,1995,2060
153.90890700,153908907,1,0.0007107372512109578,0.0010496190516278148,0.00015582944615744054,-0.4826304018497467,-0.14856630563735962,-9.950654029846191,0,0,44.0,1,1,1995,2060
153.91031100,153910311,1,0.0006740065291523933,0.000988126383163035,0.0005013156915083528,-0.48514997959136963,-0.146580770611763,-9.950821876525879,0,0,44.0,1,1,1995,2060
153.91279900,153912799,1,-0.00010268446203554049,0.0013293784577399492,0.00023809295089449733,-0.48916661739349365,-0.14404632151126862,-9.952608108520508,0,0,44.0,1,1,1995,2060
153.91531200,153915312,1,-0.000599041988607496,0.001118537737056613,0.0006757832015864551,-0.49296367168426514,-0.14329937100410461,-9.953561782836914,0,0,44.0,1,1,1995,2060
153.91799100,153917991,1,-0.0008534722146578133,0.0010693013900890946,0.001151323551312089,-0.4948539137840271,-0.14393530786037445,-9.955510139465332,0,0,44.0,1,1,1995,2060
153.92050500,153920505,1,-0.0009097157744690776,0.0012535741552710533,0.0009311197209171951,-0.49490875005722046,-0.145869642496109,-9.955849647521973,0,0,44.0,1,1,1995,2060
153.92281900,153922819,1,-0.0009027840569615364,0.001491143018938601,0.0010554364416748285,-0.4933476746082306,-0.14672312140464783,-9.959439277648926,0,0,44.0,1,1,1995,2060
153.92531300,153925313,1,-0.00116257113404572,0.0016311838990077376,0.0010170319583266973,-0.4914776384830475,-0.14557719230651855,-9.96484661102295,0,0,44.0,1,1,1995,2060
153.92784400,153927844,1,-0.0011497916420921683,0.0012796147493645549,0.0006844208110123873,-0.4899706542491913,-0.14453598856925964,-9.970458030700684,0,0,44.0,1,1,1995,2060
153.93052200,153930522,1,-0.0016127291601151228,0.000552137556951493,0.00037202020757831633,-0.48726755380630493,-0.14483153820037842,-9.973176002502441,0,0,44.0,1,1,1995,2060
153.93298100,153932981,1,-0.002100594574585557,-0.000617298879660666,0.00030494722886942327,-0.4868817925453186,-0.14436957240104675,-9.974248886108398,0,0,44.0,1,1,1995,2060
153.93530700,153935307,1,-0.0024494922254234552,-0.0014231784734874964,0.00033757364144548774,-0.48355910181999207,-0.14176101982593536,-9.97102165222168,0,0,44.0,1,1,1995,2060
153.93786000,153937860,1,-0.0027499902062118053,-0.001817859592847526,0.0006310748867690563,-0.48334935307502747,-0.14134295284748077,-9.9697904586792,0,0,44.0,1,1,1995,2060
153.94040300,153940403,1,-0.0029143583960831165,-0.0024232591968029737,0.00028025414212606847,-0.4854692220687866,-0.14146439731121063,-9.968283653259277,0,0,44.0,1,1,1995,2060
153.94304600,153943046,1,-0.00275053852237761,-0.0025195975322276354,0.0002831246820278466,-0.48914840817451477,-0.13996517658233643,-9.969014167785645,0,0,44.0,1,1,1995,2060
153.94551600,153945516,1,-0.0028097659815102816,-0.002511183964088559,0.0005048380116932094,-0.49013498425483704,-0.1382099688053131,-9.971189498901367,0,0,44.0,1,1,1995,2060
153.94783100,153947831,1,-0.0020675670821219683,-0.0031968578696250916,0.0003952332481276244,-0.49056801199913025,-0.13924172520637512,-9.96942138671875,0,0,44.0,1,1,1995,2060
153.95032700,153950327,1,-0.0012485150946304202,-0.0031444665510207415,0.00037736116792075336,-0.48914557695388794,-0.14090627431869507,-9.965917587280273,0,0,44.0,1,1,1995,2060
153.95287700,153952877,1,-0.0007244183216243982,-0.003050493309274316,0.0003781675186473876,-0.4902406632900238,-0.14140908420085907,-9.960469245910645,0,0,44.0,1,1,1995,2060
153.95583600,153955836,1,0.0008844558615237474,-0.002823068993166089,0.000490217877086252,-0.4922603368759155,-0.14151139557361603,-9.959513664245605,0,0,44.0,1,1,1995,2060
153.95817800,153958178,1,0.0016137822531163692,-0.002440354321151972,0.0006076460122130811,-0.492408812046051,-0.14391709864139557,-9.9586820602417,0,0,44.0,1,1,1995,2060
153.96031600,153960316,1,0.0021399855613708496,-0.002093752846121788,0.001511822221800685,-0.4901462197303772,-0.14635241031646729,-9.957612991333008,0,0,44.0,1,1,1995,2060
153.96286200,153962862,1,0.0020102658309042454,-0.0020354094449430704,0.001499452511779964,-0.4881405532360077,-0.14841100573539734,-9.959452629089355,0,0,44.0,1,1,1995,2060
153.96530200,153965302,1,0.0017242621397599578,-0.0017996534006670117,0.0010124825639650226,-0.4855946898460388,-0.1514369547367096,-9.960477828979492,0,0,44.0,1,1,1995,2060
153.96804300,153968043,1,0.0016667195595800877,-0.0017553120851516724,0.001069183461368084,-0.4851383864879608,-0.1524624526500702,-9.960485458374023,0,0,44.0,1,1,1995,2060
153.97050900,153970509,1,0.001377504551783204,-0.001704587135463953,0.0006386140012182295,-0.4862688481807709,-0.14934740960597992,-9.960570335388184,0,0,44.0,1,1,1995,2060
153.97281400,153972814,1,0.000966892926953733,-0.0017445437842980027,0.0007187653100118041,-0.4882616698741913,-0.14837534725666046,-9.960631370544434,0,0,44.0,1,1,1995,2060
153.97531100,153975311,1,0.00031745247542858124,-0.0011596416588872671,0.0011138131376355886,-0.49046358466148376,-0.14911004900932312,-9.962759017944336,0,0,44.0,1,1,1995,2060
153.97783200,153977832,1,0.0003843503654934466,-0.0010599707020446658,0.001224094652570784,-0.49254435300827026,-0.14852504432201385,-9.964017868041992,0,0,44.0,1,1,1995,2060
153.98087200,153980872,1,0.0005726534291170537,-0.0010744309984147549,0.0018071464728564024,-0.4923000931739807,-0.15011122822761536,-9.961714744567871,0,0,44.0,1,1,1995,2060
153.98335700,153983357,1,0.000468014448415488,-0.0007978385547176003,0.0014143752632662654,-0.4898829162120819,-0.15171357989311218,-9.954451560974121,0,0,44.0,1,1,1995,2060
153.98530100,153985301,1,0.0006374285439960659,-0.0006724434206262231,0.0010224999859929085,-0.4895646870136261,-0.15345479547977448,-9.951221466064453,0,0,44.0,1,1,1995,2060
153.98862800,153988628,1,0.0008403635583817959,-0.0005143450107425451,0.0010892925783991814,-0.4896465539932251,-0.15758466720581055,-9.955647468566895,0,0,44.0,1,1,1995,2060
153.99031500,153990315,1,0.0013996022753417492,-2.6069952582474798e-05,0.0007787313661538064,-0.48974156379699707,-0.161483034491539,-9.960095405578613,0,0,44.0,1,1,1995,2060
153.99298500,153992985,1,0.002157281618565321,0.0005418412620201707,3.92474903492257e-05,-0.4868852198123932,-0.16618861258029938,-9.963611602783203,0,0,44.0,1,1,1995,2060
153.99546300,153995463,1,0.002032623626291752,0.000935169227886945,-0.0008004510309547186,-0.4863373339176178,-0.16799110174179077,-9.96548843383789,0,0,44.0,1,1,1995,2060
153.99784200,153997842,1,0.0017863662214949727,0.0007926169782876968,-0.0011842604726552963,-0.4857625365257263,-0.16553501784801483,-9.966246604919434,0,0,44.0,1,1,1995,2060
154.00034200,154000342,1,0.0018886082107201219,0.0008585570030845702,-0.0010087668197229505,-0.4849962890148163,-0.16551484167575836,-9.964140892028809,0,0,44.0,1,1,1995,2060
154.00282400,154002824,1,0.0013291510986164212,0.0008532615029253066,-0.0003700472880154848,-0.48626527190208435,-0.16407234966754913,-9.960283279418945,0,0,44.0,1,1,1995,2060
154.00549600,154005496,1,0.0010302296141162515,0.000825772644020617,-0.0004200427501928061,-0.48852694034576416,-0.16124866902828217,-9.958507537841797,0,0,44.0,1,1,1995,2060
154.00802400,154008024,1,0.0005282953497953713,0.0008740188786759973,0.00032831355929374695,-0.4934941828250885,-0.15958136320114136,-9.959440231323242,0,0,44.0,1,1,1995,2060
154.01031500,154010315,1,0.0003839158162008971,0.0008461968973278999,-6.781092815799639e-05,-0.49726393818855286,-0.1589517742395401,-9.961529731750488,0,0,44.0,1,1,1995,2060
154.01282100,154012821,1,0.0003008509229402989,0.0010647642193362117,-0.000247672141995281,-0.5003190636634827,-0.15748855471611023,-9.96506404876709,0,0,44.0,1,1,1995,2060
154.01530700,154015307,1,4.59626862721052e-05,0.0011108644539490342,1.7870159354060888e-05,-0.5034663081169128,-0.15406689047813416,-9.969834327697754,0,0,44.0,1,1,1995,2060
154.01799700,154017997,1,-0.00025427708169445395,0.0007555483607575297,0.00028578468482010067,-0.506831705570221,-0.15097744762897491,-9.974867820739746,0,0,44.0,1,1,1995,2060
154.02054400,154020544,1,2.5521332645439543e-05,0.0006876488332636654,4.8415036872029305e-05,-0.5089244842529297,-0.14929835498332977,-9.975752830505371,0,0,44.0,1,1,1995,2060
154.02281200,154022812,1,0.00027502456214278936,-0.00016283294826280326,-0.0005956375971436501,-0.5108900666236877,-0.1473178267478943,-9.97331428527832,0,0,44.0,1,1,1995,2060
154.02530800,154025308,1,0.000268656003754586,-0.0008992686052806675,-0.0003468081704340875,-0.5110247135162354,-0.14543981850147247,-9.96985912322998,0,0,44.0,1,1,1995,2060
154.02783300,154027833,1,-0.0006585599621757865,-0.0013350913068279624,-0.00013309447967913002,-0.5080224275588989,-0.14560510218143463,-9.968040466308594,0,0,44.0,1,1,1995,2060
154.03047500,154030475,1,-0.0014883296098560095,-0.000883527856785804,0.0009664100361987948,-0.5046093463897705,-0.14490604400634766,-9.968097686767578,0,0,44.0,1,1,1995,2060
154.03298900,154032989,1,-0.0020998697727918625,-0.0012988473754376173,0.0017566585447639227,-0.5038882493972778,-0.1438988745212555,-9.966277122497559,0,0,44.0,1,1,1995,2060
154.03531300,154035313,1,-0.001754737226292491,-0.0017764713848009706,0.0019439100287854671,-0.5005390644073486,-0.145143061876297,-9.964332580566406,0,0,44.0,1,1,1995,2060
154.03782500,154037825,1,-0.0009415060630999506,-0.0018352378392592072,0.002417953684926033,-0.49784529209136963,-0.14735253155231476,-9.965418815612793,0,0,44.0,1,1,1995,2060
154.04040100,154040401,1,-0.0001375856954837218,-0.0014801188372075558,0.0019855627324432135,-0.4947625696659088,-0.14761225879192352,-9.968389511108398,0,0,44.0,1,1,1995,2060
154.04302700,154043027,1,0.0006677143974229693,-0.0009144027135334909,0.0017684134654700756,-0.49057239294052124,-0.1485653668642044,-9.971047401428223,0,0,44.0,1,1,1995,2060
154.04548200,154045482,1,0.001629717880859971,-0.0005233383853919804,0.001573478803038597,-0.4843602478504181,-0.1503354161977768,-9.970218658447266,0,0,44.0,1,1,1995,2060
154.04782000,154047820,1,0.002476340625435114,3.4219450753880665e-05,0.0013391298707574606,-0.48046091198921204,-0.14840440452098846,-9.970134735107422,0,0,44.0,1,1,1995,2060
154.05030800,154050308,1,0.0034639316145330667,-0.00018046106561087072,0.0014292887644842267,-0.4774528443813324,-0.14705395698547363,-9.970232009887695,0,0,44.0,1,1,1995,2060
154.05281000,154052810,1,0.004413166083395481,-0.00018190585251431912,0.0010920439381152391,-0.47586414217948914,-0.14796534180641174,-9.9697265625,0,0,44.0,1,1,1995,2060
154.05551500,154055515,1,0.004554396495223045,-0.0002220888709416613,0.0006400868878699839,-0.47445788979530334,-0.14888392388820648,-9.97015380859375,0,0,44.0,1,1,1995,2060
154.05798800,154057988,1,0.004466688726097345,-0.0006497015710920095,0.0003397120744921267,-0.4722784459590912,-0.14663688838481903,-9.971606254577637,0,0,44.0,1,1,1995,2060
154.06033600,154060336,1,0.0044370549730956554,-0.0010251192143186927,-0.00012346006406005472,-0.4728703796863556,-0.14468255639076233,-9.976957321166992,0,0,44.0,1,1,1995,2060
154.06281900,154062819,1,0.00409110588952899,-0.0012683150125667453,-0.0001868596882559359,-0.4759174883365631,-0.14542095363140106,-9.979641914367676,0,0,44.0,1,1,1995,2060
154.06539500,154065395,1,0.0037426978815346956,-0.0012674250174313784,-6.696589844068512e-05,-0.4782898724079132,-0.14841732382774353,-9.980035781860352,0,0,44.0,1,1,1995,2060
154.06890500,154068905,1,0.003592615481466055,-0.0012933623511344194,0.00026369752595201135,-0.48602595925331116,-0.15050600469112396,-9.9778470993042,0,0,44.0,1,1,1995,2060
154.07047800,154070478,1,0.0032339550089091063,-0.001163625274784863,0.000706869235727936,-0.4891377389431,-0.15034766495227814,-9.974960327148438,0,0,44.0,1,1,1995,2060
154.07273600,154072736,1,0.002268732525408268,-0.0004591684846673161,0.0007019838667474687,-0.4894424080848694,-0.1487356424331665,-9.96868896484375,0,0,44.0,1,1,1995,2060
154.07523200,154075232,1,0.0013251076452434063,0.0002444462734274566,0.0008297117310576141,-0.4871654510498047,-0.15127477049827576,-9.961912155151367,0,0,44.0,1,1,1995,2060
154.07776300,154077763,1,0.0008670040988363326,0.00034617120400071144,0.0009335031500086188,-0.48708203434944153,-0.15623320639133453,-9.958016395568848,0,0,44.0,1,1,1995,2060
154.08092900,154080929,1,-1.3117072512613959e-06,0.0006106719956733286,0.0010310892248526216,-0.4900813102722168,-0.1590820550918579,-9.953635215759277,0,0,44.0,1,1,1995,2060
154.08335600,154083356,1,-0.0005446124705486,0.0007547211134806275,0.0002713192079681903,-0.4935343861579895,-0.159933939576149,-9.953425407409668,0,0,44.0,1,1,1995,2060
154.08522100,154085221,1,-0.0004531470185611397,0.0010573959443718195,-0.00014714297140017152,-0.4935796856880188,-0.15772610902786255,-9.956552505493164,0,0,44.0,1,1,1995,2060
154.08782000,154087820,1,-0.0005404319963417947,0.0007068280829116702,-0.00018857850227504969,-0.4929536283016205,-0.15607376396656036,-9.962891578674316,0,0,44.0,1,1,1995,2060
154.09034700,154090347,1,-0.000531940080691129,2.3021480956231244e-05,0.00013465990195982158,-0.4921932518482208,-0.15585197508335114,-9.969691276550293,0,0,44.0,1,1,1995,2060
154.09299800,154092998,1,-0.000642887142021209,-0.0008481237455271184,0.0005536872195079923,-0.4904989004135132,-0.1532292515039444,-9.976160049438477,0,0,44.0,1,1,1995,2060
154.09547100,154095471,1,-0.0006755494978278875,-0.0002522769500501454,0.0004072965821251273,-0.490119069814682,-0.14752279222011566,-9.981183052062988,0,0,44.0,1,1,1995,2060
154.09784800,154097848,1,-0.0006640148931182921,-0.00046382923028431833,2.0769923139596358e-05,-0.49114274978637695,-0.14182902872562408,-9.985029220581055,0,0,44.0,1,1,1995,2060
154.10034100,154100341,1,-0.0005394208710640669,-0.0005010263994336128,-0.0005207954091019928,-0.49169260263442993,-0.13978396356105804,-9.983999252319336,0,0,44.0,1,1,1995,2060
154.10280200,154102802,1,-0.0001682172587607056,-0.0007022411446087062,-0.00012023405724903569,-0.49059420824050903,-0.13996079564094543,-9.980079650878906,0,0,44.0,1,1,1995,2060
154.10551500,154105515,1,0.0001225894084200263,-0.0012058907886967063,0.00025606807321310043,-0.48942890763282776,-0.140829399228096,-9.976322174072266,0,0,44.0,1,1,1995,2060
154.10805600,154108056,1,2.8907519933341064e-08,-0.0012682263040915132,0.0005397784407250583,-0.4888648986816406,-0.1412448287010193,-9.971183776855469,0,0,44.0,1,1,1995,2060
154.11034700,154110347,1,-0.00011645987979136407,-0.00039990368532016873,0.0009868696797639132,-0.49103090167045593,-0.14009171724319458,-9.967886924743652,0,0,44.0,1,1,1995,2060
154.11281400,154112814,1,0.00011430979066062719,0.0006159761105664074,0.000852359866257757,-0.4924428164958954,-0.13792414963245392,-9.966487884521484,0,0,44.0,1,1,1995,2060
154.11533900,154115339,1,0.0007206275477074087,0.0011379197239875793,0.0008650868549011648,-0.49067389965057373,-0.13953207433223724,-9.969937324523926,0,0,44.0,1,1,1995,2060
154.11801100,154118011,1,0.001084044692106545,0.0014335582964122295,0.00017135551024693996,-0.4907193183898926,-0.1408054530620575,-9.973623275756836,0,0,44.0,1,1,1995,2060
154.12050800,154120508,1,0.0009526124340482056,0.0019498106557875872,-0.00011573470692383125,-0.4884677827358246,-0.14354482293128967,-9.974016189575195,0,0,44.0,1,1,1995,2060
154.12283500,154122835,1,0.0008063276764005423,0.0028863302432000637,2.2639005692326464e-05,-0.4832208752632141,-0.1471175104379654,-9.972681045532227,0,0,44.0,1,1,1995,2060
154.12532500,154125325,1,0.0007112829480320215,0.0029529891908168793,0.000333436211803928,-0.48158738017082214,-0.14983774721622467,-9.971199989318848,0,0,44.0,1,1,1995,2060
154.12784500,154127845,1,-7.67821575209382e-07,0.002731514861807227,0.0001419799227733165,-0.48253530263900757,-0.15302427113056183,-9.967757225036621,0,0,44.0,1,1,1995,2060
154.13050000,154130500,1,-0.00011476800864329562,0.002673924434930086,0.00011992330837529153,-0.48598140478134155,-0.15318018198013306,-9.967559814453125,0,0,44.0,1,1,1995,2060
154.13305100,154133051,1,0.0005763942608609796,0.002014728030189872,6.913190009072423e-05,-0.48626595735549927,-0.1522117704153061,-9.967385292053223,0,0,44.0,1,1,1995,2060
154.13533400,154135334,1,0.0005729458061978221,0.0013523079687729478,0.0003439847205299884,-0.4878261089324951,-0.1501307487487793,-9.965597152709961,0,0,44.0,1,1,1995,2060
154.13783600,154137836,1,0.0005009971791878343,0.0006113581475801766,0.00040632777381688356,-0.49064937233924866,-0.14684665203094482,-9.964716911315918,0,0,44.0,1,1,1995,2060
154.14042600,154140426,1,0.00018908617494162172,0.00015151053958106786,0.0005119628040120006,-0.4934147000312805,-0.14468316733837128,-9.965104103088379,0,0,44.0,1,1,1995,2060
154.14300300,154143003,1,-0.00028101581847295165,-0.0005658053560182452,0.0003969630633946508,-0.49764156341552734,-0.1439681202173233,-9.963000297546387,0,0,44.0,1,1,1995,2060
154.14551200,154145512,1,-0.00031826095073483884,-0.0008926079608500004,-0.0004017524770461023,-0.5012868046760559,-0.14430665969848633,-9.96088981628418,0,0,44.0,1,1,1995,2060
154.14788000,154147880,1,-0.00025479283067397773,-0.001399464556016028,-0.0007912315195426345,-0.5008165836334229,-0.14352834224700928,-9.965173721313477,0,0,44.0,1,1,1995,2060
154.15113300,154151133,1,0.0005064280121587217,-0.0022781924344599247,-0.0003048968210350722,-0.49786177277565,-0.14698372781276703,-9.968766212463379,0,0,44.0,1,1,1995,2060
154.15276500,154152765,1,0.0006951202522031963,-0.002732837339863181,-0.0003630426072049886,-0.4964047968387604,-0.14739947021007538,-9.970039367675781,0,0,44.0,1,1,1995,2060
154.15558800,154155588,1,0.001264731865376234,-0.002525544725358486,-0.0003582155331969261,-0.4961974322795868,-0.14875659346580505,-9.972861289978027,0,0,44.0,1,1,1995,2060
154.15804900,154158049,1,0.0016381700988858938,-0.002537000458687544,-0.00018894142704084516,-0.49599146842956543,-0.15003211796283722,-9.974920272827148,0,0,44.0,1,1,1995,2060
154.16045000,154160450,1,0.0019066317472606897,-0.0019710687920451164,-0.00038237959961406887,-0.4969041645526886,-0.1487054079771042,-9.97224235534668,0,0,44.0,1,1,1995,2060
154.16283500,154162835,1,0.0014364701928570867,-0.0016900876071304083,-0.0004995798226445913,-0.49807974696159363,-0.1501481831073761,-9.965170860290527,0,0,44.0,1,1,1995,2060
154.16536100,154165361,1,0.0008099764818325639,-0.0008859183872118592,-0.0007907873950898647,-0.5000036358833313,-0.15193615853786469,-9.957937240600586,0,0,44.0,1,1,1995,2060
154.16803900,154168039,1,9.001034413813613e-06,-0.0011918885866180062,-0.0007348056533373892,-0.502123236656189,-0.1509537547826767,-9.955549240112305,0,0,44.0,1,1,1995,2060
154.17053100,154170531,1,-0.00045714163570664823,-0.0011695274151861668,-0.00039371862658299506,-0.5004130005836487,-0.151584655046463,-9.956511497497559,0,0,44.0,1,1,1995,2060
154.17283200,154172832,1,-0.0007735874969512224,-0.0008745310478843749,-0.0003125025250483304,-0.49931269884109497,-0.1522383838891983,-9.960217475891113,0,0,44.0,1,1,1995,2060
154.17536200,154175362,1,-0.0009650128777138889,-0.0006913762772455812,-9.084071643883362e-05,-0.4972696900367737,-0.15417081117630005,-9.96036148071289,0,0,44.0,1,1,1995,2060
154.17789400,154177894,1,-0.001011561369523406,-0.0005720092449337244,-0.0006044761976227164,-0.49671033024787903,-0.15663574635982513,-9.956002235412598,0,0,44.0,1,1,1995,2060
154.18092200,154180922,1,-0.0005201454041525722,-0.00028665352147072554,-0.0007560914964415133,-0.49594590067863464,-0.15719494223594666,-9.954985618591309,0,0,44.0,1,1,1995,2060
154.18340700,154183407,1,0.0002638913574628532,0.00015084132610354573,-0.00018955179257318377,-0.49150770902633667,-0.15828704833984375,-9.952814102172852,0,0,44.0,1,1,1995,2060
154.18536700,154185367,1,0.0010538218775764108,0.0014777752803638577,-0.0009690609876997769,-0.48573845624923706,-0.16017837822437286,-9.953866958618164,0,0,44.0,1,1,1995,2060
154.18786800,154187868,1,0.0010249483166262507,0.00209279777482152,-0.0010951794683933258,-0.4776119589805603,-0.15938220918178558,-9.954733848571777,0,0,44.0,1,1,1995,2060
154.19040500,154190405,1,0.0004325587360654026,0.0024142793845385313,-0.0003400949644856155,-0.4740702211856842,-0.15874500572681427,-9.954846382141113,0,0,44.0,1,1,1995,2060
154.19307300,154193073,1,-8.411005546804518e-05,0.0024340497329831123,0.00018992359400726855,-0.47488316893577576,-0.15852411091327667,-9.953493118286133,0,0,44.0,1,1,1995,2060
154.19553100,154195531,1,-2.5922909117070958e-05,0.00221326295286417,0.0009298233198933303,-0.4788692891597748,-0.15673506259918213,-9.950756072998047,0,0,44.0,1,1,1995,2060
154.19785000,154197850,1,0.00037887119106017053,0.0017152680084109306,0.0010018977336585522,-0.4828334450721741,-0.15569719672203064,-9.949753761291504,0,0,44.0,1,1,1995,2060
154.20039800,154200398,1,0.0004909178824163973,0.0012623509392142296,0.0009838284458965063,-0.48879295587539673,-0.1558856964111328,-9.954153060913086,0,0,44.0,1,1,1995,2060
154.20285800,154202858,1,0.0012630430283024907,0.00012259688810445368,0.0007115036132745445,-0.4925224781036377,-0.15533354878425598,-9.959546089172363,0,0,44.0,1,1,1995,2060
154.20554300,154205543,1,0.002161118434742093,-0.0007646885933354497,0.0006401191931217909,-0.49435657262802124,-0.15508949756622314,-9.961289405822754,0,0,44.0,1,1,1995,2060
154.20802800,154208028,1,0.002788576064631343,-0.0008182728197425604,0.00046494114212691784,-0.4957716763019562,-0.15214669704437256,-9.959221839904785,0,0,44.0,1,1,1995,2060
154.21037300,154210373,1,0.00367526151239872,-0.000737965339794755,-0.0001416892628185451,-0.4956952631473541,-0.1482592225074768,-9.958518981933594,0,0,44.0,1,1,1995,2060
154.21287100,154212871,1,0.003824525745585561,-0.0009007122134789824,-0.0002075810480164364,-0.492001473903656,-0.14422085881233215,-9.956782341003418,0,0,44.0,1,1,1995,2060
154.21533600,154215336,1,0.003013415727764368,-0.0014098217943683267,-0.00048653341946192086,-0.4897330105304718,-0.1437368541955948,-9.953213691711426,0,0,44.0,1,1,1995,2060
154.21802900,154218029,1,0.0022575233597308397,-0.001746652415022254,-4.388319212011993e-06,-0.4883067309856415,-0.14348438382148743,-9.952619552612305,0,0,44.0,1,1,1995,2060
154.22054400,154220544,1,0.0018265836406499147,-0.0017086145235225558,8.296503801830113e-05,-0.4888237416744232,-0.14151796698570251,-9.955222129821777,0,0,44.0,1,1,1995,2060
154.22287100,154222871,1,0.0018164702923968434,-0.0018756785430014133,0.0005846242420375347,-0.48990514874458313,-0.1407269686460495,-9.956161499023438,0,0,44.0,1,1,1995,2060
154.22534600,154225346,1,0.0015643683727830648,-0.001796017517335713,0.0008600287255831063,-0.48918280005455017,-0.14000959694385529,-9.957134246826172,0,0,44.0,1,1,1995,2060
154.22789000,154227890,1,0.0019720878917723894,-0.0017146245809271932,0.0010352942626923323,-0.48303183913230896,-0.13880634307861328,-9.95708179473877,0,0,44.0,1,1,1995,2060
154.23155500,154231555,1,0.002246512332931161,-0.0006697628414258361,0.0009918089490383863,-0.4755397140979767,-0.13453130424022675,-9.955852508544922,0,0,44.0,1,1,1995,2060
154.23278400,154232784,1,0.0021012064535170794,-0.0002589849173091352,0.0007666126475669444,-0.4735846519470215,-0.13405047357082367,-9.955678939819336,0,0,44.0,1,1,1995,2060
154.23532600,154235326,1,0.0014846037374809384,0.00014817778719589114,0.0008152317604981363,-0.4743203818798065,-0.1328025907278061,-9.95621109008789,0,0,44.0,1,1,1995,2060
154.23792100,154237921,1,0.0008335044258274138,0.00018918397836387157,0.0012109439121559262,-0.47758281230926514,-0.1332511454820633,-9.956191062927246,0,0,44.0,1,1,1995,2060
154.24049100,154240491,1,0.0006665585096925497,0.0004734233662020415,0.0015170932747423649,-0.4825131297111511,-0.13737808167934418,-9.957463264465332,0,0,44.0,1,1,1995,2060
154.24325300,154243253,1,0.0008777686743997037,0.0013094014720991254,0.0012098582228645682,-0.48296672105789185,-0.14400486648082733,-9.961774826049805,0,0,44.0,1,1,1995,2060
154.24533200,154245332,1,0.0009815351804718375,0.0016658413223922253,0.0007405864307656884,-0.47961533069610596,-0.1508835107088089,-9.965685844421387,0,0,44.0,1,1,1995,2060
154.24788400,154247884,1,0.0008256346336565912,0.0016556663904339075,0.000605211069341749,-0.4776182770729065,-0.15361671149730682,-9.969076156616211,0,0,44.0,1,1,1995,2060
154.25033000,154250330,1,0.0004472151049412787,0.0021809935569763184,0.0005215228884480894,-0.4771603047847748,-0.15295785665512085,-9.977683067321777,0,0,44.0,1,1,1995,2060
154.25286000,154252860,1,0.00045522881555370986,0.001811935449950397,0.0005570146604441106,-0.47978225350379944,-0.15046758949756622,-9.988014221191406,0,0,44.0,1,1,1995,2060
154.25573600,154255736,1,0.0012259911745786667,0.0013150210725143552,0.00044091741438023746,-0.4813055396080017,-0.14593127369880676,-9.99187183380127,0,0,44.0,1,1,1995,2060
154.25787300,154257873,1,0.0014303657226264477,0.0009717200882732868,0.00030061733559705317,-0.479800820350647,-0.1432744711637497,-9.99255084991455,0,0,44.0,1,1,1995,2060
154.26039400,154260394,1,0.0015489378711208701,0.0004479108320083469,0.00032865587854757905,-0.4787357747554779,-0.14362592995166779,-9.990523338317871,0,0,44.0,1,1,1995,2060
154.26286800,154262868,1,0.001708853174932301,-0.0005467894370667636,0.0002470733306836337,-0.4783480763435364,-0.14582742750644684,-9.986934661865234,0,0,44.0,1,1,1995,2060
154.26542100,154265421,1,0.001774264732375741,-0.0008833004394546151,0.00018395809456706047,-0.4770766496658325,-0.14641720056533813,-9.984443664550781,0,0,44.0,1,1,1995,2060
154.26828700,154268287,1,0.0017357990145683289,-0.001459159655496478,0.0005250460817478597,-0.47707289457321167,-0.14709608256816864,-9.982675552368164,0,0,44.0,1,1,1995,2060
154.27035300,154270353,1,0.001570318709127605,-0.0016075698658823967,0.0005389518337324262,-0.476790189743042,-0.14749141037464142,-9.979827880859375,0,0,44.0,1,1,1995,2060
154.27280600,154272806,1,0.0022768392227590084,-0.002159012481570244,0.000970075314398855,-0.4777323603630066,-0.14793847501277924,-9.979992866516113,0,0,44.0,1,1,1995,2060
154.27539500,154275395,1,0.0025432046968489885,-0.002153920941054821,0.0009334241622127593,-0.47778159379959106,-0.1483532190322876,-9.979186058044434,0,0,44.0,1,1,1995,2060
154.27782600,154277826,1,0.0019036155426874757,-0.0019105778774246573,0.0008858953369781375,-0.47817710041999817,-0.14975956082344055,-9.975611686706543,0,0,44.0,1,1,1995,2060
154.28148700,154281487,1,0.0019252318888902664,-0.0015098211588338017,0.0010449109831824899,-0.48040077090263367,-0.15056903660297394,-9.973971366882324,0,0,44.0,1,1,1995,2060
154.28282300,154282823,1,0.0012810318730771542,-0.000910203845705837,0.0007027315441519022,-0.48283421993255615,-0.15029118955135345,-9.974696159362793,0,0,44.0,1,1,1995,2060
154.28539200,154285392,1,0.0010238218819722533,-0.0006777675589546561,0.0002726549282670021,-0.48339954018592834,-0.15048325061798096,-9.97370433807373,0,0,44.0,1,1,1995,2060
154.28782600,154287826,1,0.0011350291315466166,-0.0004375093267299235,0.00047738198190927505,-0.48477399349212646,-0.1548002064228058,-9.972505569458008,0,0,44.0,1,1,1995,2060
154.29044200,154290442,1,0.0006654550088569522,0.00011941746197408065,0.0001944092073244974,-0.48781293630599976,-0.1587768942117691,-9.972686767578125,0,0,44.0,1,1,1995,2060
154.29321300,154293213,1,0.0006117411539889872,0.0005038261297158897,-8.628051000414416e-05,-0.4898640513420105,-0.158447727560997,-9.971246719360352,0,0,44.0,1,1,1995,2060
154.29536800,154295368,1,0.0005062388954684138,0.0009703684481792152,-7.807954534655437e-05,-0.4909020960330963,-0.15746429562568665,-9.969669342041016,0,0,44.0,1,1,1995,2060
154.29785200,154297852,1,0.0006496462156064808,0.0008773690205998719,-0.00036037605605088174,-0.49322569370269775,-0.1534879505634308,-9.964052200317383,0,0,44.0,1,1,1995,2060
154.30041800,154300418,1,0.0002715051523409784,0.0005667197983711958,-9.43574013945181e-06,-0.4962887763977051,-0.14867733418941498,-9.956806182861328,0,0,44.0,1,1,1995,2060
154.30282600,154302826,1,2.250087163702119e-06,2.7941379812546074e-05,0.0005235990392975509,-0.49832069873809814,-0.14497235417366028,-9.951457977294922,0,0,44.0,1,1,1995,2060
154.30575100,154305751,1,9.039154974743724e-05,-0.0008798014605417848,0.0005181484157219529,-0.49859604239463806,-0.14531518518924713,-9.946786880493164,0,0,44.0,1,1,1995,2060
154.30782900,154307829,1,-0.00013046331878285855,-0.0018396592931821942,0.0005847921711392701,-0.49936673045158386,-0.14875724911689758,-9.946677207946777,0,0,44.0,1,1,1995,2060
154.31114800,154311148,1,-0.0005389968864619732,-0.0029539638198912144,0.0005488941678777337,-0.5003454685211182,-0.15209078788757324,-9.951742172241211,0,0,44.0,1,1,1995,2060
154.31272300,154312723,1,-0.0009238666971214116,-0.0032461080700159073,0.0008239349699579179,-0.5003920197486877,-0.1540703922510147,-9.953171730041504,0,0,44.0,1,1,1995,2060
154.31535700,154315357,1,-0.0011226816568523645,-0.0029050111770629883,0.0009546334040351212,-0.4991472363471985,-0.15470023453235626,-9.953644752502441,0,0,44.0,1,1,1995,2060
154.31828200,154318282,1,-0.0013052208814769983,-0.003149698255583644,0.001801997423171997,-0.49829423427581787,-0.15370462834835052,-9.952799797058105,0,0,44.0,1,1,1995,2060
154.32033500,154320335,1,-0.0013743700692430139,-0.002908435883000493,0.002204553224146366,-0.4967341423034668,-0.15323588252067566,-9.94733715057373,0,0,44.0,1,1,1995,2060
154.32281400,154322814,1,-0.0008123459992930293,-0.002527028787881136,0.001956753432750702,-0.4942243993282318,-0.1530517041683197,-9.943460464477539,0,0,44.0,1,1,1995,2060
154.32530600,154325306,1,-0.00040628432179801166,-0.0022019005846232176,0.0020403170492500067,-0.4920513331890106,-0.15197399258613586,-9.944403648376465,0,0,44.0,1,1,1995,2060
154.32781300,154327813,1,0.00013274690718390048,-0.0013266453752294183,0.0016277801478281617,-0.4888169765472412,-0.1525602489709854,-9.946723937988281,0,0,44.0,1,1,1995,2060
154.33076600,154330766,1,0.00022927793907001615,-0.0004674260853789747,0.0012384975561872125,-0.4878009557723999,-0.1534082293510437,-9.949599266052246,0,0,44.0,1,1,1995,2060
154.33280600,154332806,1,0.00011045444989576936,-0.0008076520753093064,0.0010334128746762872,-0.4887374937534332,-0.15275870263576508,-9.953197479248047,0,0,44.0,1,1,1995,2060
154.33531300,154335313,1,9.002555452752858e-05,-0.0009600849007256329,0.0004731325607281178,-0.4900808036327362,-0.15167255699634552,-9.95577335357666,0,0,44.0,1,1,1995,2060
154.33781900,154337819,1,0.00018202007049694657,-0.000835572078358382,0.000509287987370044,-0.4936053156852722,-0.14785228669643402,-9.959694862365723,0,0,44.0,1,1,1995,2060
154.34049400,154340494,1,8.115579112200066e-05,-0.0004901276552118361,0.000872370379511267,-0.4941439628601074,-0.1457139551639557,-9.960551261901855,0,0,44.0,1,1,1995,2060
154.34326000,154343260,1,-7.352883403655142e-05,-0.000264903181232512,0.0013429583050310612,-0.4917949140071869,-0.1467975527048111,-9.958171844482422,0,0,44.0,1,1,1995,2060
154.34529700,154345297,1,-5.17034568474628e-05,0.00011630069639068097,0.0012300238013267517,-0.48989567160606384,-0.14788123965263367,-9.954468727111816,0,0,44.0,1,1,1995,2060
154.34782200,154347822,1,0.00024859135737642646,0.0003655036853160709,0.0012651019496843219,-0.48757460713386536,-0.1513373851776123,-9.953079223632812,0,0,44.0,1,1,1995,2060
154.35030600,154350306,1,0.00020138196123298258,0.0002851066237781197,0.0015194531297311187,-0.4840378165245056,-0.15737546980381012,-9.951661109924316,0,0,44.0,1,1,1995,2060
154.35281600,154352816,1,0.0003509490634314716,-0.0006053269025869668,0.002181508345529437,-0.483303040266037,-0.16051851212978363,-9.948123931884766,0,0,44.0,1,1,1995,2060
154.35569100,154355691,1,0.0001816909498302266,-0.0012999976752325892,0.0026488660369068384,-0.4833977520465851,-0.1621188521385193,-9.944476127624512,0,0,44.0,1,1,1995,2060
154.35789700,154357897,1,0.00032279911101795733,-0.0020058494992554188,0.002340546576306224,-0.4848574995994568,-0.16037483513355255,-9.943697929382324,0,0,44.0,1,1,1995,2060
154.36032200,154360322,1,0.0008837993373163044,-0.0027450909838080406,0.0019497598987072706,-0.4843623638153076,-0.1578994244337082,-9.946272850036621,0,0,44.0,1,1,1995,2060
154.36282300,154362823,1,0.0013112620217725635,-0.0030610691756010056,0.001979971770197153,-0.48468321561813354,-0.15624593198299408,-9.951360702514648,0,0,44.0,1,1,1995,2060
154.36531100,154365311,1,0.0013864091597497463,-0.0026390787679702044,0.0022600016091018915,-0.48624974489212036,-0.1545518934726715,-9.953907012939453,0,0,44.0,1,1,1995,2060
154.36819300,154368193,1,0.0009220729116350412,-0.0021791639737784863,0.0018027964979410172,-0.48784494400024414,-0.15584954619407654,-9.954132080078125,0,0,44.0,1,1,1995,2060
154.37033000,154370330,1,0.0005244211643002927,-0.001603254466317594,0.0009353831992484629,-0.4897201955318451,-0.1583213359117508,-9.95681381225586,0,0,44.0,1,1,1995,2060
154.37281300,154372813,1,0.0003984210779890418,-0.001818415941670537,0.0006274409242905676,-0.4912715256214142,-0.1623610407114029,-9.954202651977539,0,0,44.0,1,1,1995,2060
154.37527200,154375272,1,0.0007319959113374352,-0.0015766344731673598,0.0007539400830864906,-0.4940645098686218,-0.16379843652248383,-9.952591896057129,0,0,44.0,1,1,1995,2060
154.37781600,154377816,1,0.0009509625961072743,-0.0014281965559348464,0.0004638809186872095,-0.49643927812576294,-0.1627562940120697,-9.951539039611816,0,0,44.0,1,1,1995,2060
154.38155900,154381559,1,0.0007700022542849183,-0.0010660558473318815,0.0009642622317187488,-0.4994310736656189,-0.16262128949165344,-9.948030471801758,0,0,44.0,1,1,1995,2060
154.38281000,154382810,1,0.0006101157632656395,-0.0011852328898385167,0.0009044475737027824,-0.4992418587207794,-0.1644587218761444,-9.945627212524414,0,0,44.0,1,1,1995,2060
154.38530300,154385303,1,0.00036591716343536973,-0.0007874083239585161,0.0009168676333501935,-0.49680233001708984,-0.16475018858909607,-9.948332786560059,0,0,44.0,1,1,1995,2060
154.38782700,154387827,1,0.00010089403804158792,-0.0004856924351770431,0.00012014387175440788,-0.4963015615940094,-0.16239067912101746,-9.954143524169922,0,0,44.0,1,1,1995,2060
154.39034600,154390346,1,-0.00037583342054858804,-0.0004630561452358961,-0.0007357933209277689,-0.49529069662094116,-0.1589089334011078,-9.961799621582031,0,0,44.0,1,1,1995,2060
154.39410200,154394102,1,-0.0004771646927110851,-0.0008111456991173327,-0.0012533396948128939,-0.4941949248313904,-0.15932084619998932,-9.96547794342041,0,0,44.0,1,1,1995,2060
154.39522900,154395229,1,-0.00021722124074585736,-0.0005727839306928217,-0.001254865201190114,-0.4940342307090759,-0.15783590078353882,-9.969334602355957,0,0,44.0,1,1,1995,2060
154.39781200,154397812,1,4.17503688368015e-05,-0.0005767046241089702,-0.001104149967432022,-0.49156099557876587,-0.1560370773077011,-9.969964981079102,0,0,44.0,1,1,1995,2060
154.40033000,154400330,1,0.0006096716970205307,-0.0009284929255954921,-0.0004629309114534408,-0.48694103956222534,-0.15533940494060516,-9.966212272644043,0,0,44.0,1,1,1995,2060
154.40285300,154402853,1,0.0010180773679167032,-0.0005563830491155386,-0.00019973407324869186,-0.48065459728240967,-0.1542143076658249,-9.960183143615723,0,0,44.0,1,1,1995,2060
154.40573000,154405730,1,0.0017690068343654275,-0.0006581532652489841,0.0003483844338916242,-0.4766102135181427,-0.15015879273414612,-9.954164505004883,0,0,44.0,1,1,1995,2060
154.40780000,154407800,1,0.001974674640223384,-0.0007543567335233092,0.0007087322301231325,-0.4748644530773163,-0.14640618860721588,-9.950815200805664,0,0,44.0,1,1,1995,2060
154.41034800,154410348,1,0.0023366634268313646,-0.0011747087119147182,0.0008764135418459773,-0.4762289524078369,-0.14153797924518585,-9.947487831115723,0,0,44.0,1,1,1995,2060
154.41280100,154412801,1,0.002118458040058613,-0.0016234851209446788,0.0010995928896591067,-0.4768233597278595,-0.13853920996189117,-9.945280075073242,0,0,44.0,1,1,1995,2060
154.41530600,154415306,1,0.002133331261575222,-0.0012157571036368608,0.0008122033905237913,-0.4766139090061188,-0.1390983760356903,-9.942657470703125,0,0,44.0,1,1,1995,2060
154.41819200,154418192,1,0.0022839249577373266,-0.0011562254512682557,0.0002829775621648878,-0.4783637523651123,-0.14234426617622375,-9.941875457763672,0,0,44.0,1,1,1995,2060
154.42036800,154420368,1,0.0021335354540497065,-0.0009846669854596257,-1.5410303603857756e-05,-0.4811137318611145,-0.142802432179451,-9.943451881408691,0,0,44.0,1,1,1995,2060
154.42282000,154422820,1,0.001769569586031139,-0.0008867262513376772,-0.00019426881044637412,-0.4860212504863739,-0.14385798573493958,-9.944986343383789,0,0,44.0,1,1,1995,2060
154.42536900,154425369,1,0.001988393720239401,-0.00101821671705693,-0.0005148000782355666,-0.4894499182701111,-0.14340220391750336,-9.94849967956543,0,0,44.0,1,1,1995,2060
154.42778000,154427780,1,0.0018370505422353745,-0.0006518589798361063,3.484754415694624e-05,-0.4952341318130493,-0.143353670835495,-9.95460319519043,0,0,44.0,1,1,1995,2060
154.43066900,154430669,1,0.0019589485600590706,-0.0006707306019961834,0.00034397505805827677,-0.4990338087081909,-0.1442287117242813,-9.960850715637207,0,0,44.0,1,1,1995,2060
154.43283500,154432835,1,0.0019041637424379587,-0.0004971566959284246,0.0002803015522658825,-0.5012784600257874,-0.14588996767997742,-9.96562385559082,0,0,44.0,1,1,1995,2060
154.43534400,154435344,1,0.0017557198880240321,-0.0005828235880471766,0.0003682323731482029,-0.5021377801895142,-0.1498662233352661,-9.96334171295166,0,0,44.0,1,1,1995,2060
154.43780700,154437807,1,0.0015366289298981428,-0.0006643874221481383,0.0007267053006216884,-0.4997001886367798,-0.15116150677204132,-9.959259033203125,0,0,44.0,1,1,1995,2060
154.44043000,154440430,1,0.0014370823046192527,-0.0008771753055043519,0.0009288052096962929,-0.49356549978256226,-0.15084603428840637,-9.955415725708008,0,0,44.0,1,1,1995,2060
154.44328400,154443284,1,0.0008078867103904486,-0.0006226198165677488,0.0007203312125056982,-0.4877336323261261,-0.1479123830795288,-9.951035499572754,0,0,44.0,1,1,1995,2060
154.44531300,154445313,1,0.0005884193815290928,-2.5050469048437662e-05,0.0009278850629925728,-0.48292770981788635,-0.14927197992801666,-9.945637702941895,0,0,44.0,1,1,1995,2060
154.44785600,154447856,1,0.000672269961796701,-4.387067019706592e-05,0.0007352421525865793,-0.4793543815612793,-0.15285691618919373,-9.943302154541016,0,0,44.0,1,1,1995,2060
154.45031200,154450312,1,0.0008270640391856432,-0.000511915422976017,0.0003227932611480355,-0.47927141189575195,-0.1547231525182724,-9.943940162658691,0,0,44.0,1,1,1995,2060
154.45281500,154452815,1,0.001068212790414691,-0.0007413296261802316,0.0005352389416657388,-0.4784942865371704,-0.15313225984573364,-9.9457368850708,0,0,44.0,1,1,1995,2060
154.45599400,154455994,1,0.0013678729301318526,-0.001483568106777966,0.0009333367925137281,-0.4783303141593933,-0.15066617727279663,-9.945383071899414,0,0,44.0,1,1,1995,2060
154.45802800,154458028,1,0.0017976292874664068,-0.0018524471670389175,0.0008448049193248153,-0.4821605384349823,-0.14838972687721252,-9.9467191696167,0,0,44.0,1,1,1995,2060
154.46032900,154460329,1,0.00197584368288517,-0.0018630384001880884,0.000995627953670919,-0.48886412382125854,-0.14833663403987885,-9.949040412902832,0,0,44.0,1,1,1995,2060
154.46281200,154462812,1,0.001381021342240274,-0.0020747827365994453,0.0007947855046950281,-0.49252745509147644,-0.1496325135231018,-9.952594757080078,0,0,44.0,1,1,1995,2060
154.46533500,154465335,1,0.0012619785265997052,-0.0015859674895182252,0.0008217889699153602,-0.49549275636672974,-0.14963310956954956,-9.955083847045898,0,0,44.0,1,1,1995,2060
154.46819300,154468193,1,0.0010817731963470578,-0.001197973033413291,0.00040188501589000225,-0.49535080790519714,-0.14883561432361603,-9.9553804397583,0,0,44.0,1,1,1995,2060
154.47034200,154470342,1,0.0009471233934164047,-0.001403123140335083,0.0012488430365920067,-0.4946150779724121,-0.1490398794412613,-9.955697059631348,0,0,44.0,1,1,1995,2060
154.47366900,154473669,1,0.0006029936484992504,-0.0017139071132987738,0.0015603433130308986,-0.4959274232387543,-0.14853332936763763,-9.958211898803711,0,0,44.0,1,1,1995,2060
154.47532000,154475320,1,0.0002950610942207277,-0.0016265352023765445,0.0016158348880708218,-0.4971277713775635,-0.14771075546741486,-9.96193790435791,0,0,44.0,1,1,1995,2060
154.47782000,154477820,1,-7.678935071453452e-05,-0.0019600405357778072,0.0017614047974348068,-0.4978674054145813,-0.14883865416049957,-9.965551376342773,0,0,44.0,1,1,1995,2060
154.48139800,154481398,1,-0.0001106655690819025,-0.0022908616811037064,0.0018075929256156087,-0.5009978413581848,-0.14891619980335236,-9.966495513916016,0,0,44.0,1,1,1995,2060
154.48281200,154482812,1,0.00027257733745500445,-0.0027036394458264112,0.0014069300377741456,-0.503974974155426,-0.14727172255516052,-9.966222763061523,0,0,44.0,1,1,1995,2060
154.48530200,154485302,1,0.0002336782490601763,-0.002442292869091034,0.0010780513985082507,-0.50621497631073,-0.14337435364723206,-9.96675968170166,0,0,44.0,1,1,1995,2060
154.48786600,154487866,1,0.00031716475496068597,-0.002430461347103119,0.0011421962408348918,-0.504905104637146,-0.1405154913663864,-9.969644546508789,0,0,44.0,1,1,1995,2060
154.49039800,154490398,1,0.0004927944974042475,-0.0024910434149205685,0.00111338309943676,-0.5024206638336182,-0.1390698403120041,-9.970181465148926,0,0,44.0,1,1,1995,2060
154.49326600,154493266,1,0.0002816626220010221,-0.002270056400448084,0.0010754077229648829,-0.5020435452461243,-0.13714873790740967,-9.970437049865723,0,0,44.0,1,1,1995,2060
154.49533600,154495336,1,0.00014347101387102157,-0.002115488052368164,0.0009341675322502851,-0.49968308210372925,-0.13612304627895355,-9.970669746398926,0,0,44.0,1,1,1995,2060
154.49782900,154497829,1,-1.7817503248807043e-05,-0.002275296254083514,0.0013398807495832443,-0.496357262134552,-0.13523264229297638,-9.970342636108398,0,0,44.0,1,1,1995,2060
154.50039000,154500390,1,0.00029412118601612747,-0.0022654945496469736,0.0016673984937369823,-0.4946344494819641,-0.13329075276851654,-9.967085838317871,0,0,44.0,1,1,1995,2060
154.50285200,154502852,1,0.0007740463479422033,-0.001935014151968062,0.0009052827372215688,-0.4957602024078369,-0.13436837494373322,-9.964025497436523,0,0,44.0,1,1,1995,2060
154.50567400,154505674,1,0.0004403005004860461,-0.001985547598451376,0.0013779536820948124,-0.49744054675102234,-0.13654151558876038,-9.961691856384277,0,0,44.0,1,1,1995,2060
154.50786900,154507869,1,0.0002974348608404398,-0.0022482960484921932,0.0011909690219908953,-0.49878740310668945,-0.13970142602920532,-9.958586692810059,0,0,44.0,1,1,1995,2060
154.51031700,154510317,1,0.000683063524775207,-0.0016786588821560144,0.0007739130523987114,-0.49811896681785583,-0.14439430832862854,-9.9554443359375,0,0,44.0,1,1,1995,2060
154.51285100,154512851,1,0.0008377679041586816,-0.0009408884798176587,0.0008932992350310087,-0.4976634681224823,-0.14929448068141937,-9.952901840209961,0,0,44.0,1,1,1995,2060
154.51536000,154515360,1,0.0005956664681434631,-0.00016921362839639187,0.0006524311029352248,-0.4964776337146759,-0.15136176347732544,-9.951226234436035,0,0,44.0,1,1,1995,2060
154.51823600,154518236,1,0.00044046947732567787,0.00019277617684565485,0.0012106273788958788,-0.4967692792415619,-0.1518612951040268,-9.951102256774902,0,0,44.0,1,1,1995,2060
154.52034100,154520341,1,0.0007200197433121502,0.00018611982522998005,0.0009476825362071395,-0.4945763945579529,-0.15442386269569397,-9.953522682189941,0,0,44.0,1,1,1995,2060
154.52285400,154522854,1,0.0008992216899059713,-0.0001477575278840959,0.0006802658317610621,-0.4935057461261749,-0.15726733207702637,-9.960894584655762,0,0,44.0,1,1,1995,2060
154.52536800,154525368,1,0.0016492921859025955,-0.00023152401263359934,-0.00013159368245396763,-0.49227219820022583,-0.16022254526615143,-9.967259407043457,0,0,44.0,1,1,1995,2060
154.52784900,154527849,1,0.0021448831539601088,0.00026559451362118125,2.6860290745389648e-05,-0.4925696551799774,-0.16409634053707123,-9.970002174377441,0,0,44.0,1,1,1995,2060
154.53067400,154530674,1,0.0023128315806388855,0.00043178530177101493,-1.955554762389511e-05,-0.49592524766921997,-0.16635283827781677,-9.972729682922363,0,0,44.0,1,1,1995,2060
154.53280100,154532801,1,0.0020822451915591955,9.425567259313539e-05,0.0003080159076489508,-0.4990307688713074,-0.1644216626882553,-9.975926399230957,0,0,44.0,1,1,1995,2060
154.53533800,154535338,1,0.0018377485685050488,-0.00022768786584492773,0.000730565341655165,-0.49822694063186646,-0.16017892956733704,-9.97925090789795,0,0,44.0,1,1,1995,2060
154.53782900,154537829,1,0.0010945795802399516,0.00012764084385707974,0.0008360731299035251,-0.49627137184143066,-0.15564709901809692,-9.981457710266113,0,0,44.0,1,1,1995,2060
154.54041100,154540411,1,0.000999589217826724,-0.00027668586699292064,0.001188459456898272,-0.4959234893321991,-0.15042349696159363,-9.983000755310059,0,0,44.0,1,1,1995,2060
154.54317300,154543173,1,0.0008340714848600328,-0.00025222115800715983,0.0009447780321352184,-0.49517622590065,-0.14475402235984802,-9.984137535095215,0,0,44.0,1,1,1995,2060
154.54530700,154545307,1,0.0007989972364157438,-0.0003813637886196375,0.0007510806899517775,-0.4948824346065521,-0.14184018969535828,-9.985703468322754,0,0,44.0,1,1,1995,2060
154.54780900,154547809,1,0.0008427040884271264,-0.0007530269213020802,0.0003867386549245566,-0.4958651065826416,-0.1407681554555893,-9.98511028289795,0,0,44.0,1,1,1995,2060
154.55037700,154550377,1,0.0008878607768565416,-0.0004233039217069745,0.0008536801324225962,-0.4985993504524231,-0.1414441615343094,-9.982582092285156,0,0,44.0,1,1,1995,2060
154.55281600,154552816,1,0.0013296501711010933,-0.0009589073015376925,0.00146410649176687,-0.4967885911464691,-0.14597274363040924,-9.978185653686523,0,0,44.0,1,1,1995,2060
154.55656000,154556560,1,0.0020913102198392153,-0.0009135123109444976,0.00123827054630965,-0.49068424105644226,-0.1502930223941803,-9.967957496643066,0,0,44.0,1,1,1995,2060
154.55776600,154557766,1,0.0025695208460092545,-0.0010776299750432372,0.0011279673781245947,-0.4863087236881256,-0.152241051197052,-9.959589958190918,0,0,44.0,1,1,1995,2060
154.56034600,154560346,1,0.002672265050932765,-0.000829787109978497,0.0005847150459885597,-0.4832250773906708,-0.15326228737831116,-9.954641342163086,0,0,44.0,1,1,1995,2060
154.56283000,154562830,1,0.002756584668532014,-0.00038631586357951164,0.0006951679242774844,-0.48071587085723877,-0.15350115299224854,-9.950743675231934,0,0,44.0,1,1,1995,2060
154.56528000,154565280,1,0.0029587934259325266,0.0003967690281569958,0.0013199192471802235,-0.478453129529953,-0.15323208272457123,-9.94651985168457,0,0,44.0,1,1,1995,2060
154.56816100,154568161,1,0.0033936016261577606,0.0010764203034341335,0.0014539952389895916,-0.4776920676231384,-0.1520152986049652,-9.943075180053711,0,0,44.0,1,1,1995,2060
154.57032500,154570325,1,0.0032860436476767063,0.0018161142943426967,0.0018857893301174045,-0.47691789269447327,-0.15097080171108246,-9.942495346069336,0,0,44.0,1,1,1995,2060
154.57280000,154572800,1,0.0031570044811815023,0.0017710240790620446,0.001979693304747343,-0.4772378206253052,-0.14946509897708893,-9.938880920410156,0,0,44.0,1,1,1995,2060
154.57531300,154575313,1,0.0026228397618979216,0.0018057735869660974,0.0018545840866863728,-0.480206698179245,-0.14849863946437836,-9.933897018432617,0,0,44.0,1,1,1995,2060
154.57782300,154577823,1,0.0023735493887215853,0.0024399827234447002,0.0008149804780259728,-0.4827447533607483,-0.15000568330287933,-9.932153701782227,0,0,44.0,1,1,1995,2060
154.58141900,154581419,1,0.0015455756802111864,0.0030960498843342066,-0.00022968226403463632,-0.4831591546535492,-0.15122735500335693,-9.934839248657227,0,0,44.0,1,1,1995,2060
154.58285300,154582853,1,0.0006226514815352857,0.003120850771665573,-0.00048238009912893176,-0.48408517241477966,-0.152165025472641,-9.938803672790527,0,0,44.0,1,1,1995,2060
154.58533200,154585332,1,-5.134778257342987e-05,0.0022916418965905905,-0.0004669692716561258,-0.4855911135673523,-0.15376900136470795,-9.93919563293457,0,0,44.0,1,1,1995,2060
154.58782700,154587827,1,-0.000676484836731106,0.0017120963893830776,0.00032046870910562575,-0.484969824552536,-0.15452972054481506,-9.937554359436035,0,0,44.0,1,1,1995,2060
154.59035500,154590355,1,-0.0010272795334458351,0.0010000960901379585,0.000297524529742077,-0.48083752393722534,-0.15403731167316437,-9.939889907836914,0,0,44.0,1,1,1995,2060
154.59317800,154593178,1,-0.0015504779294133186,0.0008012004545889795,0.0006775484071113169,-0.48037999868392944,-0.15575291216373444,-9.944150924682617,0,0,44.0,1,1,1995,2060
154.59530400,154595304,1,-0.0019655374344438314,0.0001390915858792141,0.0008601879235357046,-0.4817282557487488,-0.15712040662765503,-9.951529502868652,0,0,44.0,1,1,1995,2060
154.59783900,154597839,1,-0.0017374898307025433,-0.00014344821101985872,0.0013274315278977156,-0.48484960198402405,-0.15556985139846802,-9.960375785827637,0,0,44.0,1,1,1995,2060
154.60032800,154600328,1,-0.0017487661680206656,0.0004793503612745553,0.0020597707480192184,-0.4887424409389496,-0.15312545001506805,-9.970879554748535,0,0,44.0,1,1,1995,2060
154.60282400,154602824,1,-0.0019205899443477392,-1.2791867447958793e-05,0.0016587983118370175,-0.48914626240730286,-0.15067575871944427,-9.97589111328125,0,0,44.0,1,1,1995,2060
154.60580400,154605804,1,-0.0020733193960040808,-0.0006091857794672251,0.001443370245397091,-0.4855861961841583,-0.14585155248641968,-9.97693157196045,0,0,44.0,1,1,1995,2060
154.60780700,154607807,1,-0.002115073148161173,-0.000759356829803437,0.0008507908205501735,-0.4812525510787964,-0.1434464305639267,-9.975055694580078,0,0,44.0,1,1,1995,2060
154.61027700,154610277,1,-0.002059467602521181,-0.0010836587753146887,0.0003674638574011624,-0.4773026704788208,-0.1440802812576294,-9.972687721252441,0,0,44.0,1,1,1995,2060
154.61281900,154612819,1,-0.0015596392331644893,-0.0009829493938013911,-0.0007420568726956844,-0.4750349819660187,-0.14672118425369263,-9.96725845336914,0,0,44.0,1,1,1995,2060
154.61531200,154615312,1,-0.0011151506332680583,-0.0007391641265712678,-0.0018189786933362484,-0.4752289652824402,-0.14938290417194366,-9.962851524353027,0,0,44.0,1,1,1995,2060
154.61822600,154618226,1,-0.00029082014225423336,-0.0015826263697817922,-0.00170048326253891,-0.4793800711631775,-0.1519613265991211,-9.95949935913086,0,0,44.0,1,1,1995,2060
154.62033100,154620331,1,0.00048773729940876365,-0.0028797462582588196,-0.0011580802965909243,-0.48510727286338806,-0.15424251556396484,-9.955948829650879,0,0,44.0,1,1,1995,2060
154.62285900,154622859,1,0.00028528590337373316,-0.0029084773268550634,-0.0009835861856117845,-0.4912016987800598,-0.15507948398590088,-9.95784854888916,0,0,44.0,1,1,1995,2060
154.62531500,154625315,1,3.392808503122069e-05,-0.002599974861368537,-0.00026952402549795806,-0.49493783712387085,-0.15428312122821808,-9.95878791809082,0,0,44.0,1,1,1995,2060
154.62786600,154627866,1,-0.00025482833734713495,-0.002620905637741089,0.00014543476572725922,-0.49620428681373596,-0.153618723154068,-9.959518432617188,0,0,44.0,1,1,1995,2060
154.63079300,154630793,1,-0.00016592587053310126,-0.002513046143576503,0.0004757591523230076,-0.4949497878551483,-0.1529456079006195,-9.959800720214844,0,0,44.0,1,1,1995,2060
154.63281600,154632816,1,9.408665391674731e-06,-0.0022993721067905426,0.000936175521928817,-0.49273043870925903,-0.1523837149143219,-9.961268424987793,0,0,44.0,1,1,1995,2060
154.63614000,154636140,1,0.0002553762460593134,-0.0020842552185058594,0.000876709062140435,-0.48937514424324036,-0.1552199125289917,-9.962340354919434,0,0,44.0,1,1,1995,2060
154.63769700,154637697,1,0.00045917514944449067,-0.0022237575612962246,0.0006892538513056934,-0.48722875118255615,-0.15618346631526947,-9.960647583007812,0,0,44.0,1,1,1995,2060
154.64044100,154640441,1,0.0005747532122768462,-0.0026527922600507736,0.0012198626063764095,-0.4850190281867981,-0.15308892726898193,-9.957157135009766,0,0,44.0,1,1,1995,2060
154.64317400,154643174,1,0.0009482587920501828,-0.003117198357358575,0.0015419182600453496,-0.4846556782722473,-0.14999453723430634,-9.956811904907227,0,0,44.0,1,1,1995,2060
154.64532900,154645329,1,0.000943619932513684,-0.003295420203357935,0.0011777065228670835,-0.48737025260925293,-0.1464860588312149,-9.959651947021484,0,0,44.0,1,1,1995,2060
154.64784900,154647849,1,0.0008956417441368103,-0.002906765788793564,0.001005082973279059,-0.49065905809402466,-0.14263775944709778,-9.962861061096191,0,0,44.0,1,1,1995,2060
154.65033200,154650332,1,0.001649582525715232,-0.002330019138753414,0.0003878609277307987,-0.49337178468704224,-0.13948330283164978,-9.96412467956543,0,0,44.0,1,1,1995,2060
154.65281300,154652813,1,0.0019912964198738337,-0.0018093630205839872,0.000600512430537492,-0.4931899309158325,-0.13876450061798096,-9.965499877929688,0,0,44.0,1,1,1995,2060
154.65583300,154655833,1,0.0023249045480042696,-0.00144953653216362,0.0004193908243905753,-0.4905523359775543,-0.1406339704990387,-9.963723182678223,0,0,44.0,1,1,1995,2060
154.65780100,154657801,1,0.0022180264350026846,-0.001339517766609788,-3.5614328226074576e-05,-0.4911057651042938,-0.1424197554588318,-9.964597702026367,0,0,44.0,1,1,1995,2060
154.66037300,154660373,1,0.0019722608849406242,-0.0006155764567665756,-0.0005121127469465137,-0.4948594570159912,-0.14380963146686554,-9.965531349182129,0,0,44.0,1,1,1995,2060
154.66280600,154662806,1,0.0014840074582025409,0.0004498107300605625,-0.0005129526252858341,-0.49779513478279114,-0.14423523843288422,-9.966947555541992,0,0,44.0,1,1,1995,2060
154.66537400,154665374,1,0.0009312889887951314,0.0005140323773957789,-0.00040684599662199616,-0.49808549880981445,-0.14532329142093658,-9.967087745666504,0,0,44.0,1,1,1995,2060
154.66822500,154668225,1,0.0005596407572738826,0.0006319638341665268,-0.0003553937713149935,-0.49730873107910156,-0.14717841148376465,-9.967976570129395,0,0,44.0,1,1,1995,2060
154.67031800,154670318,1,0.0005906405858695507,0.00035776232834905386,-0.00040778599213808775,-0.4939122498035431,-0.15214230120182037,-9.969854354858398,0,0,44.0,1,1,1995,2060
154.67282000,154672820,1,0.0009056672570295632,0.00019982554658781737,-0.00013303061132319272,-0.48917582631111145,-0.1553867906332016,-9.966465950012207,0,0,44.0,1,1,1995,2060
154.67536600,154675366,1,0.0008551154751330614,0.00027210405096411705,8.903015259420499e-05,-0.4857311546802521,-0.1567533314228058,-9.961323738098145,0,0,44.0,1,1,1995,2060
154.67781500,154677815,1,0.0005070827319286764,0.0009336305083706975,0.0011057801311835647,-0.4833545982837677,-0.1585577428340912,-9.957555770874023,0,0,44.0,1,1,1995,2060
154.68141300,154681413,1,0.00020403317466843873,0.0008309441618621349,0.0007667261525057256,-0.47892042994499207,-0.1582019180059433,-9.955754280090332,0,0,44.0,1,1,1995,2060
154.68281700,154682817,1,2.326451794942841e-05,0.0005178729188628495,-0.00014833018940407783,-0.4751848876476288,-0.1577325314283371,-9.954120635986328,0,0,44.0,1,1,1995,2060
154.68531500,154685315,1,-0.00011609742068685591,-0.00023532772320322692,-0.0004475899040699005,-0.4742843210697174,-0.15605247020721436,-9.95335578918457,0,0,44.0,1,1,1995,2060
154.68785000,154687850,1,0.00013396312715485692,-0.0009383231517858803,-0.0007316531846299767,-0.47961103916168213,-0.1537650227546692,-9.955633163452148,0,0,44.0,1,1,1995,2060
154.69039500,154690395,1,0.00017628027126193047,-0.0014854591572657228,-8.982174222182948e-06,-0.4858286380767822,-0.15362265706062317,-9.956002235412598,0,0,44.0,1,1,1995,2060
154.69327000,154693270,1,1.8774499039864168e-06,-0.0013019997859373689,0.0007563050603494048,-0.4900398254394531,-0.15564177930355072,-9.959399223327637,0,0,44.0,1,1,1995,2060
154.69531900,154695319,1,0.0002460504765622318,-0.0019795966800302267,0.001488091773353517,-0.4916290044784546,-0.1565772145986557,-9.96525764465332,0,0,44.0,1,1,1995,2060
154.69785500,154697855,1,0.0002237067383248359,-0.0023742271587252617,0.0014104577712714672,-0.49165013432502747,-0.15885499119758606,-9.96817684173584,0,0,44.0,1,1,1995,2060
154.70032900,154700329,1,0.00027950957883149385,-0.002079421654343605,0.0019083074294030666,-0.49167686700820923,-0.16167311370372772,-9.97024154663086,0,0,44.0,1,1,1995,2060
154.70281500,154702815,1,0.0002542849106248468,-0.0021187388338148594,0.002286092145368457,-0.4928850829601288,-0.16319327056407928,-9.968463897705078,0,0,44.0,1,1,1995,2060
154.70579200,154705792,1,0.00014469328743871301,-0.0019326332258060575,0.0026270258240401745,-0.49403342604637146,-0.16283312439918518,-9.971769332885742,0,0,44.0,1,1,1995,2060
154.70782100,154707821,1,0.00025101014762185514,-0.0019362930906936526,0.002490297192707658,-0.49622905254364014,-0.15901824831962585,-9.973217010498047,0,0,44.0,1,1,1995,2060
154.71035400,154710354,1,-0.0002725553058553487,-0.0014070662437006831,0.0019558859057724476,-0.4948335587978363,-0.15888641774654388,-9.968771934509277,0,0,44.0,1,1,1995,2060
154.71282500,154712825,1,6.186137034092098e-05,-0.00022773262753617018,0.0017693877452984452,-0.4936213493347168,-0.16036859154701233,-9.96401596069336,0,0,44.0,1,1,1995,2060
154.71639800,154716398,1,0.00022640448878519237,0.00018423280562274158,0.0014800779754295945,-0.49172282218933105,-0.16004414856433868,-9.963804244995117,0,0,44.0,1,1,1995,2060
154.71807600,154718076,1,0.0002463064738549292,0.0002659464080352336,0.001462610554881394,-0.48995140194892883,-0.1596367508172989,-9.964447975158691,0,0,44.0,1,1,1995,2060
154.72032900,154720329,1,0.0002547856711316854,0.0005301368073560297,0.0015518608270213008,-0.4914642572402954,-0.15812109410762787,-9.965201377868652,0,0,44.0,1,1,1995,2060
154.72281600,154722816,1,0.0006506515201181173,0.00042398006189614534,0.0009267032728530467,-0.49454861879348755,-0.15871043503284454,-9.96809196472168,0,0,44.0,1,1,1995,2060
154.72534100,154725341,1,0.0010103150270879269,0.00027879871777258813,0.0008346682880073786,-0.49532827734947205,-0.15997914969921112,-9.968796730041504,0,0,44.0,1,1,1995,2060
154.72797500,154727975,1,0.0011880086967721581,-3.2295861274178606e-06,0.0004436832678038627,-0.49444329738616943,-0.16134952008724213,-9.96694564819336,0,0,44.0,1,1,1995,2060
154.73051500,154730515,1,0.001172462129034102,3.0971648811828345e-05,0.0005374535103328526,-0.49457260966300964,-0.1610909402370453,-9.963997840881348,0,0,44.0,1,1,1995,2060
154.73281200,154732812,1,0.0007762790773995221,7.04609919921495e-05,0.0006904447800479829,-0.49292612075805664,-0.16073919832706451,-9.963547706604004,0,0,44.0,1,1,1995,2060
154.73532900,154735329,1,0.000707869476173073,6.975243013584986e-05,0.00061492167878896,-0.4929617941379547,-0.1557358205318451,-9.965765953063965,0,0,44.0,1,1,1995,2060
154.73785800,154737858,1,0.0011319622863084078,0.00014326427481137216,0.0009118877351284027,-0.49306192994117737,-0.1497647762298584,-9.967680931091309,0,0,44.0,1,1,1995,2060
154.74064700,154740647,1,0.0016658008098602295,-3.355344233568758e-05,0.0010137661593034863,-0.4914856255054474,-0.14577162265777588,-9.966618537902832,0,0,44.0,1,1,1995,2060
154.74297700,154742977,1,0.0011615990661084652,-0.00019435877038631588,0.0012277821078896523,-0.4887475371360779,-0.14451101422309875,-9.965014457702637,0,0,44.0,1,1,1995,2060
