timestamp,TimeUS,I,GyrX,GyrY,GyrZ,AccX,AccY,AccZ,EG,EA,T,GH,AH,GHz,AHz
149.84637900,149846379,1,-0.0021062977612018585,-0.0022880148608237505,0.0014659633161500096,-0.49611181020736694,-0.14376255869865417,-9.949853897094727,32,1,44.0,0,0,2026,1974
149.84797700,149847977,1,-0.0021062963642179966,-0.0022880148608237505,0.0014659633161500096,-0.49611181020736694,-0.14376255869865417,-9.949853897094727,32,1,44.0,0,0,2026,1974
149.85042200,149850422,1,-0.002106297295540571,-0.002288013929501176,0.0014659633161500096,-0.49611181020736694,-0.14376255869865417,-9.949853897094727,32,1,44.0,0,0,2026,1974
149.85291300,149852913,1,-0.0021062977612018585,-0.002288015326485038,0.0014659633161500096,-0.49611181020736694,-0.14376255869865417,-9.949853897094727,32,1,44.0,0,0,2026,1974
149.85598500,149855985,1,-0.0021062963642179966,-0.0022880136966705322,0.0014659633161500096,-0.49611181020736694,-0.14376255869865417,-9.949853897094727,32,1,44.0,0,0,2026,1974
149.85790900,149857909,1,-0.0021062977612018585,-0.002288015093654394,0.0014659633161500096,-0.49611181020736694,-0.14376255869865417,-9.949853897094727,32,1,44.0,0,0,2026,1974
149.86040900,149860409,1,-0.0021062963642179966,-0.0022880148608237505,0.0014659633161500096,-0.49611181020736694,-0.14376255869865417,-9.949853897094727,32,1,44.0,0,0,2026,1974
149.86291400,149862914,1,-0.002106297528371215,-0.0022880141623318195,0.0014659633161500096,-0.49611181020736694,-0.14376255869865417,-9.949853897094727,32,1,44.0,0,0,2026,1974
149.86541600,149865416,1,-0.002106296829879284,-0.002288015093654394,0.0014659633161500096,-0.49611181020736694,-0.14376255869865417,-9.949853897094727,32,1,44.0,0,0,2026,1974
149.86840700,149868407,1,-0.002106296829879284,-0.0022880136966705322,0.0014659633161500096,-0.49611181020736694,-0.14376255869865417,-9.949853897094727,32,1,44.0,0,0,2026,1974
149.87041600,149870416,1,-0.0021062977612018585,-0.002288015326485038,0.0014659633161500096,-0.49611181020736694,-0.14376255869865417,-9.949853897094727,32,1,44.0,0,0,2026,1974
149.87292700,149872927,1,-0.0021062963642179966,-0.0022880141623318195,0.0014659633161500096,-0.49611181020736694,-0.14376255869865417,-9.949853897094727,32,1,44.0,0,0,2026,1974
149.87545000,149875450,1,-0.0021062977612018585,-0.0022880148608237505,0.0014659633161500096,-0.49611181020736694,-0.14376255869865417,-9.949853897094727,32,1,44.0,0,0,2026,1974
149.87790900,149877909,1,-0.0021062963642179966,-0.0022880148608237505,0.0014659633161500096,-0.49611181020736694,-0.14376255869865417,-9.949853897094727,32,1,44.0,0,0,2026,1974
149.88084900,149880849,1,-0.002106296829879284,-0.0022880136966705322,0.0014659633161500096,-0.49611181020736694,-0.14376255869865417,-9.949853897094727,32,1,44.0,0,0,2026,1974
149.88293200,149882932,1,-0.002106297295540571,-0.002288015326485038,0.0014659633161500096,-0.49611181020736694,-0.14376255869865417,-9.949853897094727,32,1,44.0,0,0,2026,1974
149.88541700,149885417,1,-0.0021062963642179966,-0.0022880136966705322,0.0014659633161500096,-0.49611181020736694,-0.14376255869865417,-9.949853897094727,32,1,44.0,0,0,2026,1974
149.88790800,149887908,1,-0.0021062977612018585,-0.002288015093654394,0.0014659633161500096,-0.49611181020736694,-0.14376255869865417,-9.949853897094727,32,1,44.0,0,0,2026,1974
149.89042400,149890424,1,-0.0021062963642179966,-0.0022880141623318195,0.0014659633161500096,-0.49611181020736694,-0.14376255869865417,-9.949853897094727,32,1,44.0,0,0,2026,1974
149.89377400,149893774,1,-0.002106297295540571,-0.002288013929501176,0.0014659633161500096,-0.49611181020736694,-0.14376255869865417,-9.949853897094727,32,1,44.0,0,0,2026,1974
149.89544300,149895443,1,-0.002106296829879284,-0.002288015093654394,0.0014659633161500096,-0.49611181020736694,-0.14376255869865417,-9.949853897094727,32,1,44.0,0,0,2026,1974
149.89791200,149897912,1,-0.002106296829879284,-0.0022880136966705322,0.0014659633161500096,-0.49611181020736694,-0.14376255869865417,-9.949853897094727,32,1,44.0,0,0,2026,1974
149.90043100,149900431,1,-0.0021062977612018585,-0.002288015093654394,0.0014659633161500096,-0.49611181020736694,-0.14376255869865417,-9.949853897094727,32,1,44.0,0,0,2026,1974
149.90292000,149902920,1,-0.002106296131387353,-0.002288013929501176,0.0014659633161500096,-0.49611181020736694,-0.14376255869865417,-9.949853897094727,32,1,44.0,0,0,2026,1974
149.90612300,149906123,1,-0.002106297528371215,-0.0022880141623318195,0.0014659633161500096,-0.49611181020736694,-0.14376255869865417,-9.949853897094727,32,1,44.0,0,0,2026,1974
149.90790800,149907908,1,-0.0021062963642179966,-0.0022880148608237505,0.0014659633161500096,-0.49611181020736694,-0.14376255869865417,-9.949853897094727,32,1,44.0,0,0,2026,1974
149.91041800,149910418,1,-0.002106297295540571,-0.002288013929501176,0.0014659633161500096,-0.49611181020736694,-0.14376255869865417,-9.949853897094727,32,1,44.0,0,0,2026,1974
149.91298700,149912987,1,-0.0021062977612018585,-0.002288015326485038,0.0014659633161500096,-0.49611181020736694,-0.14376255869865417,-9.949853897094727,32,1,44.0,0,0,2026,1974
149.91543100,149915431,1,-0.0021062963642179966,-0.0022880136966705322,0.0014659633161500096,-0.49611181020736694,-0.14376255869865417,-9.949853897094727,32,1,44.0,0,0,2026,1974
149.91830000,149918300,1,-0.0021062977612018585,-0.002288015093654394,0.0014659633161500096,-0.49611181020736694,-0.14376255869865417,-9.949853897094727,32,1,44.0,0,0,2026,1974
149.92040600,149920406,1,-0.0021062963642179966,-0.0022880148608237505,0.0014659633161500096,-0.49611181020736694,-0.14376255869865417,-9.949853897094727,32,1,44.0,0,0,2026,1974
149.92294000,149922940,1,-0.002106297528371215,-0.0022880141623318195,0.0014659633161500096,-0.49611181020736694,-0.14376255869865417,-9.949853897094727,32,1,44.0,0,0,2026,1974
149.92537100,149925371,1,-0.002106296829879284,-0.002288015093654394,0.0014659633161500096,-0.49611181020736694,-0.14376255869865417,-9.949853897094727,32,1,44.0,0,0,2026,1974
149.92793800,149927938,1,-0.002106296829879284,-0.0022880136966705322,0.0014659633161500096,-0.49611181020736694,-0.14376255869865417,-9.949853897094727,32,1,44.0,0,0,2026,1974
149.93084500,149930845,1,-0.0021062977612018585,-0.002288015326485038,0.0014659633161500096,-0.49611181020736694,-0.14376255869865417,-9.949853897094727,32,1,44.0,0,0,2026,1974
149.93293800,149932938,1,-0.0021062963642179966,-0.0022880141623318195,0.0014659633161500096,-0.49611181020736694,-0.14376255869865417,-9.949853897094727,32,1,44.0,0,0,2026,1974
149.93544100,149935441,1,-0.0021062977612018585,-0.0022880148608237505,0.0014659633161500096,-0.49611181020736694,-0.14376255869865417,-9.949853897094727,32,1,44.0,0,0,2026,1974
149.93790600,149937906,1,-0.0021062963642179966,-0.0022880148608237505,0.0014659633161500096,-0.49611181020736694,-0.14376255869865417,-9.949853897094727,32,1,44.0,0,0,2026,1974
149.94042100,149940421,1,-0.002106296829879284,-0.0022880136966705322,0.0014659633161500096,-0.49611181020736694,-0.14376255869865417,-9.949853897094727,32,1,44.0,0,0,2026,1974
149.94334600,149943346,1,-0.002106297295540571,-0.002288015326485038,0.0014659633161500096,-0.49611181020736694,-0.14376255869865417,-9.949853897094727,32,1,44.0,0,0,2026,1974
149.94542200,149945422,1,-0.0021062963642179966,-0.0022880136966705322,0.0014659633161500096,-0.49611181020736694,-0.14376255869865417,-9.949853897094727,32,1,44.0,0,0,2026,1974
149.94790000,149947900,1,-0.0021062977612018585,-0.0022880148608237505,0.0014659633161500096,-0.49611181020736694,-0.14376255869865417,-9.949853897094727,32,1,44.0,0,0,2026,1974
149.95040500,149950405,1,-0.0021062963642179966,-0.0022880141623318195,0.0014659633161500096,-0.49611181020736694,-0.14376255869865417,-9.949853897094727,32,1,44.0,0,0,2026,1974
149.95290200,149952902,1,-0.002106297528371215,-0.0022880141623318195,0.0014659633161500096,-0.49611181020736694,-0.14376255869865417,-9.949853897094727,32,1,44.0,0,0,2026,1974
149.95603200,149956032,1,-0.002106297295540571,-0.002288015326485038,0.0014659633161500096,-0.49611181020736694,-0.14376255869865417,-9.949853897094727,32,1,44.0,0,0,2026,1974
149.95791400,149957914,1,-0.002106296829879284,-0.0022880136966705322,0.0014659633161500096,-0.49611181020736694,-0.14376255869865417,-9.949853897094727,32,1,44.0,0,0,2026,1974
149.96041500,149960415,1,-0.0021062977612018585,-0.002288015326485038,0.0014659633161500096,-0.49611181020736694,-0.14376255869865417,-9.949853897094727,32,1,44.0,0,0,2026,1974
149.96289400,149962894,1,-0.0021062963642179966,-0.0022880141623318195,0.0014659633161500096,-0.49611181020736694,-0.14376255869865417,-9.949853897094727,32,1,44.0,0,0,2026,1974
149.96541100,149965411,1,-0.0021062977612018585,-0.0022880148608237505,0.0014659633161500096,-0.49611181020736694,-0.14376255869865417,-9.949853897094727,32,1,44.0,0,0,2026,1974
149.96829200,149968292,1,-0.0021062963642179966,-0.0022880148608237505,0.0014659633161500096,-0.49611181020736694,-0.14376255869865417,-9.949853897094727,32,1,44.0,0,0,2026,1974
149.97048000,149970480,1,-0.002106296829879284,-0.0022880136966705322,0.0014659633161500096,-0.49611181020736694,-0.14376255869865417,-9.949853897094727,32,1,44.0,0,0,2026,1974
149.97296200,149972962,1,-0.002106297295540571,-0.002288015326485038,0.0014659633161500096,-0.49611181020736694,-0.14376255869865417,-9.949853897094727,32,1,44.0,0,0,2026,1974
149.97543200,149975432,1,-0.0021062963642179966,-0.0022880136966705322,0.0014659633161500096,-0.49611181020736694,-0.14376255869865417,-9.949853897094727,32,1,44.0,0,0,2026,1974
149.97789600,149977896,1,-0.0021062977612018585,-0.0022880148608237505,0.0014659633161500096,-0.49611181020736694,-0.14376255869865417,-9.949853897094727,32,1,44.0,0,0,2026,1974
149.98095000,149980950,1,-0.0021062963642179966,-0.0022880141623318195,0.0014659633161500096,-0.49611181020736694,-0.14376255869865417,-9.949853897094727,32,1,44.0,0,0,2026,1974
149.98288700,149982887,1,-0.002106297528371215,-0.0022880141623318195,0.0014659633161500096,-0.49611181020736694,-0.14376255869865417,-9.949853897094727,32,1,44.0,0,0,2026,1974
149.98543600,149985436,1,-0.002106297295540571,-0.002288015326485038,0.0014659633161500096,-0.49611181020736694,-0.14376255869865417,-9.949853897094727,32,1,44.0,0,0,2026,1974
149.98791400,149987914,1,-0.002106296829879284,-0.0022880136966705322,0.0014659633161500096,-0.49611181020736694,-0.14376255869865417,-9.949853897094727,32,1,44.0,0,0,2026,1974
149.99127500,149991275,1,-0.0021062977612018585,-0.002288015326485038,0.0014659633161500096,-0.49611181020736694,-0.14376255869865417,-9.949853897094727,32,1,44.0,0,0,2026,1974
149.99294500,149992945,1,-0.0021062963642179966,-0.0022880141623318195,0.0014659633161500096,-0.49611181020736694,-0.14376255869865417,-9.949853897094727,32,1,44.0,0,0,2026,1974
149.99543700,149995437,1,-0.0021062977612018585,-0.0022880148608237505,0.0014659633161500096,-0.49611181020736694,-0.14376255869865417,-9.949853897094727,32,1,44.0,0,0,2026,1974
149.99789200,149997892,1,-0.0021062963642179966,-0.0022880148608237505,0.0014659633161500096,-0.49611181020736694,-0.14376255869865417,-9.949853897094727,32,1,44.0,0,0,2026,1974
150.00043100,150000431,1,-0.002106296829879284,-0.0022880136966705322,0.0014659633161500096,-0.49611181020736694,-0.14376255869865417,-9.949853897094727,32,1,44.0,0,0,2026,1974
150.00358500,150003585,1,-0.002106297295540571,-0.002288015326485038,0.0014659633161500096,-0.49611181020736694,-0.14376255869865417,-9.949853897094727,32,1,44.0,0,0,2026,1974
150.00544600,150005446,1,-0.002106296131387353,-0.002288013929501176,0.0014659633161500096,-0.49611181020736694,-0.14376255869865417,-9.949853897094727,32,1,44.0,0,0,2026,1974
150.00790500,150007905,1,-0.0021062977612018585,-0.002288015093654394,0.0014659633161500096,-0.49611181020736694,-0.14376255869865417,-9.949853897094727,32,1,44.0,0,0,2026,1974
150.01039900,150010399,1,-0.0021062963642179966,-0.0022880141623318195,0.0014659633161500096,-0.49611181020736694,-0.14376255869865417,-9.949853897094727,32,1,44.0,0,0,2026,1974
150.01288400,150012884,1,-0.002106297295540571,-0.002288013929501176,0.0014659633161500096,-0.49611181020736694,-0.14376255869865417,-9.949853897094727,32,1,44.0,0,0,2026,1974
150.01588200,150015882,1,-0.002106296829879284,-0.002288015093654394,0.0014659633161500096,-0.49611181020736694,-0.14376255869865417,-9.949853897094727,32,1,44.0,0,0,2026,1974
150.01789200,150017892,1,-0.002106296829879284,-0.0022880136966705322,0.0014659633161500096,-0.49611181020736694,-0.14376255869865417,-9.949853897094727,32,1,44.0,0,0,2026,1974
150.02040100,150020401,1,-0.0021062977612018585,-0.002288015093654394,0.0014659633161500096,-0.49611181020736694,-0.14376255869865417,-9.949853897094727,32,1,44.0,0,0,2026,1974
150.02292000,150022920,1,-0.002106296131387353,-0.002288013929501176,0.0014659633161500096,-0.49611181020736694,-0.14376255869865417,-9.949853897094727,32,1,44.0,0,0,2026,1974
150.02542100,150025421,1,-0.0021062977612018585,-0.0022880148608237505,0.0014659633161500096,-0.49611181020736694,-0.14376255869865417,-9.949853897094727,32,1,44.0,0,0,2026,1974
150.02834200,150028342,1,-0.002106296829879284,-0.002288015093654394,0.0014659633161500096,-0.49611181020736694,-0.14376255869865417,-9.949853897094727,32,1,44.0,0,0,2026,1974
150.03040000,150030400,1,-0.002106297295540571,-0.002288013929501176,0.0014659633161500096,-0.49611181020736694,-0.14376255869865417,-9.949853897094727,32,1,44.0,0,0,2026,1974
150.03299900,150032999,1,-0.002106297295540571,-0.002288015326485038,0.0014659633161500096,-0.49611181020736694,-0.14376255869865417,-9.949853897094727,32,1,44.0,0,0,2026,1974
150.03547900,150035479,1,-0.002106296131387353,-0.002288013929501176,0.0014659633161500096,-0.49611181020736694,-0.14376255869865417,-9.949853897094727,32,1,44.0,0,0,2026,1974
150.03793400,150037934,1,-0.0021062977612018585,-0.002288015093654394,0.0014659633161500096,-0.49611181020736694,-0.14376255869865417,-9.949853897094727,32,1,44.0,0,0,2026,1974
150.04089700,150040897,1,-0.0021062963642179966,-0.0022880141623318195,0.0014659633161500096,-0.49611181020736694,-0.14376255869865417,-9.949853897094727,32,1,44.0,0,0,2026,1974
150.04289400,150042894,1,-0.002106297295540571,-0.002288013929501176,0.0014659633161500096,-0.49611181020736694,-0.14376255869865417,-9.949853897094727,32,1,44.0,0,0,2026,1974
150.04540600,150045406,1,-0.002106296829879284,-0.002288015093654394,0.0014659633161500096,-0.49611181020736694,-0.14376255869865417,-9.949853897094727,32,1,44.0,0,0,2026,1974
150.04791800,150047918,1,-0.002106296829879284,-0.0022880136966705322,0.0014659633161500096,-0.49611181020736694,-0.14376255869865417,-9.949853897094727,32,1,44.0,0,0,2026,1974
150.05043100,150050431,1,-0.0021062977612018585,-0.002288015093654394,0.0014659633161500096,-0.49611181020736694,-0.14376255869865417,-9.949853897094727,32,1,44.0,0,0,2026,1974
150.05334300,150053343,1,-0.002106296131387353,-0.002288013929501176,0.0014659633161500096,-0.49611181020736694,-0.14376255869865417,-9.949853897094727,32,1,44.0,0,0,2026,1974
150.05549800,150055498,1,-0.0021062977612018585,-0.0022880148608237505,0.0014659633161500096,-0.49611181020736694,-0.14376255869865417,-9.949853897094727,32,1,44.0,0,0,2026,1974
150.05790400,150057904,1,-0.002106296829879284,-0.002288015093654394,0.0014659633161500096,-0.49611181020736694,-0.14376255869865417,-9.949853897094727,32,1,44.0,0,0,2026,1974
150.06040500,150060405,1,-0.002106297295540571,-0.002288013929501176,0.0014659633161500096,-0.49611181020736694,-0.14376255869865417,-9.949853897094727,32,1,44.0,0,0,2026,1974
150.06290400,150062904,1,-0.002106297295540571,-0.002288015326485038,0.0014659633161500096,-0.49611181020736694,-0.14376255869865417,-9.949853897094727,32,1,44.0,0,0,2026,1974
150.06584400,150065844,1,-0.002106296131387353,-0.002288013929501176,0.0014659633161500096,-0.49611181020736694,-0.14376255869865417,-9.949853897094727,32,1,44.0,0,0,2026,1974
150.06792000,150067920,1,-0.0021062977612018585,-0.002288015093654394,0.0014659633161500096,-0.49611181020736694,-0.14376255869865417,-9.949853897094727,32,1,44.0,0,0,2026,1974
150.07042200,150070422,1,-0.0021062963642179966,-0.0022880141623318195,0.0014659633161500096,-0.49611181020736694,-0.14376255869865417,-9.949853897094727,32,1,44.0,0,0,2026,1974
150.07290300,150072903,1,-0.002106297295540571,-0.002288013929501176,0.0014659633161500096,-0.49611181020736694,-0.14376255869865417,-9.949853897094727,32,1,44.0,0,0,2026,1974
150.07543300,150075433,1,-0.002106296829879284,-0.002288015093654394,0.0014659633161500096,-0.49611181020736694,-0.14376255869865417,-9.949853897094727,32,1,44.0,0,0,2026,1974
150.07830700,150078307,1,-0.002106296829879284,-0.0022880136966705322,0.0014659633161500096,-0.49611181020736694,-0.14376255869865417,-9.949853897094727,32,1,44.0,0,0,2026,1974
150.08040400,150080404,1,-0.0021062977612018585,-0.002288015093654394,0.0014659633161500096,-0.49611181020736694,-0.14376255869865417,-9.949853897094727,32,1,44.0,0,0,2026,1974
150.08290000,150082900,1,-0.002106296131387353,-0.002288013929501176,0.0014659633161500096,-0.49611181020736694,-0.14376255869865417,-9.949853897094727,32,1,44.0,0,0,2026,1974
150.08542500,150085425,1,-0.0021062977612018585,-0.0022880148608237505,0.0014659633161500096,-0.49611181020736694,-0.14376255869865417,-9.949853897094727,32,1,44.0,0,0,2026,1974
150.08873200,150088732,1,-0.002106296829879284,-0.002288015093654394,0.0014659633161500096,-0.49611181020736694,-0.14376255869865417,-9.949853897094727,32,1,44.0,0,0,2026,1974
150.09040800,150090408,1,-0.002106297295540571,-0.002288013929501176,0.0014659633161500096,-0.49611181020736694,-0.14376255869865417,-9.949853897094727,32,1,44.0,0,0,2026,1974
150.09291100,150092911,1,-0.002106297295540571,-0.002288015326485038,0.0014659633161500096,-0.49611181020736694,-0.14376255869865417,-9.949853897094727,32,1,44.0,0,0,2026,1974
150.09544900,150095449,1,-0.002106296131387353,-0.002288013929501176,0.0014659633161500096,-0.49611181020736694,-0.14376255869865417,-9.949853897094727,32,1,44.0,0,0,2026,1974
150.09790700,150097907,1,-0.0021062977612018585,-0.002288015093654394,0.0014659633161500096,-0.49611181020736694,-0.14376255869865417,-9.949853897094727,32,1,44.0,0,0,2026,1974
150.10105000,150101050,1,-0.0021062963642179966,-0.0022880141623318195,0.0014659633161500096,-0.49611181020736694,-0.14376255869865417,-9.949853897094727,32,1,44.0,0,0,2026,1974
150.10289100,150102891,1,-0.002106297295540571,-0.002288013929501176,0.0014659633161500096,-0.49611181020736694,-0.14376255869865417,-9.949853897094727,32,1,44.0,0,0,2026,1974
150.10542400,150105424,1,-0.002106296829879284,-0.002288015093654394,0.0014659633161500096,-0.49611181020736694,-0.14376255869865417,-9.949853897094727,32,1,44.0,0,0,2026,1974
150.10790700,150107907,1,-0.002106296829879284,-0.0022880136966705322,0.0014659633161500096,-0.49611181020736694,-0.14376255869865417,-9.949853897094727,32,1,44.0,0,0,2026,1974
150.11040200,150110402,1,-0.0021062977612018585,-0.002288015093654394,0.0014659633161500096,-0.49611181020736694,-0.14376255869865417,-9.949853897094727,32,1,44.0,0,0,2026,1974
150.11336700,150113367,1,-0.002106296131387353,-0.002288013929501176,0.0014659633161500096,-0.49611181020736694,-0.14376255869865417,-9.949853897094727,32,1,44.0,0,0,2026,1974
150.11542900,150115429,1,-0.0021062977612018585,-0.0022880148608237505,0.0014659633161500096,-0.49611181020736694,-0.14376255869865417,-9.949853897094727,32,1,44.0,0,0,2026,1974
150.11790400,150117904,1,-0.002106296829879284,-0.002288015093654394,0.0014659633161500096,-0.49611181020736694,-0.14376255869865417,-9.949853897094727,32,1,44.0,0,0,2026,1974
150.12040700,150120407,1,-0.002106297295540571,-0.002288013929501176,0.0014659633161500096,-0.49611181020736694,-0.14376255869865417,-9.949853897094727,32,1,44.0,0,0,2026,1974
150.12331700,150123317,1,-0.002106297295540571,-0.002288015326485038,0.0014659633161500096,-0.49611181020736694,-0.14376255869865417,-9.949853897094727,32,1,44.0,0,0,2026,1974
150.12544500,150125445,1,-0.002106296131387353,-0.002288013929501176,0.0014659633161500096,-0.49611181020736694,-0.14376255869865417,-9.949853897094727,32,1,44.0,0,0,2026,1974
150.12791000,150127910,1,-0.0021062977612018585,-0.002288015093654394,0.0014659633161500096,-0.49611181020736694,-0.14376255869865417,-9.949853897094727,32,1,44.0,0,0,2026,1974
150.13040100,150130401,1,-0.0021062963642179966,-0.0022880141623318195,0.0014659633161500096,-0.49611181020736694,-0.14376255869865417,-9.949853897094727,32,1,44.0,0,0,2026,1974
150.13293100,150132931,1,-0.002106297295540571,-0.002288013929501176,0.0014659633161500096,-0.49611181020736694,-0.14376255869865417,-9.949853897094727,32,1,44.0,0,0,2026,1974
150.13587200,150135872,1,-0.002106296829879284,-0.002288015093654394,0.0014659633161500096,-0.49611181020736694,-0.14376255869865417,-9.949853897094727,32,1,44.0,0,0,2026,1974
150.13791300,150137913,1,-0.002106296829879284,-0.0022880136966705322,0.0014659633161500096,-0.49611181020736694,-0.14376255869865417,-9.949853897094727,32,1,44.0,0,0,2026,1974
150.14039700,150140397,1,-0.0021062977612018585,-0.002288015093654394,0.0014659633161500096,-0.49611181020736694,-0.14376255869865417,-9.949853897094727,32,1,44.0,0,0,2026,1974
150.14291200,150142912,1,-0.002106296131387353,-0.002288013929501176,0.0014659633161500096,-0.49611181020736694,-0.14376255869865417,-9.949853897094727,32,1,44.0,0,0,2026,1974
150.14536500,150145365,1,-0.0021062977612018585,-0.0022880148608237505,0.0014659633161500096,-0.49611181020736694,-0.14376255869865417,-9.949853897094727,32,1,44.0,0,0,2026,1974
150.14834300,150148343,1,-0.0021062963642179966,-0.0022880148608237505,0.0014659633161500096,-0.49611181020736694,-0.14376255869865417,-9.949853897094727,32,1,44.0,0,0,2026,1974
150.15039800,150150398,1,-0.002106297295540571,-0.002288013929501176,0.0014659633161500096,-0.49611181020736694,-0.14376255869865417,-9.949853897094727,32,1,44.0,0,0,2026,1974
150.15295700,150152957,1,-0.0021062977612018585,-0.002288015326485038,0.0014659633161500096,-0.49611181020736694,-0.14376255869865417,-9.949853897094727,32,1,44.0,0,0,2026,1974
150.15558200,150155582,1,-0.0021062963642179966,-0.0022880136966705322,0.0014659633161500096,-0.49611181020736694,-0.14376255869865417,-9.949853897094727,32,1,44.0,0,0,2026,1974
150.15791000,150157910,1,-0.0021062977612018585,-0.002288015093654394,0.0014659633161500096,-0.49611181020736694,-0.14376255869865417,-9.949853897094727,32,1,44.0,0,0,2026,1974
150.16089600,150160896,1,-0.0021062963642179966,-0.0022880148608237505,0.0014659633161500096,-0.49611181020736694,-0.14376255869865417,-9.949853897094727,32,1,44.0,0,0,2026,1974
150.16290300,150162903,1,-0.002106297528371215,-0.0022880141623318195,0.0014659633161500096,-0.49611181020736694,-0.14376255869865417,-9.949853897094727,32,1,44.0,0,0,2026,1974
150.16541000,150165410,1,-0.002106296829879284,-0.002288015093654394,0.0014659633161500096,-0.49611181020736694,-0.14376255869865417,-9.949853897094727,32,1,44.0,0,0,2026,1974
150.16789900,150167899,1,-0.0021062963642179966,-0.0022880136966705322,0.0014659633161500096,-0.49611181020736694,-0.14376255869865417,-9.949853897094727,32,1,44.0,0,0,2026,1974
150.17040700,150170407,1,-0.0021062977612018585,-0.002288015326485038,0.0014659633161500096,-0.49611181020736694,-0.14376255869865417,-9.949853897094727,32,1,44.0,0,0,2026,1974
150.17330100,150173301,1,-0.002106296131387353,-0.002288013929501176,0.0014659633161500096,-0.49611181020736694,-0.14376255869865417,-9.949853897094727,32,1,44.0,0,0,2026,1974
150.17541800,150175418,1,-0.002106297528371215,-0.0022880141623318195,0.0014659633161500096,-0.49611181020736694,-0.14376255869865417,-9.949853897094727,32,1,44.0,0,0,2026,1974
150.17790300,150177903,1,-0.0021062963642179966,-0.0022880148608237505,0.0014659633161500096,-0.49611181020736694,-0.14376255869865417,-9.949853897094727,32,1,44.0,0,0,2026,1974
150.18040500,150180405,1,-0.002106297295540571,-0.002288013929501176,0.0014659633161500096,-0.49611181020736694,-0.14376255869865417,-9.949853897094727,32,1,44.0,0,0,2026,1974
150.18291200,150182912,1,-0.0021062977612018585,-0.002288015326485038,0.0014659633161500096,-0.49611181020736694,-0.14376255869865417,-9.949853897094727,32,1,44.0,0,0,2026,1974
150.18585000,150185850,1,-0.0021062963642179966,-0.0022880136966705322,0.0014659633161500096,-0.49611181020736694,-0.14376255869865417,-9.949853897094727,32,1,44.0,0,0,2026,1974
150.18789700,150187897,1,-0.0021062977612018585,-0.002288015093654394,0.0014659633161500096,-0.49611181020736694,-0.14376255869865417,-9.949853897094727,32,1,44.0,0,0,2026,1974
150.19043300,150190433,1,-0.0021062963642179966,-0.0022880148608237505,0.0014659633161500096,-0.49611181020736694,-0.14376255869865417,-9.949853897094727,32,1,44.0,0,0,2026,1974
150.19290600,150192906,1,-0.002106297528371215,-0.0022880141623318195,0.0014659633161500096,-0.49611181020736694,-0.14376255869865417,-9.949853897094727,32,1,44.0,0,0,2026,1974
150.19542300,150195423,1,-0.002106296829879284,-0.002288015093654394,0.0014659633161500096,-0.49611181020736694,-0.14376255869865417,-9.949853897094727,32,1,44.0,0,0,2026,1974
150.19913600,150199136,1,-0.002106296829879284,-0.0022880136966705322,0.0014659633161500096,-0.49611181020736694,-0.14376255869865417,-9.949853897094727,32,1,44.0,0,0,2026,1974
150.20041300,150200413,1,-0.0021062977612018585,-0.002288015326485038,0.0014659633161500096,-0.49611181020736694,-0.14376255869865417,-9.949853897094727,32,1,44.0,0,0,2026,1974
150.20289600,150202896,1,-0.0021062963642179966,-0.0022880141623318195,0.0014659633161500096,-0.49611181020736694,-0.14376255869865417,-9.949853897094727,32,1,44.0,0,0,2026,1974
150.20542900,150205429,1,-0.0021062977612018585,-0.0022880148608237505,0.0014659633161500096,-0.49611181020736694,-0.14376255869865417,-9.949853897094727,32,1,44.0,0,0,2026,1974
150.20828000,150208280,1,-0.0021062963642179966,-0.0022880148608237505,0.0014659633161500096,-0.49611181020736694,-0.14376255869865417,-9.949853897094727,32,1,44.0,0,0,2026,1974
150.21039900,150210399,1,-0.002106296829879284,-0.0022880136966705322,0.0014659633161500096,-0.49611181020736694,-0.14376255869865417,-9.949853897094727,32,1,44.0,0,0,2026,1974
150.21290000,150212900,1,-0.002106297295540571,-0.002288015326485038,0.0014659633161500096,-0.49611181020736694,-0.14376255869865417,-9.949853897094727,32,1,44.0,0,0,2026,1974
150.21543100,150215431,1,-0.0021062963642179966,-0.0022880136966705322,0.0014659633161500096,-0.49611181020736694,-0.14376255869865417,-9.949853897094727,32,1,44.0,0,0,2026,1974
150.21789800,150217898,1,-0.0021062977612018585,-0.0022880148608237505,0.0014659633161500096,-0.49611181020736694,-0.14376255869865417,-9.949853897094727,32,1,44.0,0,0,2026,1974
150.22084900,150220849,1,-0.0021062963642179966,-0.0022880141623318195,0.0014659633161500096,-0.49611181020736694,-0.14376255869865417,-9.949853897094727,32,1,44.0,0,0,2026,1974
150.22300200,150223002,1,-0.002106297528371215,-0.0022880141623318195,0.0014659633161500096,-0.49611181020736694,-0.14376255869865417,-9.949853897094727,32,1,44.0,0,0,2026,1974
150.22564000,150225640,1,-0.002106297295540571,-0.002288015326485038,0.0014659633161500096,-0.49611181020736694,-0.14376255869865417,-9.949853897094727,32,1,44.0,0,0,2026,1974
150.22822000,150228220,1,-0.002106296829879284,-0.0022880136966705322,0.0014659633161500096,-0.49611181020736694,-0.14376255869865417,-9.949853897094727,32,1,44.0,0,0,2026,1974
150.23042800,150230428,1,-0.0021062977612018585,-0.002288015326485038,0.0014659633161500096,-0.49611181020736694,-0.14376255869865417,-9.949853897094727,32,1,44.0,0,0,2026,1974
150.23337600,150233376,1,-0.0021062963642179966,-0.0022880141623318195,0.0014659633161500096,-0.49611181020736694,-0.14376255869865417,-9.949853897094727,32,1,44.0,0,0,2026,1974
150.23542500,150235425,1,-0.0021062977612018585,-0.0022880148608237505,0.0014659633161500096,-0.49611181020736694,-0.14376255869865417,-9.949853897094727,32,1,44.0,0,0,2026,1974
150.23790700,150237907,1,-0.0021062963642179966,-0.0022880148608237505,0.0014659633161500096,-0.49611181020736694,-0.14376255869865417,-9.949853897094727,32,1,44.0,0,0,2026,1974
150.24039800,150240398,1,-0.002106296829879284,-0.0022880136966705322,0.0014659633161500096,-0.49611181020736694,-0.14376255869865417,-9.949853897094727,32,1,44.0,0,0,2026,1974
150.24293600,150242936,1,-0.002106297295540571,-0.002288015326485038,0.0014659633161500096,-0.49611181020736694,-0.14376255869865417,-9.949853897094727,32,1,44.0,0,0,2026,1974
150.24580700,150245807,1,-0.0021062963642179966,-0.0022880136966705322,0.0014659633161500096,-0.49611181020736694,-0.14376255869865417,-9.949853897094727,32,1,44.0,0,0,2026,1974
150.24790400,150247904,1,-0.0021062977612018585,-0.0022880148608237505,0.0014659633161500096,-0.49611181020736694,-0.14376255869865417,-9.949853897094727,32,1,44.0,0,0,2026,1974
150.25044000,150250440,1,-0.0021062963642179966,-0.0022880141623318195,0.0014659633161500096,-0.49611181020736694,-0.14376255869865417,-9.949853897094727,32,1,44.0,0,0,2026,1974
150.25295600,150252956,1,-0.002106297295540571,-0.002288013929501176,0.0014659633161500096,-0.49611181020736694,-0.14376255869865417,-9.949853897094727,32,1,44.0,0,0,2026,1974
150.25552100,150255521,1,-0.002106296829879284,-0.002288015093654394,0.0014659633161500096,-0.49611181020736694,-0.14376255869865417,-9.949853897094727,32,1,44.0,0,0,2026,1974
150.25831900,150258319,1,-0.002106296829879284,-0.0022880136966705322,0.0014659633161500096,-0.49611181020736694,-0.14376255869865417,-9.949853897094727,32,1,44.0,0,0,2026,1974
150.26038900,150260389,1,-0.0021062977612018585,-0.002288015093654394,0.0014659633161500096,-0.49611181020736694,-0.14376255869865417,-9.949853897094727,32,1,44.0,0,0,2026,1974
150.26291300,150262913,1,-0.002106296131387353,-0.002288013929501176,0.0014659633161500096,-0.49611181020736694,-0.14376255869865417,-9.949853897094727,32,1,44.0,0,0,2026,1974
150.26540200,150265402,1,-0.0021062977612018585,-0.0022880148608237505,0.0014659633161500096,-0.49611181020736694,-0.14376255869865417,-9.949853897094727,32,1,44.0,0,0,2026,1974
150.26793400,150267934,1,-0.002106296829879284,-0.002288015093654394,0.0014659633161500096,-0.49611181020736694,-0.14376255869865417,-9.949853897094727,32,1,44.0,0,0,2026,1974
150.27084100,150270841,1,-0.002106297295540571,-0.002288013929501176,0.0014659633161500096,-0.49611181020736694,-0.14376255869865417,-9.949853897094727,32,1,44.0,0,0,2026,1974
150.27292500,150272925,1,-0.002106297295540571,-0.002288015326485038,0.0014659633161500096,-0.49611181020736694,-0.14376255869865417,-9.949853897094727,32,1,44.0,0,0,2026,1974
150.27548100,150275481,1,-0.002106296131387353,-0.002288013929501176,0.0014659633161500096,-0.49611181020736694,-0.14376255869865417,-9.949853897094727,32,1,44.0,0,0,2026,1974
150.27790000,150277900,1,-0.0021062977612018585,-0.002288015093654394,0.0014659633161500096,-0.49611181020736694,-0.14376255869865417,-9.949853897094727,32,1,44.0,0,0,2026,1974
150.28041600,150280416,1,-0.0021062963642179966,-0.0022880141623318195,0.0014659633161500096,-0.49611181020736694,-0.14376255869865417,-9.949853897094727,32,1,44.0,0,0,2026,1974
150.28334200,150283342,1,-0.002106297295540571,-0.002288013929501176,0.0014659633161500096,-0.49611181020736694,-0.14376255869865417,-9.949853897094727,32,1,44.0,0,0,2026,1974
150.28541100,150285411,1,-0.002106296829879284,-0.002288015093654394,0.0014659633161500096,-0.49611181020736694,-0.14376255869865417,-9.949853897094727,32,1,44.0,0,0,2026,1974
150.28789800,150287898,1,-0.002106296829879284,-0.0022880136966705322,0.0014659633161500096,-0.49611181020736694,-0.14376255869865417,-9.949853897094727,32,1,44.0,0,0,2026,1974
150.29041400,150290414,1,-0.0021062977612018585,-0.002288015093654394,0.0014659633161500096,-0.49611181020736694,-0.14376255869865417,-9.949853897094727,32,1,44.0,0,0,2026,1974
150.29290800,150292908,1,-0.002106296131387353,-0.002288013929501176,0.0014659633161500096,-0.49611181020736694,-0.14376255869865417,-9.949853897094727,32,1,44.0,0,0,2026,1974
150.29662800,150296628,1,-0.0021062977612018585,-0.0022880148608237505,0.0014659633161500096,-0.49611181020736694,-0.14376255869865417,-9.949853897094727,32,1,44.0,0,0,2026,1974
150.29789100,150297891,1,-0.002106296829879284,-0.002288015093654394,0.0014659633161500096,-0.49611181020736694,-0.14376255869865417,-9.949853897094727,32,1,44.0,0,0,2026,1974
150.30041300,150300413,1,-0.002106297295540571,-0.002288013929501176,0.0014659633161500096,-0.49611181020736694,-0.14376255869865417,-9.949853897094727,32,1,44.0,0,0,2026,1974
150.30289800,150302898,1,-0.002106297295540571,-0.002288015326485038,0.0014659633161500096,-0.49611181020736694,-0.14376255869865417,-9.949853897094727,32,1,44.0,0,0,2026,1974
150.30542900,150305429,1,-0.002106296131387353,-0.002288013929501176,0.0014659633161500096,-0.49611181020736694,-0.14376255869865417,-9.949853897094727,32,1,44.0,0,0,2026,1974
150.30834900,150308349,1,-0.0021062977612018585,-0.002288015093654394,0.0014659633161500096,-0.49611181020736694,-0.14376255869865417,-9.949853897094727,32,1,44.0,0,0,2026,1974
150.31034400,150310344,1,-0.0021062963642179966,-0.0022880141623318195,0.0014659633161500096,-0.49611181020736694,-0.14376255869865417,-9.949853897094727,32,1,44.0,0,0,2026,1974
150.31290400,150312904,1,-0.002106297528371215,-0.0022880141623318195,0.0014659633161500096,-0.49611181020736694,-0.14376255869865417,-9.949853897094727,32,1,44.0,0,0,2026,1974
150.31543000,150315430,1,-0.002106296829879284,-0.002288015093654394,0.0014659633161500096,-0.49611181020736694,-0.14376255869865417,-9.949853897094727,32,1,44.0,0,0,2026,1974
150.31795300,150317953,1,-0.0021062963642179966,-0.0022880136966705322,0.0014659633161500096,-0.49611181020736694,-0.14376255869865417,-9.949853897094727,32,1,44.0,0,0,2026,1974
150.32084200,150320842,1,-0.0021062977612018585,-0.002288015326485038,0.0014659633161500096,-0.49611181020736694,-0.14376255869865417,-9.949853897094727,32,1,44.0,0,0,2026,1974
150.32292400,150322924,1,-0.002106296131387353,-0.002288013929501176,0.0014659633161500096,-0.49611181020736694,-0.14376255869865417,-9.949853897094727,32,1,44.0,0,0,2026,1974
150.32542300,150325423,1,-0.002106297528371215,-0.0022880141623318195,0.0014659633161500096,-0.49611181020736694,-0.14376255869865417,-9.949853897094727,32,1,44.0,0,0,2026,1974
150.32790000,150327900,1,-0.0021062963642179966,-0.0022880148608237505,0.0014659633161500096,-0.49611181020736694,-0.14376255869865417,-9.949853897094727,32,1,44.0,0,0,2026,1974
150.33040500,150330405,1,-0.002106297295540571,-0.002288013929501176,0.0014659633161500096,-0.49611181020736694,-0.14376255869865417,-9.949853897094727,32,1,44.0,0,0,2026,1974
150.33336500,150333365,1,-0.0021062977612018585,-0.002288015326485038,0.0014659633161500096,-0.49611181020736694,-0.14376255869865417,-9.949853897094727,32,1,44.0,0,0,2026,1974
150.33542200,150335422,1,-0.0021062963642179966,-0.0022880136966705322,0.0014659633161500096,-0.49611181020736694,-0.14376255869865417,-9.949853897094727,32,1,44.0,0,0,2026,1974
150.33790400,150337904,1,-0.0021062977612018585,-0.002288015093654394,0.0014659633161500096,-0.49611181020736694,-0.14376255869865417,-9.949853897094727,32,1,44.0,0,0,2026,1974
150.34041400,150340414,1,-0.0021062963642179966,-0.0022880148608237505,0.0014659633161500096,-0.49611181020736694,-0.14376255869865417,-9.949853897094727,32,1,44.0,0,0,2026,1974
150.34290900,150342909,1,-0.002106297528371215,-0.0022880141623318195,0.0014659633161500096,-0.49611181020736694,-0.14376255869865417,-9.949853897094727,32,1,44.0,0,0,2026,1974
150.34579900,150345799,1,-0.002106296829879284,-0.002288015093654394,0.0014659633161500096,-0.49611181020736694,-0.14376255869865417,-9.949853897094727,32,1,44.0,0,0,2026,1974
150.34800200,150348002,1,-0.0021062963642179966,-0.0022880136966705322,0.0014659633161500096,-0.49611181020736694,-0.14376255869865417,-9.949853897094727,32,1,44.0,0,0,2026,1974
150.35040900,150350409,1,-0.0021062977612018585,-0.002288015326485038,0.0014659633161500096,-0.49611181020736694,-0.14376255869865417,-9.949853897094727,32,1,44.0,0,0,2026,1974
150.35290100,150352901,1,-0.002106296131387353,-0.002288013929501176,0.0014659633161500096,-0.49611181020736694,-0.14376255869865417,-9.949853897094727,32,1,44.0,0,0,2026,1974
150.35559400,150355594,1,-0.002106297528371215,-0.0022880141623318195,0.0014659633161500096,-0.49611181020736694,-0.14376255869865417,-9.949853897094727,32,1,44.0,0,0,2026,1974
150.35835300,150358353,1,-0.0021062963642179966,-0.0022880148608237505,0.0014659633161500096,-0.49611181020736694,-0.14376255869865417,-9.949853897094727,32,1,44.0,0,0,2026,1974
150.36042900,150360429,1,-0.002106297295540571,-0.002288013929501176,0.0014659633161500096,-0.49611181020736694,-0.14376255869865417,-9.949853897094727,32,1,44.0,0,0,2026,1974
150.36293000,150362930,1,-0.0021062977612018585,-0.002288015326485038,0.0014659633161500096,-0.49611181020736694,-0.14376255869865417,-9.949853897094727,32,1,44.0,0,0,2026,1974
150.36540500,150365405,1,-0.0021062963642179966,-0.0022880136966705322,0.0014659633161500096,-0.49611181020736694,-0.14376255869865417,-9.949853897094727,32,1,44.0,0,0,2026,1974
150.36784200,150367842,1,-0.0021062977612018585,-0.002288015093654394,0.0014659633161500096,-0.49611181020736694,-0.14376255869865417,-9.949853897094727,32,1,44.0,0,0,2026,1974
150.37087700,150370877,1,-0.0021062963642179966,-0.0022880141623318195,0.0014659633161500096,-0.49611181020736694,-0.14376255869865417,-9.949853897094727,32,1,44.0,0,0,2026,1974
150.37289600,150372896,1,-0.002106297528371215,-0.0022880141623318195,0.0014659633161500096,-0.49611181020736694,-0.14376255869865417,-9.949853897094727,32,1,44.0,0,0,2026,1974
150.37547000,150375470,1,-0.002106297295540571,-0.002288015326485038,0.0014659633161500096,-0.49611181020736694,-0.14376255869865417,-9.949853897094727,32,1,44.0,0,0,2026,1974
150.37792200,150377922,1,-0.002106296829879284,-0.0022880136966705322,0.0014659633161500096,-0.49611181020736694,-0.14376255869865417,-9.949853897094727,32,1,44.0,0,0,2026,1974
150.38078700,150380787,1,-0.0021062977612018585,-0.002288015326485038,0.0014659633161500096,-0.49611181020736694,-0.14376255869865417,-9.949853897094727,32,1,44.0,0,0,2026,1974
150.38288500,150382885,1,-0.0021062963642179966,-0.0022880141623318195,0.0014659633161500096,-0.49611181020736694,-0.14376255869865417,-9.949853897094727,32,1,44.0,0,0,2026,1974
150.38542300,150385423,1,-0.0021062977612018585,-0.0022880148608237505,0.0014659633161500096,-0.49611181020736694,-0.14376255869865417,-9.949853897094727,32,1,44.0,0,0,2026,1974
150.38789500,150387895,1,-0.0021062963642179966,-0.0022880148608237505,0.0014659633161500096,-0.49611181020736694,-0.14376255869865417,-9.949853897094727,32,1,44.0,0,0,2026,1974
150.39040700,150390407,1,-0.002106296829879284,-0.0022880136966705322,0.0014659633161500096,-0.49611181020736694,-0.14376255869865417,-9.949853897094727,32,1,44.0,0,0,2026,1974
150.39400500,150394005,1,-0.002106297295540571,-0.002288015326485038,0.0014659633161500096,-0.49611181020736694,-0.14376255869865417,-9.949853897094727,32,1,44.0,0,0,2026,1974
150.39543600,150395436,1,-0.0021062963642179966,-0.0022880136966705322,0.0014659633161500096,-0.49611181020736694,-0.14376255869865417,-9.949853897094727,32,1,44.0,0,0,2026,1974
150.39789600,150397896,1,-0.0021062977612018585,-0.0022880148608237505,0.0014659633161500096,-0.49611181020736694,-0.14376255869865417,-9.949853897094727,32,1,44.0,0,0,2026,1974
150.40042800,150400428,1,-0.0021062963642179966,-0.0022880141623318195,0.0014659633161500096,-0.49611181020736694,-0.14376255869865417,-9.949853897094727,32,1,44.0,0,0,2026,1974
150.40290000,150402900,1,-0.002106297528371215,-0.0022880141623318195,0.0014659633161500096,-0.49611181020736694,-0.14376255869865417,-9.949853897094727,32,1,44.0,0,0,2026,1974
150.40586100,150405861,1,-0.002106297295540571,-0.002288015326485038,0.0014659633161500096,-0.49611181020736694,-0.14376255869865417,-9.949853897094727,32,1,44.0,0,0,2026,1974
150.40790700,150407907,1,-0.002106296829879284,-0.0022880136966705322,0.0014659633161500096,-0.49611181020736694,-0.14376255869865417,-9.949853897094727,32,1,44.0,0,0,2026,1974
150.41039100,150410391,1,-0.0021062977612018585,-0.002288015326485038,0.0014659633161500096,-0.49611181020736694,-0.14376255869865417,-9.949853897094727,32,1,44.0,0,0,2026,1974
150.41289700,150412897,1,-0.002106296131387353,-0.002288013929501176,0.0014659633161500096,-0.49611181020736694,-0.14376255869865417,-9.949853897094727,32,1,44.0,0,0,2026,1974
150.41543100,150415431,1,-0.0021062977612018585,-0.0022880148608237505,0.0014659633161500096,-0.49611181020736694,-0.14376255869865417,-9.949853897094727,32,1,44.0,0,0,2026,1974
150.41833200,150418332,1,-0.002106296829879284,-0.002288015093654394,0.0014659633161500096,-0.49611181020736694,-0.14376255869865417,-9.949853897094727,32,1,44.0,0,0,2026,1974
150.42043400,150420434,1,-0.002106297295540571,-0.002288013929501176,0.0014659633161500096,-0.49611181020736694,-0.14376255869865417,-9.949853897094727,32,1,44.0,0,0,2026,1974
150.42291700,150422917,1,-0.002106297295540571,-0.002288015326485038,0.0014659633161500096,-0.49611181020736694,-0.14376255869865417,-9.949853897094727,32,1,44.0,0,0,2026,1974
150.42546000,150425460,1,-0.002106296131387353,-0.002288013929501176,0.0014659633161500096,-0.49611181020736694,-0.14376255869865417,-9.949853897094727,32,1,44.0,0,0,2026,1974
150.42790600,150427906,1,-0.0021062977612018585,-0.002288015093654394,0.0014659633161500096,-0.49611181020736694,-0.14376255869865417,-9.949853897094727,32,1,44.0,0,0,2026,1974
150.43088900,150430889,1,-0.0021062963642179966,-0.0022880141623318195,0.0014659633161500096,-0.49611181020736694,-0.14376255869865417,-9.949853897094727,32,1,44.0,0,0,2026,1974
150.43301200,150433012,1,-0.002106297295540571,-0.002288013929501176,0.0014659633161500096,-0.49611181020736694,-0.14376255869865417,-9.949853897094727,32,1,44.0,0,0,2026,1974
150.43545000,150435450,1,-0.002106296829879284,-0.002288015093654394,0.0014659633161500096,-0.49611181020736694,-0.14376255869865417,-9.949853897094727,32,1,44.0,0,0,2026,1974
150.43791100,150437911,1,-0.002106296829879284,-0.0022880136966705322,0.0014659633161500096,-0.49611181020736694,-0.14376255869865417,-9.949853897094727,32,1,44.0,0,0,2026,1974
150.44040700,150440407,1,-0.0021062977612018585,-0.002288015093654394,0.0014659633161500096,-0.49611181020736694,-0.14376255869865417,-9.949853897094727,32,1,44.0,0,0,2026,1974
150.44334200,150443342,1,-0.002106296131387353,-0.002288013929501176,0.0014659633161500096,-0.49611181020736694,-0.14376255869865417,-9.949853897094727,32,1,44.0,0,0,2026,1974
150.44539900,150445399,1,-0.0021062977612018585,-0.0022880148608237505,0.0014659633161500096,-0.49611181020736694,-0.14376255869865417,-9.949853897094727,32,1,44.0,0,0,2026,1974
150.44789900,150447899,1,-0.002106296829879284,-0.002288015093654394,0.0014659633161500096,-0.49611181020736694,-0.14376255869865417,-9.949853897094727,32,1,44.0,0,0,2026,1974
150.45040500,150450405,1,-0.002106297295540571,-0.002288013929501176,0.0014659633161500096,-0.49611181020736694,-0.14376255869865417,-9.949853897094727,32,1,44.0,0,0,2026,1974
150.45291600,150452916,1,-0.002106297295540571,-0.002288015326485038,0.0014659633161500096,-0.49611181020736694,-0.14376255869865417,-9.949853897094727,32,1,44.0,0,0,2026,1974
150.45600000,150456000,1,-0.002106296131387353,-0.002288013929501176,0.0014659633161500096,-0.49611181020736694,-0.14376255869865417,-9.949853897094727,32,1,44.0,0,0,2026,1974
150.45790100,150457901,1,-0.0021062977612018585,-0.002288015093654394,0.0014659633161500096,-0.49611181020736694,-0.14376255869865417,-9.949853897094727,32,1,44.0,0,0,2026,1974
150.46041300,150460413,1,-0.0021062963642179966,-0.0022880141623318195,0.0014659633161500096,-0.49611181020736694,-0.14376255869865417,-9.949853897094727,32,1,44.0,0,0,2026,1974
150.46292400,150462924,1,-0.002106297295540571,-0.002288013929501176,0.0014659633161500096,-0.49611181020736694,-0.14376255869865417,-9.949853897094727,32,1,44.0,0,0,2026,1974
150.46540400,150465404,1,-0.002106296829879284,-0.002288015093654394,0.0014659633161500096,-0.49611181020736694,-0.14376255869865417,-9.949853897094727,32,1,44.0,0,0,2026,1974
150.46829400,150468294,1,-0.002106296829879284,-0.0022880136966705322,0.0014659633161500096,-0.49611181020736694,-0.14376255869865417,-9.949853897094727,32,1,44.0,0,0,2026,1974
150.47039100,150470391,1,-0.0021062977612018585,-0.002288015093654394,0.0014659633161500096,-0.49611181020736694,-0.14376255869865417,-9.949853897094727,32,1,44.0,0,0,2026,1974
150.47297300,150472973,1,-0.002106296131387353,-0.002288013929501176,0.0014659633161500096,-0.49611181020736694,-0.14376255869865417,-9.949853897094727,32,1,44.0,0,0,2026,1974
150.47544100,150475441,1,-0.0021062977612018585,-0.0022880148608237505,0.0014659633161500096,-0.49611181020736694,-0.14376255869865417,-9.949853897094727,32,1,44.0,0,0,2026,1974
150.47790400,150477904,1,-0.002106296829879284,-0.002288015093654394,0.0014659633161500096,-0.49611181020736694,-0.14376255869865417,-9.949853897094727,32,1,44.0,0,0,2026,1974
150.48084500,150480845,1,-0.002106297295540571,-0.002288013929501176,0.0014659633161500096,-0.49611181020736694,-0.14376255869865417,-9.949853897094727,32,1,44.0,0,0,2026,1974
150.48289600,150482896,1,-0.002106297295540571,-0.002288015326485038,0.0014659633161500096,-0.49611181020736694,-0.14376255869865417,-9.949853897094727,32,1,44.0,0,0,2026,1974
150.48541400,150485414,1,-0.002106296131387353,-0.002288013929501176,0.0014659633161500096,-0.49611181020736694,-0.14376255869865417,-9.949853897094727,32,1,44.0,0,0,2026,1974
150.48790300,150487903,1,-0.0021062977612018585,-0.002288015093654394,0.0014659633161500096,-0.49611181020736694,-0.14376255869865417,-9.949853897094727,32,1,44.0,0,0,2026,1974
150.49040500,150490405,1,-0.0021062963642179966,-0.0022880141623318195,0.0014659633161500096,-0.49611181020736694,-0.14376255869865417,-9.949853897094727,32,1,44.0,0,0,2026,1974
150.49381900,150493819,1,-0.002106297295540571,-0.002288013929501176,0.0014659633161500096,-0.49611181020736694,-0.14376255869865417,-9.949853897094727,32,1,44.0,0,0,2026,1974
150.49544100,150495441,1,-0.002106296829879284,-0.002288015093654394,0.0014659633161500096,-0.49611181020736694,-0.14376255869865417,-9.949853897094727,32,1,44.0,0,0,2026,1974
150.49791800,150497918,1,-0.002106296829879284,-0.0022880136966705322,0.0014659633161500096,-0.49611181020736694,-0.14376255869865417,-9.949853897094727,32,1,44.0,0,0,2026,1974
150.50040400,150500404,1,-0.0021062977612018585,-0.002288015093654394,0.0014659633161500096,-0.49611181020736694,-0.14376255869865417,-9.949853897094727,32,1,44.0,0,0,2026,1974
150.50290500,150502905,1,-0.002106296131387353,-0.002288013929501176,0.0014659633161500096,-0.49611181020736694,-0.14376255869865417,-9.949853897094727,32,1,44.0,0,0,2026,1974
150.50610200,150506102,1,-0.0021062977612018585,-0.0022880148608237505,0.0014659633161500096,-0.49611181020736694,-0.14376255869865417,-9.949853897094727,32,1,44.0,0,0,2026,1974
150.50791600,150507916,1,-0.0021062963642179966,-0.0022880148608237505,0.0014659633161500096,-0.49611181020736694,-0.14376255869865417,-9.949853897094727,32,1,44.0,0,0,2026,1974
150.51040700,150510407,1,-0.002106297295540571,-0.002288013929501176,0.0014659633161500096,-0.49611181020736694,-0.14376255869865417,-9.949853897094727,32,1,44.0,0,0,2026,1974
150.51288800,150512888,1,-0.0021062977612018585,-0.002288015326485038,0.0014659633161500096,-0.49611181020736694,-0.14376255869865417,-9.949853897094727,32,1,44.0,0,0,2026,1974
150.51543100,150515431,1,-0.0021062963642179966,-0.0022880136966705322,0.0014659633161500096,-0.49611181020736694,-0.14376255869865417,-9.949853897094727,32,1,44.0,0,0,2026,1974
150.51829000,150518290,1,-0.0021062977612018585,-0.002288015093654394,0.0014659633161500096,-0.49611181020736694,-0.14376255869865417,-9.949853897094727,32,1,44.0,0,0,2026,1974
150.52044000,150520440,1,-0.0021062963642179966,-0.0022880148608237505,0.0014659633161500096,-0.49611181020736694,-0.14376255869865417,-9.949853897094727,32,1,44.0,0,0,2026,1974
150.52292100,150522921,1,-0.002106297528371215,-0.0022880141623318195,0.0014659633161500096,-0.49611181020736694,-0.14376255869865417,-9.949853897094727,32,1,44.0,0,0,2026,1974
150.52544600,150525446,1,-0.002106296829879284,-0.002288015093654394,0.0014659633161500096,-0.49611181020736694,-0.14376255869865417,-9.949853897094727,32,1,44.0,0,0,2026,1974
150.52789600,150527896,1,-0.0021062963642179966,-0.0022880136966705322,0.0014659633161500096,-0.49611181020736694,-0.14376255869865417,-9.949853897094727,32,1,44.0,0,0,2026,1974
150.53084900,150530849,1,-0.0021062977612018585,-0.002288015326485038,0.0014659633161500096,-0.49611181020736694,-0.14376255869865417,-9.949853897094727,32,1,44.0,0,0,2026,1974
150.53292400,150532924,1,-0.002106296131387353,-0.002288013929501176,0.0014659633161500096,-0.49611181020736694,-0.14376255869865417,-9.949853897094727,32,1,44.0,0,0,2026,1974
150.53545400,150535454,1,-0.002106297528371215,-0.0022880141623318195,0.0014659633161500096,-0.49611181020736694,-0.14376255869865417,-9.949853897094727,32,1,44.0,0,0,2026,1974
150.53791100,150537911,1,-0.0021062963642179966,-0.0022880148608237505,0.0014659633161500096,-0.49611181020736694,-0.14376255869865417,-9.949853897094727,32,1,44.0,0,0,2026,1974
150.54036500,150540365,1,-0.002106297295540571,-0.002288013929501176,0.0014659633161500096,-0.49611181020736694,-0.14376255869865417,-9.949853897094727,32,1,44.0,0,0,2026,1974
150.54339300,150543393,1,-0.002106297295540571,-0.002288015326485038,0.0014659633161500096,-0.49611181020736694,-0.14376255869865417,-9.949853897094727,32,1,44.0,0,0,2026,1974
150.54540000,150545400,1,-0.0021062963642179966,-0.0022880136966705322,0.0014659633161500096,-0.49611181020736694,-0.14376255869865417,-9.949853897094727,32,1,44.0,0,0,2026,1974
150.54788000,150547880,1,-0.0021062977612018585,-0.002288015093654394,0.0014659633161500096,-0.49611181020736694,-0.14376255869865417,-9.949853897094727,32,1,44.0,0,0,2026,1974
150.55042000,150550420,1,-0.0021062963642179966,-0.0022880141623318195,0.0014659633161500096,-0.49611181020736694,-0.14376255869865417,-9.949853897094727,32,1,44.0,0,0,2026,1974
150.55331400,150553314,1,-0.002106297528371215,-0.0022880141623318195,0.0014659633161500096,-0.49611181020736694,-0.14376255869865417,-9.949853897094727,32,1,44.0,0,0,2026,1974
150.55555200,150555552,1,-0.002106297295540571,-0.002288015326485038,0.0014659633161500096,-0.49611181020736694,-0.14376255869865417,-9.949853897094727,32,1,44.0,0,0,2026,1974
150.55792600,150557926,1,-0.002106296829879284,-0.0022880136966705322,0.0014659633161500096,-0.49611181020736694,-0.14376255869865417,-9.949853897094727,32,1,44.0,0,0,2026,1974
150.56040400,150560404,1,-0.0021062977612018585,-0.002288015326485038,0.0014659633161500096,-0.49611181020736694,-0.14376255869865417,-9.949853897094727,32,1,44.0,0,0,2026,1974
150.56290800,150562908,1,-0.0021062963642179966,-0.0022880141623318195,0.0014659633161500096,-0.49611181020736694,-0.14376255869865417,-9.949853897094727,32,1,44.0,0,0,2026,1974
150.56592400,150565924,1,-0.0021062977612018585,-0.0022880148608237505,0.0014659633161500096,-0.49611181020736694,-0.14376255869865417,-9.949853897094727,32,1,44.0,0,0,2026,1974
150.56789400,150567894,1,-0.0021062963642179966,-0.0022880148608237505,0.0014659633161500096,-0.49611181020736694,-0.14376255869865417,-9.949853897094727,32,1,44.0,0,0,2026,1974
150.57040300,150570403,1,-0.002106296829879284,-0.0022880136966705322,0.0014659633161500096,-0.49611181020736694,-0.14376255869865417,-9.949853897094727,32,1,44.0,0,0,2026,1974
150.57291300,150572913,1,-0.002106297295540571,-0.002288015326485038,0.0014659633161500096,-0.49611181020736694,-0.14376255869865417,-9.949853897094727,32,1,44.0,0,0,2026,1974
150.57542000,150575420,1,-0.0021062963642179966,-0.0022880136966705322,0.0014659633161500096,-0.49611181020736694,-0.14376255869865417,-9.949853897094727,32,1,44.0,0,0,2026,1974
150.57834700,150578347,1,-0.0021062977612018585,-0.0022880148608237505,0.0014659633161500096,-0.49611181020736694,-0.14376255869865417,-9.949853897094727,32,1,44.0,0,0,2026,1974
150.58040000,150580400,1,-0.0021062963642179966,-0.0022880141623318195,0.0014659633161500096,-0.49611181020736694,-0.14376255869865417,-9.949853897094727,32,1,44.0,0,0,2026,1974
150.58290400,150582904,1,-0.002106297528371215,-0.0022880141623318195,0.0014659633161500096,-0.49611181020736694,-0.14376255869865417,-9.949853897094727,32,1,44.0,0,0,2026,1974
150.58539500,150585395,1,-0.002106297295540571,-0.002288015326485038,0.0014659633161500096,-0.49611181020736694,-0.14376255869865417,-9.949853897094727,32,1,44.0,0,0,2026,1974
150.58792600,150587926,1,-0.002106296829879284,-0.0022880136966705322,0.0014659633161500096,-0.49611181020736694,-0.14376255869865417,-9.949853897094727,32,1,44.0,0,0,2026,1974
150.59121300,150591213,1,-0.0021062977612018585,-0.002288015326485038,0.0014659633161500096,-0.49611181020736694,-0.14376255869865417,-9.949853897094727,32,1,44.0,0,0,2026,1974
150.59291000,150592910,1,-0.002106296131387353,-0.002288013929501176,0.0014659633161500096,-0.49611181020736694,-0.14376255869865417,-9.949853897094727,32,1,44.0,0,0,2026,1974
150.59542500,150595425,1,-0.0021062977612018585,-0.0022880148608237505,0.0014659633161500096,-0.49611181020736694,-0.14376255869865417,-9.949853897094727,32,1,44.0,0,0,2026,1974
150.59788300,150597883,1,-0.002106296829879284,-0.002288015093654394,0.0014659633161500096,-0.49611181020736694,-0.14376255869865417,-9.949853897094727,32,1,44.0,0,0,2026,1974
150.60043200,150600432,1,-0.002106297295540571,-0.002288013929501176,0.0014659633161500096,-0.49611181020736694,-0.14376255869865417,-9.949853897094727,32,1,44.0,0,0,2026,1974
150.60354500,150603545,1,-0.002106297295540571,-0.002288015326485038,0.0014659633161500096,-0.49611181020736694,-0.14376255869865417,-9.949853897094727,32,1,44.0,0,0,2026,1974
150.60540400,150605404,1,-0.002106296131387353,-0.002288013929501176,0.0014659633161500096,-0.49611181020736694,-0.14376255869865417,-9.949853897094727,32,1,44.0,0,0,2026,1974
150.60790400,150607904,1,-0.0021062977612018585,-0.002288015093654394,0.0014659633161500096,-0.49611181020736694,-0.14376255869865417,-9.949853897094727,32,1,44.0,0,0,2026,1974
150.61042000,150610420,1,-0.0021062963642179966,-0.0022880141623318195,0.0014659633161500096,-0.49611181020736694,-0.14376255869865417,-9.949853897094727,32,1,44.0,0,0,2026,1974
150.61289800,150612898,1,-0.002106297295540571,-0.002288013929501176,0.0014659633161500096,-0.49611181020736694,-0.14376255869865417,-9.949853897094727,32,1,44.0,0,0,2026,1974
150.61586600,150615866,1,-0.002106296829879284,-0.002288015093654394,0.0014659633161500096,-0.49611181020736694,-0.14376255869865417,-9.949853897094727,32,1,44.0,0,0,2026,1974
150.61790600,150617906,1,-0.002106296829879284,-0.0022880136966705322,0.0014659633161500096,-0.49611181020736694,-0.14376255869865417,-9.949853897094727,32,1,44.0,0,0,2026,1974
150.62040400,150620404,1,-0.0021062977612018585,-0.002288015093654394,0.0014659633161500096,-0.49611181020736694,-0.14376255869865417,-9.949853897094727,32,1,44.0,0,0,2026,1974
150.62292500,150622925,1,-0.002106296131387353,-0.002288013929501176,0.0014659633161500096,-0.49611181020736694,-0.14376255869865417,-9.949853897094727,32,1,44.0,0,0,2026,1974
150.62541000,150625410,1,-0.0021062977612018585,-0.0022880148608237505,0.0014659633161500096,-0.49611181020736694,-0.14376255869865417,-9.949853897094727,32,1,44.0,0,0,2026,1974
150.62834500,150628345,1,-0.002106296829879284,-0.002288015093654394,0.0014659633161500096,-0.49611181020736694,-0.14376255869865417,-9.949853897094727,32,1,44.0,0,0,2026,1974
150.63040500,150630405,1,-0.002106297295540571,-0.002288013929501176,0.0014659633161500096,-0.49611181020736694,-0.14376255869865417,-9.949853897094727,32,1,44.0,0,0,2026,1974
150.63291600,150632916,1,-0.002106297295540571,-0.002288015326485038,0.0014659633161500096,-0.49611181020736694,-0.14376255869865417,-9.949853897094727,32,1,44.0,0,0,2026,1974
150.63540300,150635403,1,-0.002106296131387353,-0.002288013929501176,0.0014659633161500096,-0.49611181020736694,-0.14376255869865417,-9.949853897094727,32,1,44.0,0,0,2026,1974
150.63790300,150637903,1,-0.0021062977612018585,-0.002288015093654394,0.0014659633161500096,-0.49611181020736694,-0.14376255869865417,-9.949853897094727,32,1,44.0,0,0,2026,1974
150.64079000,150640790,1,-0.0021062963642179966,-0.0022880141623318195,0.0014659633161500096,-0.49611181020736694,-0.14376255869865417,-9.949853897094727,32,1,44.0,0,0,2026,1974
150.64289500,150642895,1,-0.002106297295540571,-0.002288013929501176,0.0014659633161500096,-0.49611181020736694,-0.14376255869865417,-9.949853897094727,32,1,44.0,0,0,2026,1974
150.64543900,150645439,1,-0.002106296829879284,-0.002288015093654394,0.0014659633161500096,-0.49611181020736694,-0.14376255869865417,-9.949853897094727,32,1,44.0,0,0,2026,1974
150.64789700,150647897,1,-0.002106296829879284,-0.0022880136966705322,0.0014659633161500096,-0.49611181020736694,-0.14376255869865417,-9.949853897094727,32,1,44.0,0,0,2026,1974
150.65043000,150650430,1,-0.0021062977612018585,-0.002288015093654394,0.0014659633161500096,-0.49611181020736694,-0.14376255869865417,-9.949853897094727,32,1,44.0,0,0,2026,1974
150.65333600,150653336,1,-0.002106296131387353,-0.002288013929501176,0.0014659633161500096,-0.49611181020736694,-0.14376255869865417,-9.949853897094727,32,1,44.0,0,0,2026,1974
150.65552300,150655523,1,-0.0021062977612018585,-0.0022880148608237505,0.0014659633161500096,-0.49611181020736694,-0.14376255869865417,-9.949853897094727,32,1,44.0,0,0,2026,1974
150.65791600,150657916,1,-0.002106296829879284,-0.002288015093654394,0.0014659633161500096,-0.49611181020736694,-0.14376255869865417,-9.949853897094727,32,1,44.0,0,0,2026,1974
150.66040700,150660407,1,-0.002106297295540571,-0.002288013929501176,0.0014659633161500096,-0.49611181020736694,-0.14376255869865417,-9.949853897094727,32,1,44.0,0,0,2026,1974
150.66292100,150662921,1,-0.002106297295540571,-0.002288015326485038,0.0014659633161500096,-0.49611181020736694,-0.14376255869865417,-9.949853897094727,32,1,44.0,0,0,2026,1974
150.66589400,150665894,1,-0.002106296131387353,-0.002288013929501176,0.0014659633161500096,-0.49611181020736694,-0.14376255869865417,-9.949853897094727,32,1,44.0,0,0,2026,1974
150.66789900,150667899,1,-0.0021062977612018585,-0.002288015093654394,0.0014659633161500096,-0.49611181020736694,-0.14376255869865417,-9.949853897094727,32,1,44.0,0,0,2026,1974
150.67042100,150670421,1,-0.0021062963642179966,-0.0022880141623318195,0.0014659633161500096,-0.49611181020736694,-0.14376255869865417,-9.949853897094727,32,1,44.0,0,0,2026,1974
150.67290000,150672900,1,-0.002106297295540571,-0.002288013929501176,0.0014659633161500096,-0.49611181020736694,-0.14376255869865417,-9.949853897094727,32,1,44.0,0,0,2026,1974
150.67542400,150675424,1,-0.002106296829879284,-0.002288015093654394,0.0014659633161500096,-0.49611181020736694,-0.14376255869865417,-9.949853897094727,32,1,44.0,0,0,2026,1974
150.67839400,150678394,1,-0.002106296829879284,-0.0022880136966705322,0.0014659633161500096,-0.49611181020736694,-0.14376255869865417,-9.949853897094727,32,1,44.0,0,0,2026,1974
150.68041700,150680417,1,-0.0021062977612018585,-0.002288015093654394,0.0014659633161500096,-0.49611181020736694,-0.14376255869865417,-9.949853897094727,32,1,44.0,0,0,2026,1974
150.68291300,150682913,1,-0.002106296131387353,-0.002288013929501176,0.0014659633161500096,-0.49611181020736694,-0.14376255869865417,-9.949853897094727,32,1,44.0,0,0,2026,1974
150.68540300,150685403,1,-0.0021062977612018585,-0.0022880148608237505,0.0014659633161500096,-0.49611181020736694,-0.14376255869865417,-9.949853897094727,32,1,44.0,0,0,2026,1974
150.68791900,150687919,1,-0.002106296829879284,-0.002288015093654394,0.0014659633161500096,-0.49611181020736694,-0.14376255869865417,-9.949853897094727,32,1,44.0,0,0,2026,1974
150.69132100,150691321,1,-0.002106297295540571,-0.002288013929501176,0.0014659633161500096,-0.49611181020736694,-0.14376255869865417,-9.949853897094727,32,1,44.0,0,0,2026,1974
150.69290300,150692903,1,-0.002106297295540571,-0.002288015326485038,0.0014659633161500096,-0.49611181020736694,-0.14376255869865417,-9.949853897094727,32,1,44.0,0,0,2026,1974
150.69542500,150695425,1,-0.002106296131387353,-0.002288013929501176,0.0014659633161500096,-0.49611181020736694,-0.14376255869865417,-9.949853897094727,32,1,44.0,0,0,2026,1974
150.69791400,150697914,1,-0.0021062977612018585,-0.002288015093654394,0.0014659633161500096,-0.49611181020736694,-0.14376255869865417,-9.949853897094727,32,1,44.0,0,0,2026,1974
150.70041700,150700417,1,-0.0021062963642179966,-0.0022880141623318195,0.0014659633161500096,-0.49611181020736694,-0.14376255869865417,-9.949853897094727,32,1,44.0,0,0,2026,1974
150.70360000,150703600,1,-0.002106297295540571,-0.002288013929501176,0.0014659633161500096,-0.49611181020736694,-0.14376255869865417,-9.949853897094727,32,1,44.0,0,0,2026,1974
150.70541500,150705415,1,-0.002106296829879284,-0.002288015093654394,0.0014659633161500096,-0.49611181020736694,-0.14376255869865417,-9.949853897094727,32,1,44.0,0,0,2026,1974
150.70790600,150707906,1,-0.002106296829879284,-0.0022880136966705322,0.0014659633161500096,-0.49611181020736694,-0.14376255869865417,-9.949853897094727,32,1,44.0,0,0,2026,1974
150.71039300,150710393,1,-0.0021062977612018585,-0.002288015093654394,0.0014659633161500096,-0.49611181020736694,-0.14376255869865417,-9.949853897094727,32,1,44.0,0,0,2026,1974
150.71291400,150712914,1,-0.002106296131387353,-0.002288013929501176,0.0014659633161500096,-0.49611181020736694,-0.14376255869865417,-9.949853897094727,32,1,44.0,0,0,2026,1974
150.71586500,150715865,1,-0.0021062977612018585,-0.0022880148608237505,0.0014659633161500096,-0.49611181020736694,-0.14376255869865417,-9.949853897094727,32,1,44.0,0,0,2026,1974
150.71791200,150717912,1,-0.0021062963642179966,-0.0022880148608237505,0.0014659633161500096,-0.49611181020736694,-0.14376255869865417,-9.949853897094727,32,1,44.0,0,0,2026,1974
150.72041400,150720414,1,-0.002106297295540571,-0.002288013929501176,0.0014659633161500096,-0.49611181020736694,-0.14376255869865417,-9.949853897094727,32,1,44.0,0,0,2026,1974
150.72303300,150723033,1,-0.0021062977612018585,-0.002288015326485038,0.0014659633161500096,-0.49611181020736694,-0.14376255869865417,-9.949853897094727,32,1,44.0,0,0,2026,1974
150.72568900,150725689,1,-0.0021062963642179966,-0.0022880136966705322,0.0014659633161500096,-0.49611181020736694,-0.14376255869865417,-9.949853897094727,32,1,44.0,0,0,2026,1974
150.72852100,150728521,1,-0.0021062977612018585,-0.002288015093654394,0.0014659633161500096,-0.49611181020736694,-0.14376255869865417,-9.949853897094727,32,1,44.0,0,0,2026,1974
150.73048600,150730486,1,-0.0021062963642179966,-0.0022880148608237505,0.0014659633161500096,-0.49611181020736694,-0.14376255869865417,-9.949853897094727,32,1,44.0,0,0,2026,1974
150.73294800,150732948,1,-0.002106297528371215,-0.0022880141623318195,0.0014659633161500096,-0.49611181020736694,-0.14376255869865417,-9.949853897094727,32,1,44.0,0,0,2026,1974
150.73543100,150735431,1,-0.002106296829879284,-0.002288015093654394,0.0014659633161500096,-0.49611181020736694,-0.14376255869865417,-9.949853897094727,32,1,44.0,0,0,2026,1974
150.73789600,150737896,1,-0.0021062963642179966,-0.0022880136966705322,0.0014659633161500096,-0.49611181020736694,-0.14376255869865417,-9.949853897094727,32,1,44.0,0,0,2026,1974
150.74088200,150740882,1,-0.0021062977612018585,-0.002288015326485038,0.0014659633161500096,-0.49611181020736694,-0.14376255869865417,-9.949853897094727,32,1,44.0,0,0,2026,1974
150.74289100,150742891,1,-0.002106296131387353,-0.002288013929501176,0.0014659633161500096,-0.49611181020736694,-0.14376255869865417,-9.949853897094727,32,1,44.0,0,0,2026,1974
150.74544800,150745448,1,-0.002106297528371215,-0.0022880141623318195,0.0014659633161500096,-0.49611181020736694,-0.14376255869865417,-9.949853897094727,32,1,44.0,0,0,2026,1974
150.74795400,150747954,1,-0.0021062963642179966,-0.0022880148608237505,0.0014659633161500096,-0.49611181020736694,-0.14376255869865417,-9.949853897094727,32,1,44.0,0,0,2026,1974
150.75038100,150750381,1,-0.002106297295540571,-0.002288013929501176,0.0014659633161500096,-0.49611181020736694,-0.14376255869865417,-9.949853897094727,32,1,44.0,0,0,2026,1974
150.75334300,150753343,1,-0.002106297295540571,-0.002288015326485038,0.0014659633161500096,-0.49611181020736694,-0.14376255869865417,-9.949853897094727,32,1,44.0,0,0,2026,1974
150.75552700,150755527,1,-0.0021062963642179966,-0.0022880136966705322,0.0014659633161500096,-0.49611181020736694,-0.14376255869865417,-9.949853897094727,32,1,44.0,0,0,2026,1974
150.75795500,150757955,1,-0.0021062977612018585,-0.0022880148608237505,0.0014659633161500096,-0.49611181020736694,-0.14376255869865417,-9.949853897094727,32,1,44.0,0,0,2026,1974
150.76041600,150760416,1,-0.0021062963642179966,-0.0022880141623318195,0.0014659633161500096,-0.49611181020736694,-0.14376255869865417,-9.949853897094727,32,1,44.0,0,0,2026,1974
150.76293100,150762931,1,-0.002106297528371215,-0.0022880141623318195,0.0014659633161500096,-0.4830988645553589,-0.1446981430053711,-9.948783874511719,32,1,44.0,0,0,2026,1972
150.76599300,150765993,1,-0.002106297295540571,-0.002288015326485038,0.0014659633161500096,-0.46324431896209717,-0.14564692974090576,-9.948607444763184,32,1,44.0,0,0,2026,1972
150.76794200,150767942,1,-0.002106296829879284,-0.0022880136966705322,0.0014659633161500096,-0.4408622980117798,-0.14594507217407227,-9.948538780212402,32,1,44.0,0,0,2026,1972
150.77047700,150770477,1,-0.0021062977612018585,-0.002288015326485038,0.0014659633161500096,-0.43241217732429504,-0.1440640091896057,-9.949606895446777,32,1,44.0,0,0,2026,1972
150.77293800,150772938,1,-0.002106296131387353,-0.002288013929501176,0.0014659633161500096,-0.4299542009830475,-0.14302490651607513,-9.950727462768555,32,1,44.0,0,0,2026,1972
150.77547300,150775473,1,-0.0021062977612018585,-0.0022880148608237505,0.0014659633161500096,-0.4336854815483093,-0.1435786783695221,-9.950654029846191,32,1,44.0,0,0,2026,1972
150.77839100,150778391,1,-0.002106296829879284,-0.002288015093654394,0.0014659633161500096,-0.44163966178894043,-0.14480938017368317,-9.950897216796875,32,1,44.0,0,0,2026,1972
150.78042200,150780422,1,-0.002106297295540571,-0.002288013929501176,0.0014659633161500096,-0.4520602524280548,-0.1439635008573532,-9.954455375671387,32,1,43.5,0,0,2026,1972
150.78293900,150782939,1,-0.002106297295540571,-0.002288015326485038,0.0014659633161500096,-0.46193933486938477,-0.14249691367149353,-9.957118034362793,32,1,43.5,0,0,2026,1972
150.78543200,150785432,1,-0.0021062963642179966,-0.0022880136966705322,0.0014659633161500096,-0.4728303551673889,-0.14014029502868652,-9.960118293762207,33,1,43.5,0,0,2026,1972
150.78793800,150787938,1,-0.0021062977612018585,-0.002288015093654394,0.0014659633161500096,-0.47959640622138977,-0.13894698023796082,-9.962438583374023,33,1,43.5,0,0,2026,1972
150.79145200,150791452,1,-0.0021062963642179966,-0.0022880148608237505,0.0014659633161500096,-0.4842672646045685,-0.13662084937095642,-9.963333129882812,33,1,43.5,0,0,2026,1972
150.79293400,150792934,1,-0.002106297528371215,-0.0022880141623318195,0.0014659633161500096,-0.4893980324268341,-0.1315305233001709,-9.966824531555176,33,1,43.5,0,0,2026,1972
150.79542300,150795423,1,-0.002105484949424863,-0.0022961327340453863,0.001460281084291637,-0.4925177991390228,-0.1313035935163498,-9.96896743774414,34,1,43.5,0,0,2026,1972
150.79871900,150798719,1,-0.002105484949424863,-0.0022961327340453863,0.001460281084291637,-0.49620378017425537,-0.13359896838665009,-9.96855354309082,34,1,43.5,0,0,2026,1972
150.80037400,150800374,1,-0.002105484949424863,-0.0022961327340453863,0.001460281084291637,-0.4978179633617401,-0.13413959741592407,-9.965234756469727,34,1,43.5,0,0,2026,1972
150.80355200,150803552,1,-0.002105484949424863,-0.0022961327340453863,0.001460281084291637,-0.5002356171607971,-0.1341937631368637,-9.96191692352295,34,1,43.5,0,0,2026,1972
150.80541400,150805414,1,-0.002105484949424863,-0.0022961327340453863,0.001460281084291637,-0.5023592710494995,-0.13644878566265106,-9.955930709838867,34,1,43.5,0,0,2026,1972
150.80791900,150807919,1,-0.002105484949424863,-0.0022961327340453863,0.001460281084291637,-0.5053307414054871,-0.13941854238510132,-9.949094772338867,34,1,43.5,0,0,2026,1972
150.81043600,150810436,1,-0.0020602450240403414,-0.002355922246351838,0.0014242419274523854,-0.5053407549858093,-0.13981260359287262,-9.945818901062012,34,1,43.5,0,0,2026,1972
150.81301900,150813019,1,-0.0018215610180050135,-0.0018158155726268888,0.001276870840229094,-0.5053389668464661,-0.13909366726875305,-9.946250915527344,34,1,43.5,0,0,2026,1972
150.81592600,150815926,1,-0.0004355986893642694,0.00024913204833865166,0.0011074133217334747,-0.5047439336776733,-0.13801011443138123,-9.949398040771484,34,1,43.5,0,0,2026,1972
150.81791300,150817913,1,0.0015589843969792128,0.0019497789908200502,0.0006287451251409948,-0.5016888976097107,-0.13921517133712769,-9.948803901672363,34,1,43.5,0,0,2026,1972
150.82056800,150820568,1,0.0034846188500523567,0.003447173163294792,0.00011037135118385777,-0.4985782504081726,-0.14350052177906036,-9.946945190429688,34,1,43.5,0,0,2026,1972
150.82294900,150822949,1,0.00532942358404398,0.004871791694313288,0.00014230790839064866,-0.4925900995731354,-0.1477198749780655,-9.943364143371582,34,1,43.5,0,0,2026,1972
150.82545700,150825457,1,0.005563631653785706,0.005445822607725859,0.0005449377349577844,-0.48876702785491943,-0.1522156447172165,-9.940595626831055,34,1,43.5,0,0,2026,1972
150.82849800,150828498,1,0.005642008036375046,0.005465121008455753,0.0009289722074754536,-0.4911450147628784,-0.1560819298028946,-9.93994426727295,34,1,43.5,0,0,2026,1972
150.83045900,150830459,1,0.005198253318667412,0.0050941333174705505,0.0008258976158685982,-0.49665942788124084,-0.15917104482650757,-9.94245719909668,34,1,43.5,0,0,2026,1972
150.83298900,150832989,1,0.004444679245352745,0.0041761077009141445,0.0010422245832160115,-0.49849340319633484,-0.16061539947986603,-9.943977355957031,34,1,43.5,0,0,2026,1972
150.83548100,150835481,1,0.00408842833712697,0.003389571560546756,0.0010358322178944945,-0.4993661344051361,-0.15880751609802246,-9.943445205688477,34,1,43.5,0,0,2026,1972
150.83793300,150837933,1,0.0033152992837131023,0.0027308131102472544,0.0005042720003984869,-0.4987707734107971,-0.15283797681331635,-9.944089889526367,34,1,43.5,0,0,2026,1972
150.84097000,150840970,1,0.0030156036373227835,0.0018315151100978255,0.0008096090750768781,-0.4977229833602905,-0.14916996657848358,-9.94598388671875,34,1,43.5,0,0,2026,1972
150.84293100,150842931,1,0.002367857377976179,0.0006365301087498665,0.0012055408442392945,-0.4944492280483246,-0.147786945104599,-9.945792198181152,34,1,43.5,0,0,2026,1972
150.84545100,150845451,1,0.0019313740776851773,-8.336595783475786e-05,0.0013748466735705733,-0.49141713976860046,-0.14714045822620392,-9.947221755981445,34,1,43.5,0,0,2026,1972
150.84792400,150847924,1,0.0017664158949628472,-0.00044443210936151445,0.001346376957371831,-0.4891960918903351,-0.14440017938613892,-9.948464393615723,34,1,43.5,0,0,2026,1972
150.85044300,150850443,1,0.0012703699758276343,-0.0014349271077662706,0.0011680363677442074,-0.48428216576576233,-0.14190086722373962,-9.946501731872559,34,1,43.5,0,0,2026,1972
150.85336000,150853360,1,0.0007617950323037803,-0.0020058858208358288,0.0014229008229449391,-0.4809109568595886,-0.14084306359291077,-9.94648265838623,34,1,43.5,0,0,2026,1972
150.85563800,150855638,1,0.00047871257993392646,-0.002227638615295291,0.0018154637655243278,-0.47729256749153137,-0.13992181420326233,-9.944591522216797,34,1,43.5,0,0,2026,1972
150.85796500,150857965,1,0.00016734680684749037,-0.002871008589863777,0.0016213406343013048,-0.4776102900505066,-0.13884972035884857,-9.937993049621582,34,1,43.5,0,0,2026,1972
150.86050600,150860506,1,-0.0002575596736278385,-0.003000182332471013,0.0011703503550961614,-0.47813713550567627,-0.13961046934127808,-9.93464183807373,34,1,43.5,0,0,2026,1972
150.86293600,150862936,1,-0.0005959921982139349,-0.003105943789705634,0.0014615730615332723,-0.48075637221336365,-0.14057883620262146,-9.937859535217285,34,1,43.5,0,0,2026,1972
150.86584600,150865846,1,-0.0004559058870654553,-0.0029053008183836937,0.0008825459517538548,-0.4826829135417938,-0.14197032153606415,-9.939870834350586,34,1,43.5,0,0,2026,1972
150.86798800,150867988,1,-0.0001825469225877896,-0.0023345353547483683,0.000926219392567873,-0.4831911325454712,-0.14255023002624512,-9.942389488220215,34,1,43.5,0,0,2026,1972
150.87044700,150870447,1,0.000181369818164967,-0.0021223770454525948,0.0004394079151097685,-0.48009270429611206,-0.1409860998392105,-9.947192192077637,34,1,43.5,0,0,2026,1972
150.87296900,150872969,1,0.0003240502846892923,-0.0018226628890261054,2.4368777303607203e-05,-0.47640639543533325,-0.14189346134662628,-9.949532508850098,34,1,43.5,0,0,2026,1972
150.87550600,150875506,1,0.0004398298333398998,-0.0013250088086351752,-0.000518023211043328,-0.47696632146835327,-0.1456727534532547,-9.952542304992676,34,1,43.5,0,0,2026,1972
150.87839800,150878398,1,0.0005920335534028709,-0.0014461398823186755,-0.0007250738563016057,-0.47842898964881897,-0.14912208914756775,-9.954712867736816,34,1,43.5,0,0,2026,1972
150.88042700,150880427,1,0.0008373340242542326,-0.001470105373300612,-0.0006855649407953024,-0.4781505763530731,-0.15241895616054535,-9.951253890991211,34,1,43.5,0,0,2026,1972
150.88293400,150882934,1,0.0010154376504942775,-0.0016031988197937608,-0.0006356079829856753,-0.4785308241844177,-0.1561889350414276,-9.949172973632812,34,1,43.5,0,0,2026,1972
150.88544800,150885448,1,0.0011943723075091839,-0.001912856474518776,-0.0004489657294470817,-0.48112425208091736,-0.15937121212482452,-9.94917106628418,34,1,43.5,0,0,2026,1972
150.88891900,150888919,1,0.0014386419206857681,-0.002284892136231065,-0.00035588344326242805,-0.48336294293403625,-0.15989604592323303,-9.947288513183594,34,1,43.5,0,0,2026,1972
150.89043600,150890436,1,0.0012032634112983942,-0.0026632295921444893,-0.00023762161436025053,-0.4851303696632385,-0.16077083349227905,-9.940980911254883,34,1,43.5,0,0,2026,1972
150.89293300,150892933,1,0.0011652238899841905,-0.0028924390207976103,0.00020731001859530807,-0.48912519216537476,-0.16281172633171082,-9.937381744384766,34,1,43.5,0,0,2026,1972
150.89554100,150895541,1,0.0011894647032022476,-0.0030495021492242813,0.0002270149125251919,-0.49037009477615356,-0.16359373927116394,-9.937822341918945,34,1,43.5,0,0,2026,1972
150.89793700,150897937,1,0.0006149820983409882,-0.0029582094866782427,0.0006975098513066769,-0.4966506063938141,-0.16235093772411346,-9.945114135742188,34,1,43.5,0,0,2026,1972
150.90109900,150901099,1,0.00032375779119320214,-0.0027576792053878307,0.0013164517004042864,-0.5035771727561951,-0.1606263816356659,-9.950347900390625,34,1,43.5,0,0,2026,1972
150.90303800,150903038,1,-9.84215730568394e-05,-0.002363763749599457,0.001441147644072771,-0.5071027278900146,-0.15668119490146637,-9.953648567199707,34,1,43.5,0,0,2026,1972
150.90544100,150905441,1,-0.0007004301878623664,-0.0017805126262828708,0.0015247901901602745,-0.5094739198684692,-0.15138021111488342,-9.95952033996582,34,1,43.5,0,0,2026,1972
150.90793500,150907935,1,-0.0007427266682498157,-0.00207941560074687,0.0013061087811365724,-0.5069698095321655,-0.1486554890871048,-9.964106559753418,34,1,43.5,0,0,2026,1972
150.91050000,150910500,1,-0.000767335353884846,-0.0020892960019409657,0.0012951419921591878,-0.505754292011261,-0.14758771657943726,-9.963603019714355,34,1,43.5,0,0,2026,1972
150.91339900,150913399,1,-0.0006033543613739312,-0.0015719063812866807,0.0014528948813676834,-0.5078752040863037,-0.14775584638118744,-9.960973739624023,34,1,43.5,0,0,2026,1972
150.91544000,150915440,1,-0.0005117668188177049,-0.0013712371001020074,0.001188330934382975,-0.5067577362060547,-0.14937379956245422,-9.959113121032715,34,1,43.5,0,0,2026,1972
150.91798500,150917985,1,-0.0007841576007194817,-0.0013231667689979076,0.0012960243038833141,-0.5041199922561646,-0.1521294116973877,-9.95750617980957,34,1,43.5,0,0,2026,1972
150.92043300,150920433,1,-0.0005902735865674913,-0.001630028709769249,0.0009333269554190338,-0.4994710385799408,-0.15437516570091248,-9.95954704284668,34,1,43.5,0,0,2026,1972
150.92295900,150922959,1,-0.0005416099447757006,-0.0018664567032828927,0.0007044695084914565,-0.49720266461372375,-0.15347731113433838,-9.962063789367676,34,1,43.5,0,0,2026,1972
150.92598700,150925987,1,-0.00020804077212233096,-0.0019744152668863535,0.0008254566928371787,-0.4948946237564087,-0.15535274147987366,-9.96641731262207,34,1,43.5,0,0,2026,1972
150.92793600,150927936,1,-5.3690873755840585e-05,-0.0016119129722937942,0.0009775786893442273,-0.4939028322696686,-0.15745773911476135,-9.965703010559082,34,1,43.5,0,0,2026,1972
150.93049200,150930492,1,9.456213592784479e-05,-0.0013572574825957417,0.0008382310043089092,-0.4956437945365906,-0.15918219089508057,-9.965065956115723,34,1,43.5,0,0,2026,1972
150.93300100,150933001,1,0.000574240752030164,-0.0008806649129837751,0.00015810683544259518,-0.4970639646053314,-0.1619880050420761,-9.96451473236084,34,1,43.5,0,0,2026,1972
150.93543000,150935430,1,0.0007991109159775078,-0.0009903311729431152,1.970084304048214e-05,-0.49618032574653625,-0.16185472905635834,-9.962688446044922,34,1,43.5,0,0,2026,1972
150.93838400,150938384,1,0.0011073589557781816,-0.0009584591025486588,-0.0003050303494092077,-0.4954371154308319,-0.15832044184207916,-9.964743614196777,34,1,43.5,0,0,2026,1972
150.94042700,150940427,1,0.0018402980640530586,-0.0005895753856748343,-0.0003221995139028877,-0.4930427074432373,-0.1545238345861435,-9.967123031616211,34,1,43.5,0,0,2026,1972
150.94294300,150942943,1,0.0022102457005530596,-0.0005822456441819668,-0.0004651480703614652,-0.49163109064102173,-0.14927269518375397,-9.970038414001465,34,1,43.5,0,0,2026,1972
150.94545100,150945451,1,0.002087704371660948,-0.0007485532551072538,-0.0007883110083639622,-0.4885718524456024,-0.14474590122699738,-9.974634170532227,34,1,43.5,0,0,2026,1972
150.94794700,150947947,1,0.0018450211500748992,-0.001259221346117556,-0.0009855212410911918,-0.48672130703926086,-0.14250893890857697,-9.9754638671875,34,1,43.5,0,0,2026,1972
150.95089400,150950894,1,0.0017438207287341356,-0.0014449821319431067,-0.0011384269455447793,-0.48609820008277893,-0.14187397062778473,-9.972574234008789,34,1,43.5,0,0,2026,1972
150.95294600,150952946,1,0.0017436054768040776,-0.0015764866257086396,-0.0009805446024984121,-0.48559990525245667,-0.142157644033432,-9.96533203125,34,1,43.5,0,0,2026,1972
150.95552200,150955522,1,0.002226025564596057,-0.0018517376156523824,-0.0006398882251232862,-0.48562926054000854,-0.14290089905261993,-9.959329605102539,34,1,43.5,0,0,2026,1972
150.95799200,150957992,1,0.002501755254343152,-0.0017078524688258767,-0.00035784306237474084,-0.48542341589927673,-0.14429184794425964,-9.957232475280762,34,1,43.5,0,0,2026,1972
150.96042700,150960427,1,0.002787518547847867,-0.0013076345203444362,-6.831350037828088e-05,-0.4840220808982849,-0.14873868227005005,-9.95404052734375,34,1,43.5,0,0,2026,1972
150.96333200,150963332,1,0.0024343780241906643,-0.0012821193085983396,-1.585839709150605e-05,-0.48405468463897705,-0.15028363466262817,-9.951384544372559,34,1,43.5,0,0,2026,1972
150.96542400,150965424,1,0.002029233844950795,-0.0010538097703829408,-0.00027244671946391463,-0.4878626763820648,-0.1527024656534195,-9.948610305786133,34,1,43.5,0,0,2026,1972
150.96795300,150967953,1,0.001489422400481999,-0.0011444136034697294,-0.00022348531638272107,-0.48696017265319824,-0.15254749357700348,-9.948773384094238,34,1,43.5,0,0,2026,1972
150.97051700,150970517,1,0.0009317526710219681,-0.0010110449511557817,1.828868334996514e-05,-0.4866432547569275,-0.15095415711402893,-9.949275970458984,34,1,43.5,0,0,2026,1972
150.97300000,150973000,1,0.00044510801672004163,-0.00068925746018067,-8.062001870712265e-05,-0.486359566450119,-0.1523960679769516,-9.947239875793457,34,1,43.5,0,0,2026,1972
150.97585700,150975857,1,0.00027386893634684384,-0.0005481926491484046,-0.00033191783586516976,-0.4871441721916199,-0.15403741598129272,-9.946982383728027,34,1,43.5,0,0,2026,1972
150.97795800,150977958,1,6.679949729004875e-05,-0.0005497966194525361,-0.000307323265587911,-0.4862508475780487,-0.15410210192203522,-9.947283744812012,34,1,43.5,0,0,2026,1972
150.98042600,150980426,1,-0.00030191466794349253,6.567311356775463e-05,-0.00030382577097043395,-0.4864960312843323,-0.15249183773994446,-9.949070930480957,34,1,43.5,0,0,2026,1972
150.98294300,150982943,1,-0.0009491036762483418,0.00021783435659017414,-0.000894738535862416,-0.4855000972747803,-0.1517949104309082,-9.950469017028809,34,1,43.5,0,0,2026,1972
150.98545800,150985458,1,-0.0007628691382706165,2.1864349037059583e-05,-0.0010393186239525676,-0.4811721444129944,-0.15228410065174103,-9.948511123657227,34,1,43.5,0,0,2026,1972
150.98840600,150988406,1,-0.0006669628783129156,0.0004317177808843553,-0.0010720464633777738,-0.47770729660987854,-0.15317460894584656,-9.944918632507324,34,1,43.5,0,0,2026,1972
150.99049300,150990493,1,-0.0005500321858562529,0.0003671608865261078,-0.0010410352842882276,-0.47674867510795593,-0.15396364033222198,-9.9443941116333,34,1,43.5,0,0,2026,1972
150.99295300,150992953,1,-0.0005306844250299037,0.00013531824515666813,-0.00042550318175926805,-0.48187118768692017,-0.15537557005882263,-9.950068473815918,34,1,43.5,0,0,2026,1972
150.99544800,150995448,1,-0.0002663357590790838,-2.0486755602178164e-05,-8.673677075421438e-05,-0.485260933637619,-0.1560848206281662,-9.953390121459961,34,1,43.5,0,0,2026,1972
150.99795000,150997950,1,8.60246000229381e-05,-0.00047284967149607837,0.00024000894336495548,-0.48609960079193115,-0.15439267456531525,-9.954109191894531,34,1,43.5,0,0,2026,1972
151.00156700,151001567,1,0.0006653057062067091,-0.0011331720743328333,0.00044611276825889945,-0.485836923122406,-0.15128333866596222,-9.956293106079102,34,1,43.5,0,0,2026,1972
151.00292800,151002928,1,0.0008877461077645421,-0.0015698237111791968,0.00021104217739775777,-0.48544466495513916,-0.14941838383674622,-9.956355094909668,34,1,43.5,0,0,2026,1972
151.00543700,151005437,1,0.0012331617763265967,-0.0021724116522818804,-9.575215517543256e-05,-0.4852464199066162,-0.143409863114357,-9.956868171691895,34,1,43.5,0,0,2026,1972
151.00792700,151007927,1,0.0019366518827155232,-0.0028760149143636227,-0.0005059385439381003,-0.48431530594825745,-0.1416665017604828,-9.954925537109375,34,1,43.5,0,0,2026,1972
151.01051600,151010516,1,0.0023288296069949865,-0.0032507190480828285,-0.000573874160181731,-0.48492908477783203,-0.1386915147304535,-9.95272445678711,34,1,43.5,0,0,2026,1972
151.01339500,151013395,1,0.002613389864563942,-0.002589092357084155,-0.0006945915520191193,-0.48710376024246216,-0.13501951098442078,-9.950039863586426,34,1,43.5,0,0,2026,1972
151.01548700,151015487,1,0.0022502760402858257,-0.0025103336665779352,-0.0008669169619679451,-0.48944205045700073,-0.13212256133556366,-9.947354316711426,34,1,43.5,0,0,2026,1972
151.01798100,151017981,1,0.002353830263018608,-0.0022957241162657738,-0.0011988553451374173,-0.4908507168292999,-0.13105508685112,-9.947795867919922,34,1,43.5,0,0,2026,1972
151.02045000,151020450,1,0.0024452104698866606,-0.0012675978941842914,-0.0007034596637822688,-0.4916820228099823,-0.13264550268650055,-9.95158863067627,34,1,43.5,0,0,2026,1972
151.02296100,151022961,1,0.0024949985090643167,-0.0006481800810433924,-0.0006372571806423366,-0.4902229607105255,-0.1362571120262146,-9.952921867370605,34,1,43.5,0,0,2026,1972
151.02589900,151025899,1,0.0024529113434255123,-0.001332984771579504,-0.0006949749658815563,-0.49318960309028625,-0.13972745835781097,-9.956564903259277,34,1,43.5,0,0,2026,1972
151.02794900,151027949,1,0.00210365979000926,-0.0013023139908909798,-0.0010692295618355274,-0.4942483901977539,-0.14659397304058075,-9.958173751831055,34,1,43.5,0,0,2026,1972
151.03056800,151030568,1,0.0017234791303053498,-0.001182663138024509,-0.0011210391530767083,-0.49305227398872375,-0.15201441943645477,-9.956708908081055,34,1,43.5,0,0,2026,1972
151.03295700,151032957,1,0.0014334353618323803,-0.0013168089790269732,-0.0007869314285926521,-0.4922182261943817,-0.15743042528629303,-9.954659461975098,34,1,43.5,0,0,2026,1972
151.03546600,151035466,1,0.0020110264886170626,-0.0012542096665129066,-0.0007636260706931353,-0.4903630018234253,-0.15647584199905396,-9.951086044311523,34,1,43.5,0,0,2026,1972
151.03859300,151038593,1,0.002201976953074336,-0.0012191650457680225,-0.0009386328747496009,-0.490643709897995,-0.15424734354019165,-9.948460578918457,34,1,43.5,0,0,2026,1972
151.04043600,151040436,1,0.0021616853773593903,-0.0016035429434850812,-0.0009424658492207527,-0.49057263135910034,-0.15650801360607147,-9.945025444030762,34,1,43.5,0,0,2026,1972
151.04295400,151042954,1,0.0024420779664069414,-0.0013579829828813672,-0.0006445437320508063,-0.49194949865341187,-0.15792076289653778,-9.947275161743164,34,1,43.5,0,0,2026,1972
151.04545800,151045458,1,0.002584052039310336,-0.001191039220429957,-0.0002551828511059284,-0.4962157905101776,-0.15702210366725922,-9.952104568481445,34,1,43.5,0,0,2026,1972
151.04792400,151047924,1,0.002540045417845249,-0.001344882184639573,5.5141328630270436e-05,-0.5031051635742188,-0.15306206047534943,-9.952512741088867,34,1,43.5,0,0,2026,1972
151.05091700,151050917,1,0.0026464243419468403,-0.00180412910412997,9.830600902205333e-05,-0.5063368082046509,-0.1501142680644989,-9.954401016235352,34,1,43.5,0,0,2026,1972
151.05291400,151052914,1,0.002219823654741049,-0.0019719547126442194,0.00035410290001891553,-0.5108412504196167,-0.14634577929973602,-9.956212043762207,34,1,43.5,0,0,2026,1972
151.05554000,151055540,1,0.002120749093592167,-0.0017479878151789308,0.0002659164310898632,-0.5124130249023438,-0.14601215720176697,-9.955036163330078,34,1,43.5,0,0,2026,1972
151.05800200,151058002,1,0.002219702582806349,-0.0016208234010264277,8.530587365385145e-05,-0.512812614440918,-0.1443292796611786,-9.956049919128418,34,1,43.5,0,0,2026,1972
151.06044200,151060442,1,0.002484534867107868,-0.0017416991759091616,-1.0381823813077062e-05,-0.5115575790405273,-0.14795315265655518,-9.959040641784668,34,1,43.5,0,0,2026,1972
151.06341600,151063416,1,0.0023266419302672148,-0.0017768931575119495,0.00029640449793078005,-0.5101814866065979,-0.14914897084236145,-9.964028358459473,34,1,43.5,0,0,2026,1972
151.06543200,151065432,1,0.002133586909621954,-0.0013327669585123658,0.00033042742870748043,-0.5077230334281921,-0.1515161395072937,-9.977361679077148,34,1,43.5,0,0,2026,1972
151.06793700,151067937,1,0.002097124233841896,-0.0012257210910320282,0.0005869690794497728,-0.5075076818466187,-0.15174376964569092,-9.98774528503418,34,1,43.5,0,0,2026,1972
151.07049600,151070496,1,0.002534659579396248,-0.0009254930191673338,0.0005985838361084461,-0.5068500638008118,-0.15234540402889252,-9.992682456970215,34,1,43.5,0,0,2026,1972
151.07294400,151072944,1,0.0027948282659053802,-0.0007564530824311078,0.00032320115133188665,-0.5074633359909058,-0.15321063995361328,-9.988150596618652,34,1,43.5,0,0,2026,1972
151.07584100,151075841,1,0.0030160192400217056,-0.000845896836835891,0.00015857401012908667,-0.5125320553779602,-0.15307097136974335,-9.980913162231445,34,1,43.5,0,0,2026,1972
151.07795400,151077954,1,0.003340161871165037,-0.0005879492964595556,0.00011860004451591522,-0.5145207047462463,-0.15255922079086304,-9.977009773254395,34,1,43.5,0,0,2026,1972
151.08043700,151080437,1,0.003297211602330208,-0.0007534770993515849,-1.0082173957925988e-06,-0.5105583667755127,-0.15473905205726624,-9.968832969665527,34,1,43.5,0,0,2026,1972
151.08300300,151083003,1,0.0026171172503381968,-0.0008376232581213117,0.00010312221274944022,-0.5056778192520142,-0.15593281388282776,-9.965890884399414,34,1,43.5,0,0,2026,1972
151.08545000,151085450,1,0.0019368723733350635,-0.0015651992289349437,0.0003507741785142571,-0.4981063902378082,-0.15569837391376495,-9.964898109436035,34,1,43.5,0,0,2026,1972
151.08840400,151088404,1,0.0014803684316575527,-0.001964774914085865,0.00048815790796652436,-0.4951460361480713,-0.15201765298843384,-9.965629577636719,34,1,43.5,0,0,2026,1972
151.09045300,151090453,1,0.0013967822305858135,-0.002426975639536977,0.0007636734517291188,-0.4951725900173187,-0.14827844500541687,-9.963949203491211,34,1,43.5,0,0,2026,1972
151.09296200,151092962,1,0.0007330221706070006,-0.0029301350004971027,0.001180976745672524,-0.4935539662837982,-0.14460913836956024,-9.962553977966309,34,1,43.5,0,0,2026,1972
151.09545700,151095457,1,0.0004633151111193001,-0.0029067930299788713,0.0017752749845385551,-0.4878367483615875,-0.14271725714206696,-9.96106243133545,34,1,43.5,0,0,2026,1972
151.09794200,151097942,1,-3.705084964167327e-05,-0.0026629946660250425,0.0014051474863663316,-0.48522937297821045,-0.14321811497211456,-9.960774421691895,34,1,43.5,0,0,2026,1972
151.10165100,151101651,1,-0.00010999439109582454,-0.002815206302329898,0.001332955784164369,-0.4870016574859619,-0.143724262714386,-9.964726448059082,34,1,43.5,0,0,2026,1972
151.10284700,151102847,1,-8.010525198187679e-05,-0.0028870399110019207,0.000974784605205059,-0.4940516948699951,-0.14362706243991852,-9.96839714050293,34,1,43.5,0,0,2026,1972
151.10544500,151105445,1,-9.077855065697804e-05,-0.0029005699325352907,0.001306976773776114,-0.49440717697143555,-0.14710719883441925,-9.971141815185547,34,1,43.5,0,0,2026,1972
151.10792800,151107928,1,-0.00016299365961458534,-0.002820190042257309,0.0013953644083812833,-0.49173036217689514,-0.14976835250854492,-9.971083641052246,34,1,43.5,0,0,2026,1972
151.11089600,151110896,1,-9.715127816889435e-05,-0.002527879783883691,0.0009464893955737352,-0.48867225646972656,-0.15018872916698456,-9.969347953796387,34,1,43.5,0,0,2026,1972
151.11292700,151112927,1,0.0002709317777771503,-0.002438094699755311,0.0009012101218104362,-0.4847218096256256,-0.15271000564098358,-9.965202331542969,34,1,43.5,0,0,2026,1972
151.11545500,151115455,1,0.0002877154038287699,-0.0015690316213294864,0.0004440934571903199,-0.4847983121871948,-0.15189777314662933,-9.962300300598145,34,1,43.5,0,0,2026,1972
151.11792100,151117921,1,0.0006819121772423387,-0.0010035979794338346,0.0002023284905590117,-0.4831846058368683,-0.14829804003238678,-9.958561897277832,34,1,43.5,0,0,2026,1972
151.12044400,151120444,1,0.0008244379423558712,-0.0005605923943221569,-3.621826181188226e-05,-0.48545002937316895,-0.14299818873405457,-9.954691886901855,34,1,43.5,0,0,2026,1972
151.12335400,151123354,1,0.0013188880402594805,-0.0001796050346456468,-0.0004770248488057405,-0.48595187067985535,-0.1442795842885971,-9.952719688415527,34,1,43.5,0,0,2026,1972
151.12539900,151125399,1,0.0012474567629396915,-0.0006734476191923022,-0.000508332101162523,-0.48379766941070557,-0.14924125373363495,-9.949268341064453,34,1,43.5,0,0,2026,1972
151.12794000,151127940,1,0.0012439326383173466,-0.0012399364495649934,-0.0004344745830167085,-0.483349472284317,-0.1495557278394699,-9.94888687133789,34,1,43.5,0,0,2026,1972
151.13050500,151130505,1,0.0010605851421132684,-0.001548544387333095,-0.0005199485458433628,-0.4839518964290619,-0.1504855453968048,-9.949056625366211,34,1,43.5,0,0,2026,1972
151.13300100,151133001,1,0.0009866318432614207,-0.0018601508345454931,-0.0002667885273694992,-0.48364052176475525,-0.1509142518043518,-9.945389747619629,34,1,43.5,0,0,2026,1972
151.13597000,151135970,1,0.0007502125226892531,-0.00246679550036788,-0.00027234447770752013,-0.483569473028183,-0.15420924127101898,-9.942047119140625,34,1,43.5,0,0,2026,1972
151.13797300,151137973,1,0.00046260483213700354,-0.002638251753523946,-0.00020948945893906057,-0.48378825187683105,-0.1561741679906845,-9.941896438598633,34,1,43.5,0,0,2026,1972
151.14043700,151140437,1,0.00036131945671513677,-0.0032926411367952824,-0.00015168132085818797,-0.4827324151992798,-0.15845167636871338,-9.947551727294922,34,1,43.5,0,0,2026,1972
151.14294700,151142947,1,0.00015331075701396912,-0.0037257634103298187,7.750929216854274e-05,-0.48295387625694275,-0.160482257604599,-9.953557968139648,34,1,43.5,0,0,2026,1972
151.14553100,151145531,1,-9.870805661194026e-05,-0.0037298863753676414,0.0001567536237416789,-0.482825368642807,-0.16287502646446228,-9.956528663635254,34,1,43.5,0,0,2026,1972
151.14839500,151148395,1,0.00015113444533199072,-0.0031949749682098627,-0.00013096276961732656,-0.4870341718196869,-0.16497838497161865,-9.963595390319824,34,1,43.5,0,0,2026,1972
151.15045400,151150454,1,1.5990710380719975e-05,-0.002825880190357566,-0.0003768916940316558,-0.49297434091567993,-0.1643812358379364,-9.96940803527832,34,1,43.5,0,0,2026,1972
151.15292700,151152927,1,5.6650965234439354e-06,-0.0021047068294137716,-0.0004529967554844916,-0.4955151081085205,-0.16188038885593414,-9.974641799926758,34,1,43.5,0,0,2026,1972
151.15556500,151155565,1,0.00016802338359411806,-0.0005736731109209359,-0.0010884949006140232,-0.49572569131851196,-0.16078826785087585,-9.980707168579102,34,1,43.5,0,0,2026,1972
151.15793400,151157934,1,0.00038616647361777723,0.00045041213161312044,-0.0012245741672813892,-0.4956917464733124,-0.16006730496883392,-9.980504989624023,34,1,43.5,0,0,2026,1972
151.16093700,151160937,1,0.0004416587180458009,0.0010592177277430892,-0.0009994041174650192,-0.4966721534729004,-0.1583356410264969,-9.977398872375488,34,1,43.5,0,0,2026,1972
151.16292600,151162926,1,0.0009938928997144103,0.0007302216254174709,-0.0006986962398514152,-0.49896693229675293,-0.15487150847911835,-9.970430374145508,34,1,43.5,0,0,2026,1972
151.16541500,151165415,1,0.0010960305808112025,0.0006514664855785668,-0.000313105178065598,-0.49940311908721924,-0.15318338572978973,-9.965871810913086,34,1,43.5,0,0,2026,1972
151.16795700,151167957,1,0.0012534433044493198,0.0005873998161405325,0.00013350976223591715,-0.49644798040390015,-0.14897561073303223,-9.9631929397583,34,1,43.5,0,0,2026,1972
151.17043500,151170435,1,0.0013311272487044334,0.0005620692973025143,0.00018519109289627522,-0.4946764409542084,-0.14582867920398712,-9.96019172668457,34,1,43.5,0,0,2026,1972
151.17347400,151173474,1,0.0011810364667326212,0.0005867538857273757,0.00023338438768405467,-0.4938584864139557,-0.14449520409107208,-9.956611633300781,34,1,43.5,0,0,2026,1972
151.17545400,151175454,1,0.0013307039625942707,0.0004053004377055913,0.000329059170326218,-0.4883120059967041,-0.14303530752658844,-9.954499244689941,34,1,43.5,0,0,2026,1972
151.17794200,151177942,1,0.001022341544739902,2.2114900275482796e-05,0.0007441936177201569,-0.48177430033683777,-0.14292824268341064,-9.954681396484375,34,1,43.5,0,0,2026,1972
151.18045000,151180450,1,0.0009478825959376991,-0.0006531624239869416,0.000918128527700901,-0.4750247299671173,-0.14419025182724,-9.955981254577637,34,1,43.5,0,0,2026,1972
151.18293400,151182934,1,0.0008799740462563932,-0.001269462169148028,0.0012864226009696722,-0.4720017611980438,-0.14355534315109253,-9.955735206604004,34,1,43.5,0,0,2026,1972
151.18583400,151185834,1,0.0011844119289889932,-0.0015622740611433983,0.0012926837662234902,-0.47185003757476807,-0.14003106951713562,-9.956932067871094,34,1,43.5,0,0,2026,1972
151.18794900,151187949,1,0.0017672175308689475,-0.0018206138629466295,0.0018180664628744125,-0.4728294014930725,-0.13852064311504364,-9.959507942199707,34,1,43.5,0,0,2026,1972
151.19045200,151190452,1,0.0019817932043224573,-0.0015279750805348158,0.001943953917361796,-0.47707274556159973,-0.13664628565311432,-9.963828086853027,34,1,43.5,0,0,2026,1972
151.19293000,151192930,1,0.002059378195554018,-0.001256536808796227,0.0016394165577366948,-0.48199528455734253,-0.13478536903858185,-9.968207359313965,34,1,43.5,0,0,2026,1972
151.19546500,151195465,1,0.002150064567103982,-0.000362392864190042,0.0007225233130156994,-0.4868675768375397,-0.1358310580253601,-9.972190856933594,34,1,43.5,0,0,2026,1972
151.19860100,151198601,1,0.0014490608591586351,0.0002688616805244237,0.0007496760808862746,-0.4916444718837738,-0.1373816430568695,-9.97353458404541,34,1,43.5,0,0,2026,1972
151.20103900,151201039,1,0.0007455212762579322,0.0006373817450366914,0.0006422089063562453,-0.4960731565952301,-0.14308395981788635,-9.976984977722168,34,1,43.5,0,0,2026,1972
151.20292300,151202923,1,0.00028508147806860507,0.0002919500693678856,0.0006141866906546056,-0.4981876015663147,-0.14683382213115692,-9.97986125946045,34,1,43.5,0,0,2026,1972
151.20551700,151205517,1,0.00022700411500409245,-0.00039742240915074944,0.0007046975661069155,-0.4997633993625641,-0.15007413923740387,-9.978915214538574,34,1,43.5,0,0,2026,1972
151.20794100,151207941,1,-0.00015015338431112468,-0.0012948471121490002,0.0007639703107997775,-0.5044257044792175,-0.15129785239696503,-9.975672721862793,34,1,43.5,0,0,2026,1972
151.21060200,151210602,1,-0.0003537597949616611,-0.0019512453582137823,0.0005959118716418743,-0.5083726644515991,-0.15270639955997467,-9.971463203430176,34,1,43.5,0,0,2026,1972
151.21317700,151213177,1,5.7031880714930594e-05,-0.002283010631799698,0.0006180583732202649,-0.5092291831970215,-0.1535712629556656,-9.966217041015625,34,1,43.5,0,0,2026,1972
151.21546600,151215466,1,0.00011199987784493715,-0.0024460135027766228,0.0002989184285979718,-0.5065546035766602,-0.15295103192329407,-9.960796356201172,34,1,43.5,0,0,2026,1972
151.21800000,151218000,1,-0.00020512107585091144,-0.0021910963114351034,0.00045787860290147364,-0.5048925876617432,-0.15095959603786469,-9.960761070251465,34,1,43.5,0,0,2026,1972
151.22043300,151220433,1,-0.000113864109152928,-0.0021669769193977118,0.0010289212223142385,-0.5083257555961609,-0.1476343870162964,-9.966165542602539,34,1,43.5,0,0,2026,1972
151.22355800,151223558,1,-0.0002607222704682499,-0.00230652978643775,0.0011965569574385881,-0.5114249587059021,-0.145040825009346,-9.97158145904541,34,1,43.5,0,0,2026,1972
151.22566500,151225665,1,-0.00030581120518036187,-0.0018855829257518053,0.0011978365946561098,-0.5114205479621887,-0.1428765058517456,-9.975540161132812,34,1,43.5,0,0,2026,1972
151.22819200,151228192,1,-0.00012091056123608723,-0.0015202424256131053,0.0012728129513561726,-0.507929265499115,-0.13831761479377747,-9.977726936340332,34,1,43.5,0,0,2026,1972
151.23042800,151230428,1,0.000194361709873192,-0.0013463199138641357,0.00151035375893116,-0.5053783655166626,-0.13702255487442017,-9.97729778289795,34,1,43.5,0,0,2026,1972
151.23295300,151232953,1,0.00042348538408987224,-0.0011404966935515404,0.001177211874164641,-0.5052568912506104,-0.13928672671318054,-9.978053092956543,34,1,43.5,0,0,2026,1972
151.23595000,151235950,1,0.0006024864851497114,-0.0013900425983592868,0.0010357865830883384,-0.5062822103500366,-0.1403249204158783,-9.97619342803955,34,1,43.5,0,0,2026,1972
151.23800000,151238000,1,0.0007527110283263028,-0.0012992535484954715,0.0007155584171414375,-0.5066503286361694,-0.14028069376945496,-9.973908424377441,34,1,43.5,0,0,2026,1972
151.24044600,151240446,1,0.000683315098285675,-0.002026726258918643,0.0003838054835796356,-0.503478467464447,-0.1422862410545349,-9.970287322998047,34,1,43.5,0,0,2026,1972
151.24289200,151242892,1,0.000586182635743171,-0.0025228017475456,0.0005679064197465777,-0.5011122226715088,-0.14320845901966095,-9.966290473937988,34,1,43.5,0,0,2026,1972
151.24543700,151245437,1,0.0006054581608623266,-0.002185701858252287,0.00072087487205863,-0.5012497305870056,-0.14546798169612885,-9.96297836303711,34,1,43.5,0,0,2026,1972
151.24846300,151248463,1,0.0004285970062483102,-0.0017951556947082281,0.0006421625730581582,-0.5007912516593933,-0.14659176766872406,-9.956847190856934,34,1,43.5,0,0,2026,1972
151.25050000,151250500,1,0.0005444388370960951,-0.0014509299071505666,0.0005041505210101604,-0.4993734061717987,-0.15072405338287354,-9.95200252532959,34,1,43.5,0,0,2026,1972
151.25293900,151252939,1,0.0006094579002819955,-0.0009845594177022576,0.00015568998060189188,-0.49632203578948975,-0.15254755318164825,-9.947522163391113,34,1,43.5,0,0,2026,1972
151.25552600,151255526,1,0.0007782316533848643,-0.001338353962637484,0.00020940850663464516,-0.4928834140300751,-0.15322616696357727,-9.941640853881836,34,1,43.5,0,0,2026,1972
151.25801300,151258013,1,0.0008240396855399013,-0.001947107375599444,0.0006562984781339765,-0.4910961091518402,-0.15336133539676666,-9.940203666687012,34,1,43.5,0,0,2026,1972
151.26090300,151260903,1,0.0006324031855911016,-0.002387859160080552,0.0010650515323504806,-0.48933035135269165,-0.1537427306175232,-9.940278053283691,34,1,43.5,0,0,2026,1972
151.26297500,151262975,1,0.00012847266043536365,-0.002293590921908617,0.0010652904165908694,-0.489325612783432,-0.15497267246246338,-9.942153930664062,34,1,43.5,0,0,2026,1972
151.26547600,151265476,1,-0.0002874397032428533,-0.0015930677764117718,0.000908198649995029,-0.4918990135192871,-0.15571144223213196,-9.947209358215332,34,1,43.5,0,0,2026,1972
151.26794700,151267947,1,-0.0004476622270885855,-0.0007637956296093762,0.0009191907593049109,-0.4944732189178467,-0.15427038073539734,-9.952598571777344,34,1,43.5,0,0,2026,1972
151.27049800,151270498,1,-0.0009792795171961188,-0.00015665088722016662,0.0004989648004993796,-0.4966854751110077,-0.15254297852516174,-9.953411102294922,34,1,43.5,0,0,2026,1972
151.27342700,151273427,1,-0.0009674005559645593,0.0005743728834204376,-0.00021117868891451508,-0.49704286456108093,-0.1488267183303833,-9.952394485473633,34,1,43.5,0,0,2026,1972
151.27543000,151275430,1,-0.0006792245549149811,0.0007642182754352689,-0.00058207125402987,-0.496936172246933,-0.14533470571041107,-9.953418731689453,34,1,43.5,0,0,2026,1972
151.27799000,151277990,1,-0.000404239515773952,0.0010294484673067927,-0.0007795703131705523,-0.4972836971282959,-0.14333850145339966,-9.954416275024414,34,1,43.5,0,0,2026,1972
151.28042700,151280427,1,0.00015107175568118691,0.0012214023154228926,-0.0006898303399793804,-0.4949948489665985,-0.14420752227306366,-9.95401668548584,34,1,43.5,0,0,2026,1972
151.28334300,151283343,1,0.0003553908900357783,0.0009946792852133512,-0.0005487835733219981,-0.49256405234336853,-0.1460767239332199,-9.953238487243652,34,1,43.5,0,0,2026,1972
151.28543500,151285435,1,0.00041236323886550963,0.0011121314018964767,-0.00011408810678403825,-0.48900580406188965,-0.14683790504932404,-9.950251579284668,34,1,43.5,0,0,2026,1972
151.28794700,151287947,1,0.0003197001642547548,0.001135736471042037,0.0002766985271591693,-0.48659834265708923,-0.15112480521202087,-9.951586723327637,34,1,43.5,0,0,2026,1972
151.29043300,151290433,1,0.00011680442548822612,0.0009656790061853826,-3.888709034072235e-05,-0.4852150082588196,-0.1544702798128128,-9.953947067260742,34,1,43.5,0,0,2026,1972
151.29299400,151292994,1,0.000283067231066525,0.0007997738430276513,0.0001536134077468887,-0.4888700544834137,-0.15622149407863617,-9.959639549255371,34,1,43.5,0,0,2026,1972
151.29660500,151296605,1,0.0006746426806785166,0.00040728491148911417,0.0003279041266068816,-0.4902808666229248,-0.15736214816570282,-9.958869934082031,34,1,43.5,0,0,2026,1972
151.29792900,151297929,1,0.0007271506474353373,9.613097790861502e-05,0.0004356791905593127,-0.48870790004730225,-0.1572636365890503,-9.958375930786133,34,1,43.5,0,0,2026,1972
151.30041300,151300413,1,0.0004964170511811972,0.00012612133286893368,0.0010570688173174858,-0.48746564984321594,-0.15529845654964447,-9.959051132202148,34,1,43.5,0,0,2026,1972
151.30294300,151302943,1,0.00046279572416096926,-0.00047737182467244565,0.00123416050337255,-0.48810631036758423,-0.15258046984672546,-9.957866668701172,34,1,43.5,0,0,2026,1972
151.30543900,151305439,1,0.0004794797278009355,-0.001139374217018485,0.001832835259847343,-0.48787498474121094,-0.15256530046463013,-9.955060958862305,34,1,43.5,0,0,2026,1972
151.30844900,151308449,1,0.0009326098370365798,-0.0012603214709088206,0.0020121538545936346,-0.4876418709754944,-0.15428926050662994,-9.952509880065918,34,1,43.5,0,0,2026,1972
151.31051100,151310511,1,0.0012199252378195524,-0.0013082341756671667,0.002470283070579171,-0.48843416571617126,-0.15378817915916443,-9.952376365661621,34,1,43.5,0,0,2026,1972
151.31292700,151312927,1,0.001079689827747643,-0.0012715639313682914,0.0020849669817835093,-0.4881182909011841,-0.14761404693126678,-9.951664924621582,34,1,43.5,0,0,2026,1972
151.31542800,151315428,1,0.0010444234358146787,-0.0009800553089007735,0.0015867198817431927,-0.48832911252975464,-0.14475242793560028,-9.9493408203125,34,1,43.5,0,0,2026,1972
151.31800100,151318001,1,0.0011638946598395705,-0.001341704512014985,0.0014757872559130192,-0.48984748125076294,-0.1439555138349533,-9.94853687286377,34,1,43.5,0,0,2026,1972
151.32090500,151320905,1,0.0011723885545507073,-0.0021013692021369934,0.0017542712157592177,-0.4871194064617157,-0.14512909948825836,-9.948516845703125,34,1,43.5,0,0,2026,1972
151.32294900,151322949,1,0.0010645913425832987,-0.002644502790644765,0.0012570208637043834,-0.48275503516197205,-0.14706110954284668,-9.948111534118652,34,1,43.5,0,0,2026,1972
151.32546600,151325466,1,0.0007897225441411138,-0.002715449081733823,0.0007486629183404148,-0.48042309284210205,-0.14724263548851013,-9.94732666015625,34,1,43.5,0,0,2026,1972
151.32793200,151327932,1,0.0003272331668995321,-0.0026798145845532417,0.00036599519080482423,-0.4787465035915375,-0.1455666422843933,-9.942903518676758,34,1,43.5,0,0,2026,1972
151.33046300,151330463,1,0.00029106723377481103,-0.002169664017856121,0.00019807044009212404,-0.4802515208721161,-0.14421257376670837,-9.941672325134277,34,1,43.5,0,0,2026,1972
151.33342100,151333421,1,-8.35455721244216e-05,-0.0019409767119213939,0.0003160514170303941,-0.4813040792942047,-0.14193926751613617,-9.940688133239746,34,1,43.5,0,0,2026,1972
151.33544400,151335444,1,-0.0004784524498973042,-0.00161414232570678,0.00020394622697494924,-0.4843434989452362,-0.14256149530410767,-9.939661026000977,34,1,43.5,0,0,2026,1972
151.33799000,151337990,1,-0.0003059314040001482,-0.0013089623535051942,-3.989145261584781e-05,-0.4892076253890991,-0.14390873908996582,-9.94089412689209,34,1,43.5,0,0,2026,1972
151.34043500,151340435,1,-0.00020090719044674188,-0.0009442425798624754,-0.00021301246306393296,-0.4943232536315918,-0.14489789307117462,-9.942524909973145,34,1,43.5,0,0,2026,1972
151.34293100,151342931,1,-5.5358235840685666e-05,-0.00048477406380698085,-0.0007854694267734885,-0.4979812502861023,-0.1459270566701889,-9.943556785583496,34,1,43.5,0,0,2026,1972
151.34593800,151345938,1,-0.0003804849402513355,-0.00015340140089392662,-0.0010590170277282596,-0.5003393888473511,-0.14768041670322418,-9.945728302001953,34,1,43.5,0,0,2026,1972
151.34791900,151347919,1,-0.0003228807763662189,0.00032893315074034035,-0.001563873142004013,-0.5047019720077515,-0.1476859599351883,-9.95237922668457,34,1,43.5,0,0,2026,1972
151.35046400,151350464,1,-4.1465769754722714e-05,0.0008091293857432902,-0.0019558800850063562,-0.5066977739334106,-0.14684279263019562,-9.95756721496582,34,1,43.5,0,0,2026,1972
151.35298900,151352989,1,0.00020009679428767413,0.0009515705751255155,-0.0016220021061599255,-0.5086479187011719,-0.14728455245494843,-9.961182594299316,34,1,43.5,0,0,2026,1972
151.35552600,151355526,1,0.0002706770901568234,0.0014974124496802688,-0.0017761880299076438,-0.5088504552841187,-0.15034104883670807,-9.962109565734863,34,1,43.5,0,0,2026,1972
151.35837300,151358373,1,0.00037399024586193264,0.0018567098304629326,-0.0014530080370604992,-0.5093022584915161,-0.15347690880298615,-9.96309757232666,34,1,43.5,0,0,2026,1972
151.36042100,151360421,1,0.00037832403904758394,0.001643747091293335,-0.0007956288172863424,-0.5077071785926819,-0.1585611253976822,-9.964193344116211,34,1,43.5,0,0,2026,1972
151.36297100,151362971,1,0.00030176073778420687,0.0017090255860239267,-0.0008299209293909371,-0.5046430826187134,-0.16112640500068665,-9.965469360351562,34,1,43.5,0,0,2026,1972
151.36550500,151365505,1,0.00034155193134211004,0.0014713106211274862,-0.0004042453074362129,-0.5006328225135803,-0.16512010991573334,-9.96332836151123,34,1,43.5,0,0,2026,1972
151.36793700,151367937,1,0.00024191108241211623,0.000789330922998488,0.00015058212738949805,-0.4983685314655304,-0.16423039138317108,-9.96079158782959,34,1,43.5,0,0,2026,1972
151.37085600,151370856,1,0.0005679076421074569,6.430770736187696e-05,0.0004470926069188863,-0.4969836473464966,-0.1625678986310959,-9.959644317626953,34,1,43.5,0,0,2026,1972
151.37293100,151372931,1,0.0007008463144302368,-0.00012016147229587659,0.0004902161308564246,-0.4951058328151703,-0.16006100177764893,-9.960591316223145,34,1,43.5,0,0,2026,1972
151.37549800,151375498,1,0.0006183481309562922,-0.00022787690977565944,0.00020533724455162883,-0.4926804304122925,-0.15540939569473267,-9.95907211303711,34,1,43.5,0,0,2026,1972
151.37793900,151377939,1,0.0006093946867622435,-0.0007720112334936857,0.0002301680069649592,-0.4920882284641266,-0.15368135273456573,-9.957779884338379,34,1,43.5,0,0,2026,1972
151.38088100,151380881,1,0.0003947920340579003,-0.0008000655798241496,0.0008555729873478413,-0.4937203824520111,-0.15303629636764526,-9.953907012939453,34,1,43.5,0,0,2026,1972
151.38293800,151382938,1,0.0002976105024572462,-0.0011001172242686152,0.0011906715808436275,-0.49529728293418884,-0.15329866111278534,-9.950346946716309,34,1,43.5,0,0,2026,1972
151.38545200,151385452,1,0.0006873661186546087,-0.0017124194419011474,0.0012167681707069278,-0.4965304732322693,-0.15236511826515198,-9.947592735290527,34,1,43.5,0,0,2026,1972
151.38795300,151387953,1,0.0008623404428362846,-0.002245458774268627,0.0009601550409570336,-0.49744802713394165,-0.15363524854183197,-9.945931434631348,34,1,43.5,0,0,2026,1972
151.39043400,151390434,1,0.0010675623780116439,-0.0023135733790695667,0.0009433719096705317,-0.498860239982605,-0.15401709079742432,-9.946016311645508,34,1,43.5,0,0,2026,1972
151.39411800,151394118,1,0.0012262803502380848,-0.0017020353116095066,0.00083634426118806,-0.4993898272514343,-0.15257690846920013,-9.945907592773438,34,1,43.5,0,0,2026,1972
151.39545000,151395450,1,0.0019170091254636645,-0.00148213398642838,0.0008853310719132423,-0.49886688590049744,-0.1501435935497284,-9.950374603271484,34,1,43.5,0,0,2026,1972
151.39794500,151397945,1,0.002126764040440321,-0.0014569658087566495,0.000717264018021524,-0.49785009026527405,-0.14731881022453308,-9.949007034301758,34,1,43.5,0,0,2026,1972
151.40044700,151400447,1,0.0021089380607008934,-0.00124241947196424,0.0006755133508704603,-0.49806463718414307,-0.14639683067798615,-9.949421882629395,34,1,43.5,0,0,2026,1972
151.40295000,151402950,1,0.001846004044637084,-0.000792304752394557,0.0006745706778019667,-0.49978309869766235,-0.1447150707244873,-9.952642440795898,34,1,43.5,0,0,2026,1972
151.40594200,151405942,1,0.0022718373220413923,-0.0002891927433665842,0.0006495365523733199,-0.5005887746810913,-0.1413329392671585,-9.958341598510742,34,1,43.5,0,0,2026,1972
151.40792400,151407924,1,0.002330224262550473,-0.00023508416779804975,0.0006246641278266907,-0.5038728713989258,-0.13941897451877594,-9.966256141662598,34,1,43.5,0,0,2026,1972
151.41043700,151410437,1,0.002222633920609951,-0.0002729420957621187,0.0007296781986951828,-0.5062465071678162,-0.14378170669078827,-9.970717430114746,34,1,43.5,0,0,2026,1972
151.41300200,151413002,1,0.0021166366059333086,-0.0003277123614680022,0.0004033297882415354,-0.5050197243690491,-0.1477552205324173,-9.972339630126953,34,1,43.5,0,0,2026,1972
151.41545700,151415457,1,0.0022531915456056595,0.0003508005465846509,-0.0005118626286275685,-0.5018557906150818,-0.1504468321800232,-9.976017951965332,34,1,43.5,0,0,2026,1972
151.41833800,151418338,1,0.0021587456576526165,0.0007548617431893945,-0.00045323188533075154,-0.49997177720069885,-0.1519761085510254,-9.977415084838867,34,1,43.5,0,0,2026,1972
151.42049400,151420494,1,0.0020602827426046133,0.0008741957135498524,-0.0006909158546477556,-0.4990520775318146,-0.15319478511810303,-9.977290153503418,34,1,43.5,0,0,2026,1972
151.42294200,151422942,1,0.0017890247981995344,0.0007397394510917366,-0.0005916260415688157,-0.4974726140499115,-0.15482544898986816,-9.973835945129395,34,1,43.5,0,0,2026,1972
151.42548700,151425487,1,0.001819388591684401,0.00042395255877636373,-0.0006340412655845284,-0.49634286761283875,-0.154779851436615,-9.970251083374023,34,1,43.5,0,0,2026,1972
151.42792200,151427922,1,0.0013118936913087964,8.198809518944472e-05,-0.0014048982411623001,-0.49531280994415283,-0.1532040387392044,-9.9630126953125,34,1,43.5,0,0,2026,1972
151.43090200,151430902,1,0.0009593123686499894,-7.231510244309902e-05,-0.0017338806064799428,-0.4965469539165497,-0.15230092406272888,-9.958060264587402,34,1,43.5,0,0,2026,1972
151.43306200,151433062,1,0.0006669021677225828,-0.00026872282614931464,-0.0017754510045051575,-0.4951747953891754,-0.154002845287323,-9.95350170135498,34,1,43.5,0,0,2026,1972
151.43549000,151435490,1,0.00025782512966543436,0.00012476272240746766,-0.0015858609694987535,-0.4926019310951233,-0.1571715921163559,-9.953225135803223,34,1,43.5,0,0,2025,1972
151.43792000,151437920,1,0.0002292963326908648,0.0002811121812555939,-0.0013094936730340123,-0.49242621660232544,-0.1584959328174591,-9.948406219482422,34,1,43.5,0,0,2025,1972
151.44046500,151440465,1,8.052167686400935e-05,0.00041669027996249497,-0.001197718782350421,-0.4933338761329651,-0.15872204303741455,-9.943327903747559,34,1,43.5,0,0,2025,1972
151.44345300,151443453,1,-0.00039852032205089927,0.00010184576967731118,-0.0010618082014843822,-0.49111321568489075,-0.15846899151802063,-9.936051368713379,34,1,43.5,0,0,2025,1972
151.44547800,151445478,1,-0.00012046434130752459,-0.0009424053132534027,-0.0007967834826558828,-0.4884212017059326,-0.1594027280807495,-9.933443069458008,34,1,43.5,0,0,2025,1972
151.44794600,151447946,1,-0.0001535681658424437,-0.001443232293240726,-0.0005393015453591943,-0.48231562972068787,-0.16046468913555145,-9.932266235351562,34,1,43.5,0,0,2025,1972
151.45044900,151450449,1,-0.0003788952890317887,-0.001792311784811318,-0.0005227182991802692,-0.4786076545715332,-0.16010349988937378,-9.931200981140137,34,1,43.5,0,0,2025,1972
151.45300300,151453003,1,-0.00047701303265057504,-0.0019058422185480595,-0.00046565139200538397,-0.4772278368473053,-0.15818624198436737,-9.931477546691895,34,1,43.5,0,0,2025,1972
151.45600300,151456003,1,-0.0009539179736748338,-0.0020638289861381054,-0.000329249887727201,-0.4738311171531677,-0.15530622005462646,-9.928845405578613,34,1,43.5,0,0,2025,1972
151.45793800,151457938,1,-0.0010008341632783413,-0.0015600859187543392,-0.00040215233457274735,-0.471687376499176,-0.1530662328004837,-9.924965858459473,34,1,43.5,0,0,2025,1972
151.46039300,151460393,1,-0.0011458961525931954,-0.0012077235151082277,-0.0005832914030179381,-0.4716120660305023,-0.14936134219169617,-9.9237642288208,34,1,43.5,0,0,2025,1972
151.46293400,151462934,1,-0.0009255525073967874,-0.0008353024604730308,-0.00043419477879069746,-0.4736787974834442,-0.14503131806850433,-9.93088150024414,34,1,43.5,0,0,2025,1972
151.46544900,151465449,1,-0.0008259299211204052,-0.0007859694887883961,-0.00038567595765925944,-0.47649484872817993,-0.14443200826644897,-9.939215660095215,34,1,43.5,0,0,2025,1972
151.46839400,151468394,1,-0.00027396780205890536,-0.001175645156763494,-0.0004897115868516266,-0.4794135093688965,-0.14727234840393066,-9.949289321899414,34,1,43.5,0,0,2025,1972
151.47041400,151470414,1,0.00033928590710274875,-0.0016427304362878203,-0.0005737245664931834,-0.4806409478187561,-0.1495998650789261,-9.954615592956543,34,1,43.5,0,0,2025,1972
151.47308200,151473082,1,0.0005342867225408554,-0.0016486522508785129,-0.00037343797157518566,-0.48370155692100525,-0.15023645758628845,-9.95804214477539,34,1,43.5,0,0,2025,1972
151.47545300,151475453,1,0.0005500955739989877,-0.0009844095911830664,-0.000756029156036675,-0.48775359988212585,-0.1530666947364807,-9.962236404418945,34,1,43.5,0,0,2025,1972
151.47795100,151477951,1,0.0005043799756094813,-0.000619293306954205,-0.0007320832810364664,-0.4906727075576782,-0.1530996412038803,-9.962063789367676,34,1,43.5,0,0,2025,1972
151.48093800,151480938,1,0.0004176225047558546,-0.0006566509837284684,-0.000396355870179832,-0.4920182526111603,-0.1541009247303009,-9.959858894348145,34,1,43.5,0,0,2025,1972
151.48292400,151482924,1,7.5483629188966e-05,-0.0014775005402043462,-2.4165738068404607e-05,-0.4933227598667145,-0.15537907183170319,-9.953927040100098,34,1,43.5,0,0,2025,1972
151.48549900,151485499,1,7.958613423397765e-05,-0.0015914809191599488,0.0001995427446672693,-0.49262842535972595,-0.15570276975631714,-9.951144218444824,34,1,43.5,0,0,2025,1972
151.48794700,151487947,1,-2.291304735990707e-05,-0.0014283318305388093,0.0005353615852072835,-0.49130627512931824,-0.15386155247688293,-9.949258804321289,34,1,43.5,0,0,2025,1972
151.49042500,151490425,1,-3.178603947162628e-05,-0.001759941573254764,0.00021296697377692908,-0.4906386435031891,-0.15316182374954224,-9.947901725769043,34,1,43.5,0,0,2025,1972
151.49386000,151493860,1,-0.00012822900316677988,-0.0017834538593888283,0.0008208811632357538,-0.48792001605033875,-0.1513860523700714,-9.944381713867188,34,1,43.5,0,0,2025,1972
151.49545500,151495455,1,-0.0005157448467798531,-0.002216731896623969,0.0015988526865839958,-0.4872446060180664,-0.1467437744140625,-9.938690185546875,34,1,43.5,0,0,2025,1972
151.49791800,151497918,1,-0.0007102578529156744,-0.0023964999709278345,0.002190510742366314,-0.48656851053237915,-0.14369577169418335,-9.937045097351074,34,1,43.5,0,0,2025,1972
151.50049600,151500496,1,-0.00046448493958450854,-0.002378076547756791,0.0024998290464282036,-0.487002432346344,-0.1431601494550705,-9.938258171081543,34,1,43.5,0,0,2025,1972
151.50294800,151502948,1,-0.000138756338856183,-0.001882288372144103,0.0025549414567649364,-0.4883629381656647,-0.1449061632156372,-9.940855979919434,34,1,43.5,0,0,2025,1972
151.50617100,151506171,1,9.975586726795882e-05,-0.0015643754741176963,0.0024356029462069273,-0.489611953496933,-0.1458878517150879,-9.942204475402832,34,1,43.5,0,0,2025,1972
151.50792300,151507923,1,0.00011923653073608875,-0.000618551392108202,0.0018495485419407487,-0.4887203574180603,-0.14834997057914734,-9.944690704345703,34,1,43.5,0,0,2025,1972
151.51047300,151510473,1,0.0001235130475834012,-0.00028591250884346664,0.0015565494541078806,-0.48950061202049255,-0.15127290785312653,-9.947193145751953,34,1,43.5,0,0,2025,1972
151.51293100,151512931,1,-6.327453593257815e-05,-0.0003468657087069005,0.0013861758634448051,-0.4914243519306183,-0.15428444743156433,-9.949796676635742,34,1,43.5,0,0,2025,1972
151.51545900,151515459,1,-0.00017956510419026017,-0.0006231233710423112,0.0017119105905294418,-0.49289441108703613,-0.1543194055557251,-9.947724342346191,34,1,43.5,0,0,2025,1972
151.51831700,151518317,1,-0.0003684651164803654,-0.00044407317182049155,0.0019935639575123787,-0.49294954538345337,-0.15492230653762817,-9.943988800048828,34,1,43.5,0,0,2025,1972
151.52042200,151520422,1,-0.0005086882738396525,-0.0006136110168881714,0.0016468747053295374,-0.4945909380912781,-0.15660978853702545,-9.946313858032227,34,1,43.5,0,0,2025,1972
151.52294800,151522948,1,-0.0005639689043164253,-0.0014977933606132865,0.0014521604171022773,-0.4984523057937622,-0.1559225618839264,-9.955551147460938,34,1,43.5,0,0,2025,1972
151.52542100,151525421,1,-0.0004571762401610613,-0.001953357830643654,0.0013733040541410446,-0.5006068348884583,-0.15353192389011383,-9.962783813476562,34,1,43.5,0,0,2025,1972
151.52789400,151527894,1,-0.000327883695717901,-0.002261027693748474,0.0009488657233305275,-0.49896740913391113,-0.14975830912590027,-9.966187477111816,34,1,43.5,0,0,2025,1972
151.53089500,151530895,1,-0.0004411275440361351,-0.0020890061277896166,0.00036195103893987834,-0.49562421441078186,-0.15021096169948578,-9.968060493469238,34,1,43.5,0,0,2025,1972
151.53304200,151533042,1,-0.0005418017390184104,-0.0019032732816413045,0.00032162253046408296,-0.4916536808013916,-0.15198524296283722,-9.96726131439209,34,1,43.5,0,0,2025,1972
151.53544600,151535446,1,-0.0004104609542991966,-0.001878345850855112,-8.45103568281047e-06,-0.48685961961746216,-0.14988629519939423,-9.96534538269043,34,1,43.5,0,0,2025,1972
151.53791900,151537919,1,-0.00024243317602667958,-0.0015255999751389027,-0.00021579265012405813,-0.4821510314941406,-0.14665895700454712,-9.961264610290527,34,1,43.5,0,0,2025,1972
151.54052000,151540520,1,6.113090057624504e-05,-0.001288594794459641,-0.00017177847621496767,-0.47819432616233826,-0.14377634227275848,-9.960257530212402,34,1,43.5,0,0,2025,1972
