timestamp,TimeUS,GYROx
149.92418700,149924187,0.002632036805152893
149.92469600,149924696,0.002632036805152893
149.92524200,149925242,0.002632036805152893
149.92576300,149925763,0.0015678172931075096
149.92628400,149926284,0.0015678172931075096
149.92681200,149926812,0.0005035977810621262
149.92753800,149927538,0.002632036805152893
149.92755800,149927558,0.0015678172931075096
149.92806500,149928065,0.0005035977810621262
149.92855400,149928554,0.0015678172931075096
149.92908100,149929081,0.0015678172931075096
149.92960200,149929602,-0.0005606217309832573
149.93016100,149930161,0.0005035977810621262
149.93067400,149930674,0.0015678172931075096
149.93120100,149931201,0.0015678172931075096
149.93172400,149931724,0.002632036805152893
149.93224600,149932246,0.0005035977810621262
149.93279000,149932790,0.0005035977810621262
149.93330300,149933303,0.002632036805152893
149.93388100,149933881,0.0015678172931075096
149.93449300,149934493,0.0005035977810621262
149.93503900,149935039,0.0005035977810621262
149.93559700,149935597,0.0005035977810621262
149.93610800,149936108,0.0005035977810621262
149.93612900,149936129,0.0005035977810621262
149.93661000,149936610,0.0005035977810621262
149.93713300,149937133,0.0005035977810621262
149.93767900,149937679,0.0015678172931075096
149.93819100,149938191,0.0005035977810621262
149.93871100,149938711,0.0015678172931075096
149.93923700,149939237,0.0015678172931075096
149.93976100,149939761,-0.0005606217309832573
149.94028900,149940289,0.0015678172931075096
149.94081500,149940815,0.0015678172931075096
149.94148300,149941483,0.0005035977810621262
149.94200700,149942007,0.002632036805152893
149.94254600,149942546,0.0036962563171982765
149.94307100,149943071,0.002632036805152893
149.94359400,149943594,0.0015678172931075096
149.94411700,149944117,0.0005035977810621262
149.94464300,149944643,0.0005035977810621262
149.94520300,149945203,0.0005035977810621262
149.94522400,149945224,0.0005035977810621262
149.94570300,149945703,0.0015678172931075096
149.94622400,149946224,0.002632036805152893
149.94675000,149946750,0.002632036805152893
149.94727200,149947272,0.0005035977810621262
149.94780200,149947802,0.0005035977810621262
149.94832500,149948325,0.0015678172931075096
149.94897900,149948979,0.0015678172931075096
149.94950200,149949502,0.0015678172931075096
149.95003900,149950039,0.0015678172931075096
149.95056100,149950561,0.0005035977810621262
149.95108600,149951086,0.0015678172931075096
149.95160800,149951608,0.0015678172931075096
149.95213200,149952132,-0.0005606217309832573
149.95267400,149952674,0.0005035977810621262
149.95319000,149953190,0.0005035977810621262
149.95371500,149953715,-0.0016248412430286407
149.95423800,149954238,-0.0005606217309832573
149.95476000,149954760,0.0005035977810621262
149.95532000,149955320,0.0005035977810621262
149.95534300,149955343,0.0015678172931075096
149.95581900,149955819,0.0015678172931075096
149.95648900,149956489,0.0015678172931075096
149.95701800,149957018,0.002632036805152893
149.95754500,149957545,0.002632036805152893
149.95809100,149958091,0.0015678172931075096
149.95859700,149958597,0.0015678172931075096
149.95912900,149959129,0.0005035977810621262
149.95965000,149959650,0.0005035977810621262
149.96018600,149960186,0.0015678172931075096
149.96070500,149960705,0.0005035977810621262
149.96122500,149961225,0.0015678172931075096
149.96175100,149961751,0.002632036805152893
149.96227600,149962276,0.0015678172931075096
149.96280700,149962807,0.0015678172931075096
149.96340800,149963408,0.0036962563171982765
149.96342900,149963429,0.0015678172931075096
149.96398600,149963986,0.0015678172931075096
149.96450800,149964508,0.002632036805152893
149.96504600,149965046,0.0005035977810621262
149.96556400,149965564,0.0005035977810621262
149.96608600,149966086,0.0015678172931075096
149.96660900,149966609,0.002632036805152893
149.96713700,149967137,0.002632036805152893
149.96767600,149967676,0.0015678172931075096
149.96820000,149968200,0.0015678172931075096
149.96872200,149968722,0.0015678172931075096
149.96924600,149969246,0.0015678172931075096
149.96977100,149969771,0.0005035977810621262
149.97030000,149970300,0.0015678172931075096
149.97082400,149970824,0.002632036805152893
149.97150500,149971505,0.0005035977810621262
149.97153300,149971533,-0.0016248412430286407
149.97200300,149972003,-0.0016248412430286407
149.97253600,149972536,0.0005035977810621262
149.97306600,149973066,0.0005035977810621262
149.97358500,149973585,0.0005035977810621262
149.97411200,149974112,0.002632036805152893
149.97463300,149974633,0.0015678172931075096
149.97517800,149975178,-0.0016248412430286407
149.97570000,149975700,0.0005035977810621262
149.97622100,149976221,0.0015678172931075096
149.97674500,149976745,0.0015678172931075096
149.97726900,149977269,0.0015678172931075096
149.97779800,149977798,0.0015678172931075096
149.97832200,149978322,0.0015678172931075096
149.97897800,149978978,0.0015678172931075096
149.97950100,149979501,0.0015678172931075096
149.98003900,149980039,0.0015678172931075096
149.98060200,149980602,0.0015678172931075096
149.98111600,149981116,0.0015678172931075096
149.98113700,149981137,0.0005035977810621262
149.98161200,149981612,0.0005035977810621262
149.98214900,149982149,0.0005035977810621262
149.98267700,149982677,0.0005035977810621262
149.98320500,149983205,0.0015678172931075096
149.98372400,149983724,0.002632036805152893
149.98425200,149984252,0.0015678172931075096
149.98477300,149984773,0.0015678172931075096
149.98530700,149985307,0.00476047582924366
149.98588300,149985883,0.002632036805152893
149.98647900,149986479,0.0005035977810621262
149.98700400,149987004,0.0015678172931075096
149.98753900,149987539,-0.0005606217309832573
149.98809400,149988094,-0.0005606217309832573
149.98861300,149988613,0.0005035977810621262
149.98914500,149989145,0.0015678172931075096
149.98969300,149989693,0.0005035977810621262
149.98971300,149989713,-0.0005606217309832573
149.99021300,149990213,0.0015678172931075096
149.99072800,149990728,0.002632036805152893
149.99126000,149991260,0.0015678172931075096
149.99177800,149991778,0.0005035977810621262
149.99230200,149992302,0.0015678172931075096
149.99288600,149992886,0.0015678172931075096
149.99349700,149993497,0.0005035977810621262
149.99401800,149994018,-0.0005606217309832573
149.99454400,149994544,0.0015678172931075096
149.99507500,149995075,0.002632036805152893
149.99560300,149995603,0.002632036805152893
149.99612600,149996126,0.0015678172931075096
149.99664800,149996648,0.0015678172931075096
149.99717300,149997173,-0.0005606217309832573
149.99771600,149997716,0.0005035977810621262
149.99823800,149998238,0.0036962563171982765
149.99875900,149998759,0.0015678172931075096
149.99931100,149999311,-0.0016248412430286407
149.99933300,149999333,-0.0005606217309832573
149.99980800,149999808,0.0005035977810621262
150.00049400,150000494,0.0005035977810621262
150.00101500,150001015,0.0005035977810621262
150.00154300,150001543,0.0005035977810621262
150.00205900,150002059,0.0015678172931075096
150.00260000,150002600,0.002632036805152893
150.00315500,150003155,0.002632036805152893
150.00368100,150003681,0.002632036805152893
150.00420100,150004201,0.0015678172931075096
150.00473600,150004736,0.0015678172931075096
150.00527100,150005271,0.0005035977810621262
150.00580000,150005800,0.0005035977810621262
150.00632100,150006321,0.0015678172931075096
150.00701700,150007017,0.0015678172931075096
150.00703700,150007037,-0.0005606217309832573
150.00752600,150007526,-0.0005606217309832573
150.00805000,150008050,0.0005035977810621262
150.00857100,150008571,-0.0005606217309832573
150.00909600,150009096,-0.0016248412430286407
150.00961900,150009619,0.0015678172931075096
150.01016700,150010167,-0.0005606217309832573
150.01067500,150010675,0.0005035977810621262
150.01119600,150011196,0.0036962563171982765
150.01172200,150011722,0.0036962563171982765
150.01224400,150012244,0.002632036805152893
150.01277800,150012778,0.0015678172931075096
150.01330200,150013302,0.0015678172931075096
150.01387800,150013878,0.0015678172931075096
150.01452300,150014523,0.0005035977810621262
150.01454300,150014543,0.0005035977810621262
150.01503200,150015032,-0.0005606217309832573
150.01556500,150015565,-0.0005606217309832573
150.01609300,150016093,0.0005035977810621262
150.01661200,150016612,0.0015678172931075096
150.01713600,150017136,0.0015678172931075096
150.01767400,150017674,0.0015678172931075096
150.01819600,150018196,0.0005035977810621262
150.01871400,150018714,0.0015678172931075096
150.01924300,150019243,0.0015678172931075096
150.01976700,150019767,0.0015678172931075096
150.02029800,150020298,0.0015678172931075096
150.02082300,150020823,-0.0005606217309832573
150.02147700,150021477,0.0005035977810621262
150.02200700,150022007,0.0036962563171982765
150.02254100,150022541,0.0015678172931075096
150.02308900,150023089,0.0015678172931075096
150.02310900,150023109,0.0015678172931075096
150.02358600,150023586,0.0015678172931075096
150.02411300,150024113,0.0015678172931075096
150.02463500,150024635,0.0005035977810621262
150.02518100,150025181,0.0005035977810621262
150.02569400,150025694,0.0015678172931075096
150.02621800,150026218,0.0005035977810621262
150.02674000,150026740,0.0005035977810621262
150.02726600,150027266,0.0015678172931075096
150.02779900,150027799,0.002632036805152893
150.02832700,150028327,0.0015678172931075096
150.02898100,150028981,0.0005035977810621262
150.02950700,150029507,0.002632036805152893
150.03004000,150030040,0.00476047582924366
150.03056100,150030561,0.0015678172931075096
150.03108300,150031083,0.0005035977810621262
150.03161100,150031611,0.002632036805152893
150.03213200,150032132,-0.0005606217309832573
150.03268900,150032689,-0.0005606217309832573
150.03271200,150032712,0.0015678172931075096
150.03319600,150033196,0.0005035977810621262
150.03371900,150033719,-0.0016248412430286407
150.03424400,150034244,-0.0005606217309832573
150.03476400,150034764,0.0005035977810621262
150.03529900,150035299,0.0005035977810621262
150.03582400,150035824,0.0005035977810621262
150.03647800,150036478,0.0005035977810621262
150.03700600,150037006,0.0015678172931075096
150.03754000,150037540,0.002632036805152893
150.03806900,150038069,0.0015678172931075096
150.03858800,150038588,0.0015678172931075096
150.03911400,150039114,0.0005035977810621262
150.03963800,150039638,0.0005035977810621262
150.04018300,150040183,0.0015678172931075096
150.04071200,150040712,0.0015678172931075096
150.04122500,150041225,0.002632036805152893
150.04174500,150041745,0.002632036805152893
150.04229900,150042299,0.002632036805152893
150.04231900,150042319,0.0005035977810621262
150.04280800,150042808,0.0015678172931075096
150.04338100,150043381,0.00476047582924366
150.04399000,150043990,0.002632036805152893
150.04451400,150044514,0.0015678172931075096
150.04504800,150045048,0.002632036805152893
150.04556900,150045569,0.0005035977810621262
150.04609200,150046092,0.0005035977810621262
150.04661500,150046615,0.0015678172931075096
150.04713900,150047139,0.0015678172931075096
150.04768100,150047681,0.0005035977810621262
150.04819600,150048196,0.0005035977810621262
150.04872000,150048720,0.0015678172931075096
150.04924400,150049244,0.0015678172931075096
150.04977000,150049770,0.0015678172931075096
150.05030200,150050302,0.002632036805152893
150.05085300,150050853,0.002632036805152893
150.05151600,150051516,0.002632036805152893
150.05153900,150051539,0.002632036805152893
150.05200900,150052009,0.0015678172931075096
150.05254300,150052543,0.0005035977810621262
150.05307000,150053070,0.0005035977810621262
150.05359400,150053594,0.0015678172931075096
150.05411700,150054117,0.0015678172931075096
150.05464100,150054641,-0.0016248412430286407
150.05517600,150055176,-0.0005606217309832573
150.05570000,150055700,0.002632036805152893
150.05622500,150056225,0.0005035977810621262
150.05674900,150056749,0.0015678172931075096
150.05727100,150057271,0.002632036805152893
150.05780200,150057802,0.0005035977810621262
150.05833000,150058330,0.0015678172931075096
150.05901100,150059011,0.0015678172931075096
150.05903200,150059032,0.0005035977810621262
150.05950400,150059504,0.0005035977810621262
150.06003700,150060037,0.0005035977810621262
150.06056100,150060561,0.0015678172931075096
150.06108400,150061084,0.002632036805152893
150.06160800,150061608,0.002632036805152893
150.06213200,150062132,0.002632036805152893
150.06267500,150062675,0.0015678172931075096
150.06318900,150063189,0.0015678172931075096
150.06371200,150063712,0.0005035977810621262
150.06423800,150064238,-0.0016248412430286407
150.06475900,150064759,-0.0005606217309832573
150.06529700,150065297,0.0015678172931075096
150.06581900,150065819,-0.0005606217309832573
150.06648400,150066484,-0.0016248412430286407
150.06701100,150067011,0.0015678172931075096
150.06757100,150067571,0.0015678172931075096
150.06759200,150067592,0.0015678172931075096
150.06807000,150068070,0.0036962563171982765
150.06858900,150068589,0.002632036805152893
150.06911700,150069117,0.0015678172931075096
150.06963800,150069638,-0.0005606217309832573
150.07018300,150070183,0.0015678172931075096
150.07069600,150070696,0.0036962563171982765
150.07121800,150071218,0.0015678172931075096
150.07174100,150071741,0.0015678172931075096
150.07226600,150072266,0.0015678172931075096
150.07280200,150072802,0.002632036805152893
150.07332600,150073326,0.002632036805152893
150.07399100,150073991,0.002632036805152893
150.07451300,150074513,0.0015678172931075096
150.07505000,150075050,0.0015678172931075096
150.07557100,150075571,0.0005035977810621262
150.07609200,150076092,-0.0016248412430286407
150.07662000,150076620,0.0005035977810621262
150.07714300,150077143,0.0015678172931075096
150.07770300,150077703,-0.0005606217309832573
150.07772400,150077724,0.0015678172931075096
150.07820500,150078205,0.0015678172931075096
150.07872700,150078727,-0.0005606217309832573
150.07924800,150079248,0.0015678172931075096
150.07977400,150079774,0.0015678172931075096
150.08030800,150080308,0.002632036805152893
150.08098500,150080985,0.0015678172931075096
150.08151000,150081510,0.0015678172931075096
150.08203300,150082033,0.0015678172931075096
150.08257400,150082574,0.0015678172931075096
150.08309500,150083095,0.0015678172931075096
150.08361400,150083614,0.0005035977810621262
150.08414100,150084141,0.0015678172931075096
150.08466100,150084661,0.002632036805152893
150.08521300,150085213,0.0036962563171982765
150.08571900,150085719,0.00476047582924366
150.08624700,150086247,0.002632036805152893
150.08679700,150086797,0.002632036805152893
150.08681700,150086817,0.002632036805152893
150.08729200,150087292,0.0015678172931075096
150.08782500,150087825,0.002632036805152893
150.08849100,150088491,0.002632036805152893
150.08901400,150089014,0.0015678172931075096
150.08953700,150089537,0.0015678172931075096
150.09007100,150090071,0.0005035977810621262
150.09059400,150090594,0.0005035977810621262
150.09111600,150091116,0.0015678172931075096
150.09164700,150091647,0.0005035977810621262
150.09216900,150092169,0.0015678172931075096
150.09271800,150092718,0.0015678172931075096
150.09322700,150093227,0.002632036805152893
150.09374900,150093749,0.0015678172931075096
150.09427400,150094274,0.002632036805152893
150.09479600,150094796,0.0015678172931075096
150.09533100,150095331,0.0015678172931075096
150.09601500,150096015,0.0015678172931075096
150.09603600,150096036,0.0015678172931075096
150.09650900,150096509,0.0015678172931075096
150.09703200,150097032,0.0015678172931075096
150.09756800,150097568,0.0015678172931075096
150.09808800,150098088,0.0015678172931075096
150.09860900,150098609,0.0005035977810621262
150.09913500,150099135,0.0005035977810621262
150.09966000,150099660,0.002632036805152893
150.10019200,150100192,0.002632036805152893
150.10072400,150100724,-0.0005606217309832573
150.10124700,150101247,0.0015678172931075096
150.10176900,150101769,0.002632036805152893
150.10229400,150102294,0.0005035977810621262
150.10282500,150102825,0.002632036805152893
150.10351200,150103512,0.002632036805152893
150.10353200,150103532,0.0015678172931075096
150.10400700,150104007,0.0015678172931075096
150.10452900,150104529,0.002632036805152893
150.10506300,150105063,0.0036962563171982765
150.10558700,150105587,0.002632036805152893
150.10610900,150106109,0.0015678172931075096
150.10663400,150106634,0.0005035977810621262
150.10715800,150107158,0.0005035977810621262
150.10768900,150107689,0.0005035977810621262
150.10821500,150108215,0.0005035977810621262
150.10873600,150108736,0.0015678172931075096
150.10926100,150109261,0.0015678172931075096
150.10978500,150109785,0.0015678172931075096
150.11031600,150110316,0.0015678172931075096
150.11098400,150110984,0.0015678172931075096
150.11151000,150111510,0.0005035977810621262
150.11203000,150112030,0.0015678172931075096
150.11259300,150112593,0.0015678172931075096
150.11261600,150112616,0.0005035977810621262
150.11309000,150113090,0.0015678172931075096
150.11361600,150113616,0.0005035977810621262
150.11414100,150114141,-0.0005606217309832573
150.11466700,150114667,0.0015678172931075096
150.11521500,150115215,0.002632036805152893
150.11572500,150115725,0.002632036805152893
150.11624400,150116244,0.0015678172931075096
150.11677400,150116774,0.0005035977810621262
150.11729400,150117294,0.0015678172931075096
150.11782300,150117823,0.0015678172931075096
150.11848800,150118488,0.0015678172931075096
150.11901800,150119018,0.0015678172931075096
150.11953800,150119538,0.0015678172931075096
150.12007000,150120070,0.002632036805152893
150.12059500,150120595,0.002632036805152893
150.12111500,150121115,0.002632036805152893
150.12164300,150121643,0.0005035977810621262
150.12219000,150122190,-0.0005606217309832573
150.12221000,150122210,0.0015678172931075096
150.12270100,150122701,0.0015678172931075096
150.12322700,150123227,-0.0016248412430286407
150.12375100,150123751,0.0005035977810621262
150.12427400,150124274,0.002632036805152893
150.12480000,150124800,0.0005035977810621262
150.12538900,150125389,0.0015678172931075096
150.12598600,150125986,0.002632036805152893
150.12651500,150126515,0.0015678172931075096
150.12703400,150127034,0.0005035977810621262
150.12756900,150127569,0.0015678172931075096
150.12809400,150128094,0.002632036805152893
150.12861300,150128613,0.0015678172931075096
150.12913800,150129138,-0.0005606217309832573
150.12966200,150129662,-0.0016248412430286407
150.13021200,150130212,-0.0005606217309832573
150.13072800,150130728,-0.0005606217309832573
150.13124600,150131246,0.0005035977810621262
150.13180100,150131801,0.0005035977810621262
150.13182200,150131822,0.0005035977810621262
150.13229600,150132296,0.0015678172931075096
150.13283700,150132837,0.0005035977810621262
150.13348500,150133485,-0.0005606217309832573
150.13400700,150134007,0.0005035977810621262
150.13453500,150134535,0.0005035977810621262
150.13507100,150135071,-0.0005606217309832573
150.13559400,150135594,0.0015678172931075096
150.13612200,150136122,0.002632036805152893
150.13664500,150136645,0.0005035977810621262
150.13716900,150137169,0.0015678172931075096
150.13771700,150137717,0.0015678172931075096
150.13824100,150138241,0.0015678172931075096
150.13876300,150138763,0.0015678172931075096
150.13928900,150139289,0.0015678172931075096
150.13981100,150139811,0.0005035977810621262
150.14052100,150140521,0.0015678172931075096
150.14054300,150140543,0.0015678172931075096
150.14101500,150141015,0.0015678172931075096
150.14155000,150141550,0.0005035977810621262
150.14207600,150142076,-0.0005606217309832573
150.14261600,150142616,0.0005035977810621262
150.14313900,150143139,0.0005035977810621262
150.14365900,150143659,0.0015678172931075096
150.14418800,150144188,0.002632036805152893
150.14470900,150144709,0.0015678172931075096
150.14526300,150145263,-0.0005606217309832573
150.14578800,150145788,0.0005035977810621262
150.14630900,150146309,0.0015678172931075096
150.14700900,150147009,-0.0005606217309832573
150.14702900,150147029,0.0005035977810621262
150.14753100,150147531,0.0036962563171982765
150.14804900,150148049,0.002632036805152893
150.14857700,150148577,0.0005035977810621262
150.14909600,150149096,0.0015678172931075096
150.14962100,150149621,0.002632036805152893
150.15016500,150150165,0.002632036805152893
150.15068000,150150680,0.002632036805152893
150.15120000,150151200,0.0005035977810621262
150.15172600,150151726,0.0005035977810621262
150.15224900,150152249,0.0015678172931075096
150.15278200,150152782,0.0015678172931075096
150.15330800,150153308,0.0005035977810621262
150.15398700,150153987,0.0005035977810621262
150.15450900,150154509,0.0015678172931075096
150.15507300,150155073,0.0015678172931075096
150.15509400,150155094,0.0036962563171982765
150.15556500,150155565,0.0036962563171982765
150.15608700,150156087,-0.0005606217309832573
150.15661300,150156613,-0.0005606217309832573
150.15713800,150157138,0.0015678172931075096
150.15768000,150157680,0.0015678172931075096
150.15819500,150158195,0.0015678172931075096
150.15871500,150158715,0.00476047582924366
150.15924200,150159242,0.002632036805152893
150.15976100,150159761,0.0005035977810621262
150.16029700,150160297,0.0015678172931075096
150.16082100,150160821,0.0015678172931075096
150.16148200,150161482,0.0015678172931075096
150.16201900,150162019,0.0015678172931075096
150.16254700,150162547,0.0015678172931075096
150.16307300,150163073,0.0015678172931075096
150.16359700,150163597,0.0015678172931075096
150.16412200,150164122,0.002632036805152893
150.16467400,150164674,0.002632036805152893
150.16469700,150164697,0.002632036805152893
150.16518600,150165186,0.0015678172931075096
150.16571000,150165710,0.0015678172931075096
150.16622900,150166229,0.0015678172931075096
150.16675400,150166754,0.0015678172931075096
150.16727600,150167276,0.002632036805152893
150.16780700,150167807,0.0015678172931075096
150.16838200,150168382,0.0005035977810621262
150.16898200,150168982,0.0036962563171982765
150.16950500,150169505,0.002632036805152893
150.17004200,150170042,0.0015678172931075096
150.17056400,150170564,0.002632036805152893
150.17108900,150171089,0.0015678172931075096
150.17162100,150171621,0.0005035977810621262
150.17214400,150172144,0.0005035977810621262
150.17268000,150172680,0.0005035977810621262
150.17321300,150173213,0.0005035977810621262
150.17376100,150173761,0.0015678172931075096
150.17378500,150173785,0.0015678172931075096
150.17425700,150174257,0.0005035977810621262
150.17478300,150174783,0.0015678172931075096
150.17531400,150175314,0.0015678172931075096
150.17598300,150175983,0.0015678172931075096
150.17651100,150176511,0.0005035977810621262
150.17703100,150177031,0.0005035977810621262
150.17756600,150177566,0.0015678172931075096
150.17808900,150178089,0.002632036805152893
150.17861200,150178612,0.0015678172931075096
150.17914200,150179142,-0.0005606217309832573
150.17966200,150179662,0.0005035977810621262
150.18020500,150180205,0.0015678172931075096
150.18071900,150180719,-0.0005606217309832573
150.18124000,150181240,0.0015678172931075096
150.18176500,150181765,0.0036962563171982765
150.18228900,150182289,0.0005035977810621262
150.18281800,150182818,0.0015678172931075096
150.18351300,150183513,0.002632036805152893
150.18353500,150183535,0.0015678172931075096
150.18401200,150184012,0.0005035977810621262
150.18453500,150184535,0.0015678172931075096
150.18507600,150185076,0.0015678172931075096
150.18559900,150185599,0.0015678172931075096
150.18612300,150186123,0.0005035977810621262
150.18664700,150186647,0.0005035977810621262
150.18717200,150187172,0.0005035977810621262
150.18771800,150187718,0.0005035977810621262
150.18824000,150188240,0.0005035977810621262
150.18875900,150188759,0.0005035977810621262
150.18928600,150189286,0.0015678172931075096
150.18980700,150189807,0.0005035977810621262
150.19052600,150190526,0.0005035977810621262
150.19054700,150190547,-0.0005606217309832573
150.19101900,150191019,0.0005035977810621262
150.19154000,150191540,0.0005035977810621262
150.19206500,150192065,-0.0005606217309832573
150.19260200,150192602,0.002632036805152893
150.19312500,150193125,0.0015678172931075096
150.19364500,150193645,-0.0005606217309832573
150.19417600,150194176,-0.0005606217309832573
150.19469200,150194692,0.0015678172931075096
150.19524000,150195240,0.0015678172931075096
150.19576300,150195763,0.0015678172931075096
150.19628200,150196282,0.0005035977810621262
150.19680700,150196807,-0.0005606217309832573
150.19755600,150197556,0.0005035977810621262
150.19757700,150197577,-0.0005606217309832573
150.19807100,150198071,-0.0016248412430286407
150.19858000,150198580,0.0005035977810621262
150.19911000,150199110,0.0005035977810621262
150.19963400,150199634,0.0005035977810621262
150.20017800,150200178,0.0005035977810621262
150.20069200,150200692,0.0005035977810621262
150.20121200,150201212,0.0015678172931075096
150.20174000,150201740,0.0005035977810621262
150.20225900,150202259,0.0015678172931075096
150.20279200,150202792,0.002632036805152893
150.20331500,150203315,0.0036962563171982765
150.20398500,150203985,0.002632036805152893
150.20450800,150204508,0.0015678172931075096
150.20504600,150205046,0.0036962563171982765
150.20559100,150205591,0.0015678172931075096
150.20608800,150206088,0.0005035977810621262
150.20663900,150206639,0.002632036805152893
150.20665900,150206659,0.0015678172931075096
150.20713400,150207134,-0.0005606217309832573
150.20767500,150207675,0.0015678172931075096
150.20819300,150208193,0.0015678172931075096
150.20871700,150208717,0.0015678172931075096
150.20923700,150209237,0.0005035977810621262
150.20976300,150209763,0.0005035977810621262
150.21029200,150210292,0.0015678172931075096
150.21081800,150210818,0.002632036805152893
150.21148000,150211480,0.002632036805152893
150.21200500,150212005,0.002632036805152893
150.21254200,150212542,0.002632036805152893
150.21306200,150213062,0.0015678172931075096
150.21358700,150213587,0.0015678172931075096
150.21411000,150214110,0.0005035977810621262
150.21463200,150214632,0.0005035977810621262
150.21517600,150215176,0.002632036805152893
150.21569100,150215691,0.002632036805152893
150.21623600,150216236,0.0005035977810621262
150.21625900,150216259,0.0015678172931075096
150.21673800,150216738,0.0015678172931075096
150.21725800,150217258,-0.0005606217309832573
150.21779500,150217795,0.0015678172931075096
150.21831800,150218318,0.002632036805152893
150.21898100,150218981,0.0015678172931075096
150.21950500,150219505,0.0015678172931075096
150.22004100,150220041,0.0015678172931075096
150.22056400,150220564,0.0005035977810621262
150.22108700,150221087,0.0005035977810621262
150.22161100,150221611,0.002632036805152893
150.22213700,150222137,0.002632036805152893
150.22267800,150222678,0.0015678172931075096
150.22319600,150223196,0.002632036805152893
150.22372000,150223720,0.002632036805152893
150.22424600,150224246,0.002632036805152893
150.22476500,150224765,0.002632036805152893
150.22529600,150225296,0.0005035977810621262
150.22585500,150225855,-0.0005606217309832573
150.22587600,150225876,-0.0005606217309832573
150.22648100,150226481,0.002632036805152893
150.22700500,150227005,0.0015678172931075096
150.22753600,150227536,-0.0005606217309832573
150.22808700,150228087,0.002632036805152893
150.22859000,150228590,0.0015678172931075096
150.22910900,150229109,-0.0005606217309832573
150.22963800,150229638,0.0036962563171982765
150.23017700,150230177,0.002632036805152893
150.23069400,150230694,0.0015678172931075096
150.23121600,150231216,0.0015678172931075096
150.23174100,150231741,0.0005035977810621262
150.23226400,150232264,0.0015678172931075096
150.23280800,150232808,0.0015678172931075096
150.23332200,150233322,0.002632036805152893
150.23401600,150234016,0.002632036805152893
150.23403700,150234037,0.002632036805152893
150.23452000,150234520,0.0015678172931075096
150.23504900,150235049,0.0015678172931075096
150.23558000,150235580,0.0015678172931075096
150.23609700,150236097,0.0015678172931075096
150.23662400,150236624,0.002632036805152893
150.23714700,150237147,0.002632036805152893
150.23768000,150237680,0.0005035977810621262
150.23820500,150238205,0.0005035977810621262
150.23872600,150238726,0.002632036805152893
150.23925200,150239252,0.0015678172931075096
150.23977700,150239777,0.0015678172931075096
150.24030600,150240306,0.0015678172931075096
150.24101500,150241015,0.0015678172931075096
150.24103600,150241036,0.002632036805152893
150.24151900,150241519,0.002632036805152893
150.24203400,150242034,0.002632036805152893
150.24257300,150242573,0.002632036805152893
150.24309200,150243092,0.0015678172931075096
150.24361400,150243614,0.0015678172931075096
150.24414200,150244142,0.0005035977810621262
150.24466600,150244666,0.0015678172931075096
150.24521800,150245218,0.002632036805152893
150.24574300,150245743,0.002632036805152893
150.24626800,150246268,0.0015678172931075096
150.24678700,150246787,0.0005035977810621262
150.24731100,150247311,0.0005035977810621262
150.24800100,150248001,0.0005035977810621262
150.24852200,150248522,0.0015678172931075096
150.24905600,150249056,0.0015678172931075096
150.24957500,150249575,-0.0005606217309832573
150.25016200,150250162,0.0015678172931075096
150.25018400,150250184,0.002632036805152893
150.25068700,150250687,0.0005035977810621262
150.25120400,150251204,0.0015678172931075096
150.25172900,150251729,0.0015678172931075096
150.25225200,150252252,-0.0005606217309832573
150.25278600,150252786,0.0005035977810621262
150.25330800,150253308,0.0015678172931075096
150.25398600,150253986,0.0015678172931075096
150.25450400,150254504,0.0015678172931075096
150.25504200,150255042,0.0015678172931075096
150.25556200,150255562,0.002632036805152893
150.25608400,150256084,0.002632036805152893
150.25661000,150256610,0.0005035977810621262
150.25713100,150257131,0.0005035977810621262
150.25767800,150257678,0.0015678172931075096
150.25821700,150258217,0.0015678172931075096
150.25823900,150258239,0.0015678172931075096
150.25871500,150258715,0.0005035977810621262
150.25923500,150259235,0.0005035977810621262
150.25976100,150259761,0.0015678172931075096
150.26029000,150260290,0.0036962563171982765
150.26082000,150260820,0.0036962563171982765
150.26147800,150261478,0.0005035977810621262
150.26200400,150262004,0.002632036805152893
150.26254000,150262540,0.00476047582924366
150.26306300,150263063,0.0005035977810621262
150.26358200,150263582,0.0015678172931075096
150.26411200,150264112,0.002632036805152893
150.26463500,150264635,0.0005035977810621262
150.26517500,150265175,0.0005035977810621262
150.26569600,150265696,0.0005035977810621262
150.26621600,150266216,0.0015678172931075096
150.26674300,150266743,0.0015678172931075096
150.26726500,150267265,0.002632036805152893
150.26782600,150267826,0.002632036805152893
150.26785000,150267850,0.0015678172931075096
150.26831800,150268318,0.0005035977810621262
150.26898000,150268980,0.0015678172931075096
150.26950300,150269503,0.0015678172931075096
150.27003700,150270037,0.0015678172931075096
150.27056300,150270563,0.0005035977810621262
150.27108700,150271087,0.0005035977810621262
150.27160700,150271607,0.002632036805152893
150.27213600,150272136,0.0015678172931075096
150.27268300,150272683,-0.0005606217309832573
150.27319300,150273193,0.0015678172931075096
150.27371600,150273716,0.002632036805152893
150.27424100,150274241,-0.0016248412430286407
150.27476600,150274766,0.0015678172931075096
150.27529800,150275298,0.002632036805152893
150.27582000,150275820,0.0005035977810621262
150.27650500,150276505,0.0005035977810621262
150.27653100,150276531,0.0005035977810621262
150.27700100,150277001,0.002632036805152893
150.27753400,150277534,0.002632036805152893
150.27805900,150278059,0.0005035977810621262
150.27858200,150278582,0.0005035977810621262
150.27911000,150279110,0.0005035977810621262
150.27963100,150279631,0.0005035977810621262
150.28017500,150280175,0.0015678172931075096
150.28068700,150280687,0.0015678172931075096
150.28120900,150281209,0.0005035977810621262
150.28173400,150281734,-0.0005606217309832573
150.28225900,150282259,-0.0005606217309832573
150.28279400,150282794,0.002632036805152893
150.28331800,150283318,0.0036962563171982765
150.28401500,150284015,0.0005035977810621262
150.28403600,150284036,0.002632036805152893
150.28451300,150284513,0.002632036805152893
150.28504400,150285044,-0.0005606217309832573
150.28557000,150285570,0.0015678172931075096
150.28609100,150286091,0.002632036805152893
150.28661800,150286618,0.002632036805152893
150.28714100,150287141,0.0015678172931075096
150.28767600,150287676,0.0005035977810621262
150.28820200,150288202,0.0005035977810621262
150.28872500,150288725,0.0015678172931075096
150.28925200,150289252,0.0015678172931075096
150.28977300,150289773,0.0015678172931075096
150.29031000,150290310,0.0005035977810621262
150.29099200,150290992,0.0005035977810621262
150.29151500,150291515,0.0015678172931075096
150.29203900,150292039,0.0005035977810621262
150.29257400,150292574,0.0015678172931075096
150.29312100,150293121,0.0015678172931075096
150.29314300,150293143,0.0005035977810621262
150.29361600,150293616,-0.0005606217309832573
150.29414500,150294145,0.0005035977810621262
150.29466700,150294667,0.0005035977810621262
150.29520100,150295201,-0.0005606217309832573
150.29572400,150295724,0.0015678172931075096
150.29625100,150296251,0.0005035977810621262
150.29677700,150296777,0.0005035977810621262
150.29729800,150297298,0.0015678172931075096
150.29783100,150297831,0.0015678172931075096
150.29848100,150298481,0.0005035977810621262
150.29901200,150299012,0.0005035977810621262
150.29953400,150299534,0.0015678172931075096
150.30007900,150300079,0.0015678172931075096
150.30060500,150300605,0.0005035977810621262
150.30112300,150301123,-0.0005606217309832573
150.30164900,150301649,-0.0016248412430286407
150.30217200,150302172,-0.0005606217309832573
150.30274600,150302746,0.002632036805152893
150.30276700,150302767,0.0036962563171982765
150.30325200,150303252,0.002632036805152893
150.30376500,150303765,0.002632036805152893
150.30429500,150304295,0.0015678172931075096
150.30481800,150304818,0.0005035977810621262
150.30549200,150305492,0.0015678172931075096
150.30602100,150306021,0.0036962563171982765
150.30654900,150306549,0.002632036805152893
150.30706600,150307066,0.0015678172931075096
150.30760700,150307607,0.0036962563171982765
150.30813500,150308135,0.002632036805152893
150.30865900,150308659,0.0005035977810621262
150.30918100,150309181,0.0005035977810621262
150.30970600,150309706,-0.0005606217309832573
150.31024000,150310240,0.0005035977810621262
150.31076600,150310766,0.002632036805152893
150.31131500,150311315,0.002632036805152893
150.31133500,150311335,0.0005035977810621262
150.31181300,150311813,0.0005035977810621262
150.31251400,150312514,0.0005035977810621262
150.31304500,150313045,0.0015678172931075096
150.31356500,150313565,0.0015678172931075096
150.31409100,150314091,0.0005035977810621262
150.31461400,150314614,0.0005035977810621262
150.31516000,150315160,-0.0005606217309832573
150.31567100,150315671,-0.002689060755074024
150.31619200,150316192,-0.0005606217309832573
150.31671800,150316718,0.0036962563171982765
150.31724400,150317244,0.0015678172931075096
150.31777200,150317772,0.0005035977810621262
150.31829700,150318297,0.0036962563171982765
150.31881900,150318819,0.0005035977810621262
150.31950700,150319507,-0.0016248412430286407
150.31952800,150319528,0.0015678172931075096
150.32002800,150320028,0.0005035977810621262
150.32054900,150320549,0.0005035977810621262
150.32107700,150321077,0.0005035977810621262
150.32159900,150321599,0.0015678172931075096
150.32212800,150322128,0.002632036805152893
150.32267100,150322671,0.002632036805152893
150.32318800,150323188,0.0015678172931075096
150.32370900,150323709,0.002632036805152893
150.32423500,150324235,0.002632036805152893
150.32475800,150324758,0.002632036805152893
150.32528800,150325288,0.002632036805152893
150.32581400,150325814,0.0015678172931075096
150.32650600,150326506,0.0005035977810621262
150.32653100,150326531,-0.0005606217309832573
150.32700300,150327003,0.0005035977810621262
150.32753700,150327537,0.0005035977810621262
150.32806500,150328065,0.0005035977810621262
150.32858600,150328586,0.0015678172931075096
150.32911300,150329113,0.0015678172931075096
150.32963500,150329635,0.0015678172931075096
150.33017900,150330179,0.0015678172931075096
150.33069300,150330693,0.0005035977810621262
150.33121400,150331214,0.0005035977810621262
150.33173800,150331738,0.0015678172931075096
150.33226000,150332260,0.0015678172931075096
150.33280400,150332804,0.0005035977810621262
150.33331800,150333318,0.0015678172931075096
150.33398600,150333986,0.0015678172931075096
150.33451800,150334518,0.0015678172931075096
150.33505000,150335050,0.0015678172931075096
150.33559900,150335599,0.002632036805152893
150.33562100,150335621,0.0015678172931075096
150.33609500,150336095,0.0015678172931075096
150.33662500,150336625,0.0015678172931075096
150.33714900,150337149,0.0015678172931075096
150.33768200,150337682,0.002632036805152893
150.33820700,150338207,0.0005035977810621262
150.33872700,150338727,-0.0016248412430286407
150.33925300,150339253,-0.0005606217309832573
150.33977700,150339777,0.0015678172931075096
150.34030900,150340309,0.002632036805152893
150.34098800,150340988,0.0015678172931075096
150.34151200,150341512,0.002632036805152893
150.34203200,150342032,0.0015678172931075096
150.34256900,150342569,-0.0016248412430286407
150.34309000,150343090,0.0015678172931075096
150.34361000,150343610,0.0015678172931075096
150.34414200,150344142,0.0015678172931075096
150.34468900,150344689,0.0015678172931075096
150.34470900,150344709,0.0015678172931075096
150.34519500,150345195,0.0005035977810621262
150.34572900,150345729,0.0015678172931075096
150.34625300,150346253,0.0005035977810621262
150.34677600,150346776,0.0005035977810621262
150.34730200,150347302,0.0005035977810621262
150.34789200,150347892,0.0015678172931075096
150.34848900,150348489,0.0015678172931075096
150.34901200,150349012,0.0015678172931075096
150.34953300,150349533,0.0005035977810621262
150.35006900,150350069,-0.0005606217309832573
150.35058800,150350588,0.0005035977810621262
150.35111100,150351111,0.0005035977810621262
150.35163400,150351634,0.0015678172931075096
150.35215800,150352158,0.002632036805152893
150.35269100,150352691,0.0005035977810621262
150.35321300,150353213,0.0005035977810621262
150.35373500,150353735,0.0015678172931075096
150.35428500,150354285,0.0005035977810621262
150.35430700,150354307,0.0005035977810621262
150.35478200,150354782,0.0005035977810621262
150.35531100,150355311,0.0005035977810621262
150.35599100,150355991,0.0015678172931075096
150.35651300,150356513,0.0005035977810621262
150.35703900,150357039,0.0005035977810621262
150.35757000,150357570,0.0015678172931075096
150.35810300,150358103,0.0015678172931075096
150.35862400,150358624,0.002632036805152893
150.35914400,150359144,0.0015678172931075096
150.35967000,150359670,0.0015678172931075096
150.36021800,150360218,0.0005035977810621262
150.36074400,150360744,-0.0005606217309832573
150.36126300,150361263,0.0005035977810621262
150.36179200,150361792,0.0015678172931075096
150.36231000,150362310,0.002632036805152893
150.36302200,150363022,0.0005035977810621262
150.36304300,150363043,0.0005035977810621262
150.36351800,150363518,0.0036962563171982765
150.36404600,150364046,0.0015678172931075096
150.36456300,150364563,0.0015678172931075096
150.36511100,150365111,0.0036962563171982765
150.36563100,150365631,0.0005035977810621262
150.36615300,150366153,-0.0005606217309832573
150.36668000,150366680,0.0015678172931075096
150.36720700,150367207,0.0015678172931075096
150.36774700,150367747,0.0005035977810621262
150.36826700,150368267,0.0005035977810621262
150.36878900,150368789,0.0005035977810621262
150.36931500,150369315,0.0015678172931075096
150.37004200,150370042,0.0015678172931075096
150.37006300,150370063,0.0005035977810621262
150.37054600,150370546,0.0015678172931075096
150.37107600,150371076,0.0015678172931075096
150.37159700,150371597,0.0015678172931075096
150.37212400,150372124,0.0005035977810621262
150.37266500,150372665,0.0015678172931075096
150.37318200,150373182,0.0015678172931075096
150.37370100,150373701,0.002632036805152893
150.37422700,150374227,0.0015678172931075096
150.37474900,150374749,0.0005035977810621262
150.37528200,150375282,0.0036962563171982765
150.37580800,150375808,0.002632036805152893
150.37647700,150376477,0.0015678172931075096
150.37700400,150377004,0.0036962563171982765
150.37756800,150377568,0.002632036805152893
150.37758900,150377589,0.0005035977810621262
150.37806400,150378064,0.0015678172931075096
150.37858200,150378582,0.0015678172931075096
150.37910700,150379107,0.0005035977810621262
150.37962800,150379628,0.0015678172931075096
150.38017400,150380174,0.0015678172931075096
150.38068800,150380688,0.0015678172931075096
150.38121300,150381213,0.0015678172931075096
150.38173600,150381736,0.0005035977810621262
150.38226100,150382261,0.0015678172931075096
150.38279000,150382790,0.0015678172931075096
150.38331400,150383314,0.0015678172931075096
150.38398500,150383985,0.0015678172931075096
150.38451000,150384510,0.002632036805152893
150.38504200,150385042,0.002632036805152893
150.38559600,150385596,0.002632036805152893
150.38608800,150386088,0.0005035977810621262
150.38661300,150386613,-0.0005606217309832573
150.38716300,150387163,0.0005035977810621262
150.38718900,150387189,0.0015678172931075096
150.38767300,150387673,0.0015678172931075096
150.38819500,150388195,0.0015678172931075096
150.38871600,150388716,0.0005035977810621262
150.38924500,150389245,0.0005035977810621262
150.38976900,150389769,0.0005035977810621262
150.39030100,150390301,0.0015678172931075096
150.39082200,150390822,0.0015678172931075096
150.39148300,150391483,0.002632036805152893
150.39200700,150392007,0.002632036805152893
150.39254400,150392544,0.0005035977810621262
150.39306300,150393063,0.0005035977810621262
150.39358800,150393588,0.002632036805152893
150.39411700,150394117,0.002632036805152893
150.39463800,150394638,0.0015678172931075096
150.39518200,150395182,0.002632036805152893
150.39570300,150395703,0.0015678172931075096
150.39622600,150396226,0.0015678172931075096
150.39677800,150396778,0.0015678172931075096
150.39679800,150396798,0.0005035977810621262
150.39727500,150397275,0.0005035977810621262
150.39780700,150397807,-0.0005606217309832573
150.39848300,150398483,0.0005035977810621262
150.39901100,150399011,0.0036962563171982765
150.39953100,150399531,0.0005035977810621262
150.40006800,150400068,-0.0005606217309832573
150.40058800,150400588,0.0015678172931075096
150.40111100,150401111,-0.0005606217309832573
150.40164200,150401642,-0.0005606217309832573
150.40216400,150402164,0.0036962563171982765
150.40270800,150402708,0.002632036805152893
150.40322400,150403224,0.0015678172931075096
150.40374300,150403743,0.002632036805152893
150.40427900,150404279,0.0036962563171982765
150.40480200,150404802,0.002632036805152893
150.40541800,150405418,0.0015678172931075096
150.40543900,150405439,0.0015678172931075096
150.40599700,150405997,0.0015678172931075096
150.40651700,150406517,0.0015678172931075096
150.40705100,150407051,0.0015678172931075096
150.40758300,150407583,0.0005035977810621262
150.40815000,150408150,0.0005035977810621262
150.40867100,150408671,0.002632036805152893
150.40919600,150409196,0.0036962563171982765
150.40971900,150409719,0.002632036805152893
150.41026000,150410260,0.0005035977810621262
150.41078200,150410782,0.0005035977810621262
150.41130500,150411305,0.0036962563171982765
150.41201100,150412011,0.0015678172931075096
150.41203100,150412031,-0.0005606217309832573
150.41252200,150412522,0.002632036805152893
150.41304500,150413045,0.002632036805152893
150.41356500,150413565,0.0005035977810621262
150.41409000,150414090,0.0005035977810621262
150.41461200,150414612,0.0005035977810621262
150.41515800,150415158,0.0005035977810621262
150.41567200,150415672,0.0005035977810621262
150.41619300,150416193,0.0015678172931075096
150.41671900,150416719,0.002632036805152893
150.41724200,150417242,0.002632036805152893
150.41777600,150417776,0.0015678172931075096
150.41830300,150418303,0.0015678172931075096
150.41882500,150418825,0.0015678172931075096
150.41948600,150419486,0.0015678172931075096
150.42004800,150420048,0.0015678172931075096
150.42006800,150420068,0.0015678172931075096
150.42054700,150420547,0.0015678172931075096
150.42106600,150421066,0.0005035977810621262
150.42160000,150421600,0.0015678172931075096
150.42212600,150422126,0.0015678172931075096
150.42267700,150422677,0.0015678172931075096
150.42318500,150423185,0.0015678172931075096
150.42370900,150423709,-0.0016248412430286407
150.42423300,150424233,0.0005035977810621262
150.42475800,150424758,0.0015678172931075096
150.42529100,150425291,-0.0005606217309832573
150.42581000,150425810,0.0005035977810621262
150.42648300,150426483,0.0015678172931075096
150.42700700,150427007,0.0015678172931075096
150.42754500,150427545,0.002632036805152893
150.42806800,150428068,0.0015678172931075096
150.42858500,150428585,0.0015678172931075096
150.42914100,150429141,0.0005035977810621262
150.42916200,150429162,0.0005035977810621262
150.42963800,150429638,0.0005035977810621262
150.43018100,150430181,0.0015678172931075096
150.43070400,150430704,0.0015678172931075096
150.43122500,150431225,0.0015678172931075096
150.43174600,150431746,0.0015678172931075096
150.43227300,150432273,0.0015678172931075096
150.43280900,150432809,0.0005035977810621262
150.43338500,150433385,0.0005035977810621262
150.43398800,150433988,0.0036962563171982765
150.43451000,150434510,0.0015678172931075096
150.43504600,150435046,0.0005035977810621262
150.43557200,150435572,0.0036962563171982765
150.43609300,150436093,0.002632036805152893
150.43662300,150436623,0.0005035977810621262
150.43714500,150437145,0.0005035977810621262
150.43768200,150437682,0.0015678172931075096
150.43823400,150438234,0.0015678172931075096
150.43825600,150438256,0.0005035977810621262
150.43872800,150438728,0.0015678172931075096
150.43925500,150439255,0.002632036805152893
150.43977600,150439776,0.0005035977810621262
150.44031000,150440310,0.0005035977810621262
150.44088500,150440885,0.0005035977810621262
150.44148000,150441480,0.0005035977810621262
150.44200400,150442004,0.0015678172931075096
150.44253900,150442539,0.0015678172931075096
150.44306400,150443064,0.0005035977810621262
150.44358900,150443589,-0.0005606217309832573
150.44411100,150444111,0.0015678172931075096
150.44464200,150444642,0.0015678172931075096
150.44517800,150445178,-0.0016248412430286407
150.44569800,150445698,0.0015678172931075096
150.44621900,150446219,0.002632036805152893
150.44674600,150446746,-0.0005606217309832573
150.44726800,150447268,0.0005035977810621262
150.44779800,150447798,0.0015678172931075096
150.44835400,150448354,0.0005035977810621262
150.44837500,150448375,0.0005035977810621262
150.44898700,150448987,0.0005035977810621262
150.44950800,150449508,0.0005035977810621262
150.45004500,150450045,0.0015678172931075096
150.45056500,150450565,0.002632036805152893
150.45108700,150451087,0.0015678172931075096
150.45161400,150451614,0.0015678172931075096
150.45213800,150452138,0.0015678172931075096
150.45268100,150452681,0.0015678172931075096
150.45319600,150453196,0.0005035977810621262
150.45372300,150453723,0.0005035977810621262
150.45424800,150454248,0.002632036805152893
150.45477000,150454770,0.0015678172931075096
150.45530300,150455303,0.0015678172931075096
150.45588500,150455885,0.0005035977810621262
150.45651400,150456514,-0.0005606217309832573
150.45653600,150456536,0.0015678172931075096
150.45700800,150457008,0.0015678172931075096
150.45754100,150457541,0.002632036805152893
150.45807000,150458070,0.0036962563171982765
150.45858500,150458585,0.0015678172931075096
150.45911200,150459112,0.0005035977810621262
150.45963100,150459631,0.0005035977810621262
150.46018500,150460185,0.0015678172931075096
150.46069300,150460693,0.0015678172931075096
150.46121200,150461212,0.0015678172931075096
150.46173500,150461735,0.0015678172931075096
150.46226100,150462261,0.0015678172931075096
150.46279100,150462791,0.0015678172931075096
150.46331500,150463315,0.0015678172931075096
150.46398300,150463983,0.0015678172931075096
150.46453100,150464531,0.0005035977810621262
150.46455400,150464554,-0.0005606217309832573
150.46504400,150465044,-0.0005606217309832573
150.46556200,150465562,-0.0005606217309832573
150.46608500,150466085,0.0005035977810621262
150.46661100,150466611,0.0015678172931075096
150.46713100,150467131,-0.0005606217309832573
150.46767600,150467676,0.0015678172931075096
150.46819200,150468192,0.0015678172931075096
150.46872000,150468720,0.0005035977810621262
150.46923900,150469239,0.0005035977810621262
150.46976500,150469765,-0.0005606217309832573
150.47029300,150470293,-0.0005606217309832573
150.47081800,150470818,-0.0005606217309832573
150.47147700,150471477,0.0005035977810621262
150.47200300,150472003,0.002632036805152893
150.47253900,150472539,0.0036962563171982765
150.47306100,150473061,0.002632036805152893
150.47358200,150473582,0.0015678172931075096
150.47414600,150474146,0.0015678172931075096
150.47416700,150474167,0.0015678172931075096
150.47464300,150474643,0.0005035977810621262
150.47518700,150475187,-0.0005606217309832573
150.47571000,150475710,0.0005035977810621262
150.47623100,150476231,0.0015678172931075096
150.47675600,150476756,-0.0005606217309832573
150.47728600,150477286,-0.0016248412430286407
150.47781900,150477819,0.0005035977810621262
150.47848300,150478483,0.0015678172931075096
150.47900800,150479008,-0.0016248412430286407
150.47953000,150479530,-0.0005606217309832573
150.48007000,150480070,0.002632036805152893
150.48059700,150480597,0.0015678172931075096
150.48112000,150481120,0.002632036805152893
150.48164000,150481640,0.002632036805152893
150.48216600,150482166,0.0015678172931075096
150.48269600,150482696,0.0005035977810621262
150.48324700,150483247,0.0005035977810621262
150.48327000,150483270,0.0015678172931075096
150.48374300,150483743,0.002632036805152893
150.48426900,150484269,0.002632036805152893
150.48479200,150484792,0.002632036805152893
150.48532100,150485321,0.0015678172931075096
150.48599000,150485990,0.0005035977810621262
150.48651400,150486514,0.0015678172931075096
150.48703700,150487037,0.002632036805152893
150.48757000,150487570,0.002632036805152893
150.48809200,150488092,0.0015678172931075096
150.48861300,150488613,0.002632036805152893
150.48913800,150489138,0.0036962563171982765
150.48965900,150489659,0.002632036805152893
150.49019100,150490191,0.0005035977810621262
150.49071600,150490716,0.002632036805152893
150.49123600,150491236,0.0015678172931075096
150.49176100,150491761,-0.0016248412430286407
150.49228400,150492284,0.0015678172931075096
150.49281800,150492818,0.002632036805152893
150.49352100,150493521,0.0015678172931075096
150.49354200,150493542,0.0015678172931075096
150.49402500,150494025,0.002632036805152893
150.49454700,150494547,0.0005035977810621262
150.49507500,150495075,0.0005035977810621262
150.49560100,150495601,0.0005035977810621262
150.49612400,150496124,-0.0005606217309832573
150.49664800,150496648,0.0005035977810621262
150.49717200,150497172,0.0015678172931075096
150.49771800,150497718,0.0015678172931075096
150.49824600,150498246,0.0005035977810621262
150.49876700,150498767,0.0005035977810621262
150.49929400,150499294,0.0005035977810621262
150.49981400,150499814,0.0005035977810621262
150.50052200,150500522,0.0005035977810621262
150.50054200,150500542,0.0005035977810621262
150.50101600,150501016,0.0015678172931075096
150.50154300,150501543,0.0015678172931075096
150.50206400,150502064,0.0005035977810621262
150.50260800,150502608,0.0015678172931075096
150.50313100,150503131,0.0015678172931075096
150.50365300,150503653,0.0005035977810621262
150.50417700,150504177,0.002632036805152893
150.50469900,150504699,0.002632036805152893
150.50524800,150505248,0.002632036805152893
150.50577700,150505777,0.0015678172931075096
150.50630000,150506300,0.0015678172931075096
150.50682000,150506820,0.0005035977810621262
150.50753900,150507539,0.0015678172931075096
150.50756000,150507560,0.0015678172931075096
150.50803700,150508037,0.0005035977810621262
150.50856600,150508566,0.0015678172931075096
150.50908800,150509088,0.0015678172931075096
150.50961200,150509612,0.0015678172931075096
150.51015600,150510156,0.0015678172931075096
150.51066700,150510667,0.0015678172931075096
150.51119700,150511197,0.002632036805152893
150.51171500,150511715,0.0015678172931075096
150.51224100,150512241,0.002632036805152893
150.51279300,150512793,0.0015678172931075096
150.51331400,150513314,0.0005035977810621262
150.51398500,150513985,0.0005035977810621262
150.51451100,150514511,0.0005035977810621262
150.51504600,150515046,0.0005035977810621262
150.51557200,150515572,0.0015678172931075096
150.51611800,150516118,0.0005035977810621262
150.51613800,150516138,-0.0005606217309832573
150.51662400,150516624,0.0005035977810621262
150.51714600,150517146,0.0005035977810621262
150.51767900,150517679,0.0015678172931075096
150.51820400,150518204,0.002632036805152893
150.51872900,150518729,0.0015678172931075096
150.51925000,150519250,0.0015678172931075096
150.51977700,150519777,0.0015678172931075096
150.52030600,150520306,0.0015678172931075096
150.52099000,150520990,0.0015678172931075096
150.52151200,150521512,0.0015678172931075096
150.52203400,150522034,0.0015678172931075096
150.52257000,150522570,0.0015678172931075096
150.52309500,150523095,-0.0005606217309832573
150.52361500,150523615,-0.0016248412430286407
150.52414100,150524141,0.002632036805152893
150.52466400,150524664,0.002632036805152893
150.52523300,150525233,0.0005035977810621262
150.52525400,150525254,0.002632036805152893
150.52571900,150525719,0.002632036805152893
150.52624100,150526241,0.0015678172931075096
150.52676500,150526765,0.002632036805152893
150.52728900,150527289,0.002632036805152893
150.52782000,150527820,0.002632036805152893
150.52849000,150528490,0.002632036805152893
150.52901900,150529019,0.002632036805152893
150.52954200,150529542,0.0015678172931075096
150.53007300,150530073,0.0015678172931075096
150.53060300,150530603,0.0015678172931075096
150.53113100,150531131,0.002632036805152893
150.53165000,150531650,0.002632036805152893
150.53217600,150532176,0.0015678172931075096
150.53270700,150532707,0.0015678172931075096
150.53323600,150533236,0.0015678172931075096
150.53376000,150533760,0.002632036805152893
150.53431000,150534310,0.002632036805152893
150.53433100,150534331,0.0036962563171982765
150.53480500,150534805,0.0005035977810621262
150.53549300,150535493,-0.0005606217309832573
150.53601600,150536016,0.0015678172931075096
150.53654000,150536540,0.0005035977810621262
150.53705800,150537058,0.0005035977810621262
150.53759500,150537595,0.002632036805152893
150.53811700,150538117,0.0015678172931075096
150.53864100,150538641,-0.0016248412430286407
150.53916700,150539167,0.0005035977810621262
150.53969000,150539690,0.0005035977810621262
150.54023400,150540234,0.0015678172931075096
150.54075600,150540756,0.0015678172931075096
150.54127700,150541277,0.0015678172931075096
150.54180300,150541803,0.0015678172931075096
150.54245700,150542457,0.0005035977810621262
150.54248200,150542482,0.0005035977810621262
150.54299700,150542997,0.0015678172931075096
150.54352500,150543525,0.0015678172931075096
150.54404500,150544045,0.0015678172931075096
150.54457400,150544574,-0.0005606217309832573
150.54510600,150545106,-0.0005606217309832573
150.54563500,150545635,0.0015678172931075096
150.54615200,150546152,0.002632036805152893
150.54668600,150546686,0.0005035977810621262
150.54721000,150547210,0.0015678172931075096
150.54774800,150547748,0.0015678172931075096
150.54826900,150548269,0.0005035977810621262
150.54879000,150548790,0.002632036805152893
150.54931600,150549316,0.002632036805152893
150.55003900,150550039,0.0005035977810621262
150.55006000,150550060,0.0005035977810621262
150.55053800,150550538,0.0015678172931075096
150.55106400,150551064,0.002632036805152893
150.55159200,150551592,0.002632036805152893
150.55211400,150552114,0.0015678172931075096
150.55266500,150552665,0.0015678172931075096
150.55317900,150553179,0.002632036805152893
150.55371200,150553712,0.002632036805152893
150.55423400,150554234,0.002632036805152893
150.55476200,150554762,0.002632036805152893
150.55529100,150555291,0.002632036805152893
150.55581800,150555818,0.0015678172931075096
150.55648000,150556480,0.0015678172931075096
150.55700400,150557004,0.0015678172931075096
150.55753600,150557536,0.0005035977810621262
150.55809700,150558097,0.0005035977810621262
150.55812100,150558121,0.0005035977810621262
150.55859100,150558591,0.0005035977810621262
150.55912200,150559122,0.0015678172931075096
150.55964600,150559646,0.0005035977810621262
150.56017900,150560179,-0.0005606217309832573
150.56070500,150560705,0.0015678172931075096
150.56122800,150561228,0.002632036805152893
150.56175300,150561753,0.0015678172931075096
150.56227700,150562277,0.0036962563171982765
150.56280900,150562809,0.002632036805152893
150.56348600,150563486,0.0015678172931075096
150.56401000,150564010,0.0015678172931075096
150.56452900,150564529,0.0005035977810621262
150.56506300,150565063,-0.0005606217309832573
150.56560400,150565604,0.0005035977810621262
150.56611400,150566114,0.0005035977810621262
150.56663400,150566634,0.0015678172931075096
150.56718700,150567187,0.0005035977810621262
150.56720800,150567208,0.0005035977810621262
150.56769100,150567691,0.0005035977810621262
150.56822000,150568220,0.0005035977810621262
150.56874800,150568748,0.0005035977810621262
150.56927200,150569272,0.002632036805152893
150.56979500,150569795,0.002632036805152893
150.57032900,150570329,0.0005035977810621262
150.57098300,150570983,0.0015678172931075096
150.57151100,150571511,0.0015678172931075096
150.57203000,150572030,0.0005035977810621262
150.57257000,150572570,0.0015678172931075096
150.57309600,150573096,0.0015678172931075096
150.57361700,150573617,-0.0016248412430286407
150.57414500,150574145,-0.0005606217309832573
150.57466500,150574665,-0.0005606217309832573
150.57520800,150575208,0.0005035977810621262
150.57573300,150575733,0.0015678172931075096
150.57624100,150576241,0.0015678172931075096
150.57679500,150576795,0.002632036805152893
150.57681800,150576818,0.002632036805152893
150.57729200,150577292,0.0015678172931075096
150.57782400,150577824,0.0015678172931075096
150.57849600,150578496,0.002632036805152893
150.57901500,150579015,0.0015678172931075096
150.57954600,150579546,0.0005035977810621262
150.58008100,150580081,0.0005035977810621262
150.58060500,150580605,0.0005035977810621262
150.58112600,150581126,0.002632036805152893
150.58165100,150581651,0.0015678172931075096
150.58217600,150582176,0.0015678172931075096
150.58271100,150582711,0.0036962563171982765
150.58323700,150583237,0.002632036805152893
150.58376100,150583761,0.0005035977810621262
150.58428600,150584286,0.002632036805152893
150.58481200,150584812,0.0015678172931075096
150.58552000,150585520,0.0005035977810621262
150.58554100,150585541,0.0015678172931075096
150.58601900,150586019,0.0015678172931075096
150.58654500,150586545,0.0015678172931075096
150.58706800,150587068,0.0005035977810621262
150.58760300,150587603,0.0005035977810621262
150.58815100,150588151,0.0015678172931075096
150.58866800,150588668,0.0005035977810621262
150.58919200,150589192,0.0005035977810621262
150.58971600,150589716,0.0005035977810621262
150.59026100,150590261,0.0015678172931075096
150.59079100,150590791,0.0015678172931075096
150.59131600,150591316,0.0015678172931075096
150.59201100,150592011,0.0005035977810621262
150.59203100,150592031,0.0005035977810621262
150.59252700,150592527,0.0015678172931075096
150.59305100,150593051,0.002632036805152893
150.59357500,150593575,-0.0005606217309832573
150.59409700,150594097,-0.0005606217309832573
150.59462200,150594622,0.0015678172931075096
150.59516500,150595165,-0.0005606217309832573
150.59567800,150595678,0.0005035977810621262
150.59619800,150596198,0.002632036805152893
150.59672600,150596726,0.002632036805152893
150.59724800,150597248,0.002632036805152893
150.59778200,150597782,0.0015678172931075096
150.59830200,150598302,0.0015678172931075096
150.59888200,150598882,0.002632036805152893
150.59948400,150599484,0.0036962563171982765
150.60005500,150600055,0.0015678172931075096
150.60007600,150600076,0.0015678172931075096
150.60055300,150600553,0.0015678172931075096
150.60107600,150601076,0.0005035977810621262
150.60161000,150601610,0.0005035977810621262
150.60213300,150602133,0.0005035977810621262
150.60267600,150602676,0.0015678172931075096
150.60319500,150603195,0.0005035977810621262
150.60372500,150603725,0.0005035977810621262
150.60424500,150604245,0.0036962563171982765
150.60477100,150604771,0.002632036805152893
150.60530000,150605300,0.0015678172931075096
150.60582800,150605828,0.00476047582924366
150.60648200,150606482,0.0015678172931075096
150.60700600,150607006,0.0015678172931075096
150.60753700,150607537,0.0036962563171982765
150.60806300,150608063,0.002632036805152893
150.60858400,150608584,0.0015678172931075096
150.60911300,150609113,0.0015678172931075096
150.60966000,150609660,0.0015678172931075096
150.60968000,150609680,0.0005035977810621262
150.61018100,150610181,0.0005035977810621262
150.61069200,150610692,0.002632036805152893
150.61121800,150611218,0.002632036805152893
150.61173800,150611738,0.0005035977810621262
150.61226400,150612264,0.0005035977810621262
150.61279800,150612798,0.0015678172931075096
150.61331900,150613319,0.0015678172931075096
150.61398800,150613988,0.002632036805152893
150.61450700,150614507,0.002632036805152893
150.61504200,150615042,0.002632036805152893
150.61556700,150615567,0.0005035977810621262
150.61609500,150616095,0.0005035977810621262
150.61661700,150616617,0.0015678172931075096
150.61714300,150617143,0.0015678172931075096
150.61767900,150617679,0.0015678172931075096
150.61820100,150618201,0.002632036805152893
150.61872200,150618722,0.0005035977810621262
150.61927200,150619272,-0.0005606217309832573
150.61929500,150619295,0.0005035977810621262
150.61977100,150619771,0.0005035977810621262
150.62030100,150620301,0.0005035977810621262
150.62082800,150620828,0.0015678172931075096
150.62148000,150621480,0.0015678172931075096
150.62200600,150622006,0.0005035977810621262
150.62254100,150622541,0.0005035977810621262
150.62306100,150623061,0.0005035977810621262
150.62358500,150623585,0.0005035977810621262
150.62411200,150624112,0.0015678172931075096
150.62463800,150624638,0.0005035977810621262
150.62517800,150625178,0.0005035977810621262
150.62569200,150625692,0.002632036805152893
150.62622100,150626221,0.0036962563171982765
150.62674800,150626748,0.0015678172931075096
150.62727000,150627270,0.0005035977810621262
150.62780200,150627802,0.002632036805152893
150.62833000,150628330,0.0015678172931075096
150.62900900,150629009,0.0015678172931075096
150.62903100,150629031,0.002632036805152893
150.62951100,150629511,-0.0005606217309832573
150.63004500,150630045,-0.0005606217309832573
150.63057100,150630571,0.0015678172931075096
150.63109000,150631090,0.0015678172931075096
150.63161500,150631615,0.002632036805152893
150.63213700,150632137,0.0015678172931075096
150.63267100,150632671,0.0005035977810621262
150.63320700,150633207,0.0015678172931075096
150.63371400,150633714,0.0005035977810621262
150.63424500,150634245,-0.0005606217309832573
150.63476200,150634762,-0.0005606217309832573
150.63529800,150635298,0.0005035977810621262
150.63581900,150635819,0.002632036805152893
150.63651500,150636515,0.002632036805152893
150.63653700,150636537,0.0005035977810621262
150.63700800,150637008,-0.0005606217309832573
150.63754000,150637540,0.0005035977810621262
150.63806800,150638068,0.002632036805152893
150.63859100,150638591,0.0015678172931075096
150.63911500,150639115,0.0005035977810621262
150.63963700,150639637,0.0015678172931075096
150.64017600,150640176,0.0015678172931075096
150.64069500,150640695,0.0015678172931075096
150.64121900,150641219,0.002632036805152893
150.64174000,150641740,0.002632036805152893
150.64226600,150642266,0.0005035977810621262
150.64279700,150642797,0.0005035977810621262
150.64331900,150643319,0.0005035977810621262
150.64398400,150643984,0.0015678172931075096
150.64450700,150644507,0.0015678172931075096
150.64506600,150645066,0.0015678172931075096
150.64508700,150645087,0.0015678172931075096
150.64556500,150645565,0.0005035977810621262
150.64608800,150646088,-0.0005606217309832573
150.64662000,150646620,0.0005035977810621262
150.64714200,150647142,0.0015678172931075096
150.64767400,150647674,0.0015678172931075096
150.64820000,150648200,0.002632036805152893
150.64872000,150648720,0.0036962563171982765
150.64924400,150649244,0.002632036805152893
150.64976600,150649766,0.0005035977810621262
150.65029600,150650296,0.0015678172931075096
150.65082400,150650824,0.0036962563171982765
150.65147800,150651478,0.0005035977810621262
150.65200300,150652003,-0.0016248412430286407
150.65253800,150652538,0.0015678172931075096
150.65306100,150653061,0.0005035977810621262
150.65358700,150653587,0.0005035977810621262
150.65410900,150654109,0.0015678172931075096
150.65465900,150654659,0.0005035977810621262
150.65468000,150654680,0.0015678172931075096
150.65518100,150655181,0.0015678172931075096
150.65569100,150655691,0.0015678172931075096
150.65621300,150656213,0.0005035977810621262
150.65674400,150656744,0.0005035977810621262
150.65726600,150657266,0.0005035977810621262
150.65780500,150657805,0.0015678172931075096
150.65838300,150658383,0.0015678172931075096
150.65898600,150658986,0.0015678172931075096
150.65951600,150659516,0.0005035977810621262
150.66005100,150660051,0.0015678172931075096
150.66057600,150660576,0.002632036805152893
150.66109300,150661093,0.00476047582924366
150.66161700,150661617,0.002632036805152893
150.66214000,150662140,0.0015678172931075096
150.66268100,150662681,0.002632036805152893
150.66320100,150663201,-0.0005606217309832573
150.66372300,150663723,-0.0005606217309832573
150.66427400,150664274,0.002632036805152893
150.66429500,150664295,0.0005035977810621262
150.66477300,150664773,-0.0005606217309832573
150.66530400,150665304,0.0005035977810621262
150.66588500,150665885,0.0015678172931075096
150.66648700,150666487,0.0015678172931075096
150.66702000,150667020,0.0015678172931075096
150.66754800,150667548,0.0015678172931075096
150.66807700,150668077,0.0015678172931075096
150.66860200,150668602,0.0015678172931075096
150.66913100,150669131,0.0005035977810621262
150.66965100,150669651,0.0015678172931075096
150.67018800,150670188,0.002632036805152893
150.67071100,150670711,0.002632036805152893
150.67123300,150671233,0.0015678172931075096
150.67175800,150671758,0.0005035977810621262
150.67227900,150672279,0.0005035977810621262
150.67281300,150672813,-0.0005606217309832573
150.67351100,150673511,0.0015678172931075096
150.67353200,150673532,0.002632036805152893
150.67401100,150674011,0.0005035977810621262
150.67453300,150674533,0.0005035977810621262
150.67506800,150675068,0.0015678172931075096
150.67559000,150675590,-0.0005606217309832573
150.67611200,150676112,0.0005035977810621262
150.67664300,150676643,0.0015678172931075096
150.67716400,150677164,0.0005035977810621262
150.67771300,150677713,-0.0005606217309832573
150.67822400,150678224,-0.0005606217309832573
150.67875300,150678753,-0.0016248412430286407
150.67927300,150679273,-0.0005606217309832573
150.67979900,150679799,0.0005035977810621262
150.68034800,150680348,0.0005035977810621262
150.68101600,150681016,0.0005035977810621262
150.68103700,150681037,0.0015678172931075096
150.68151500,150681515,0.0015678172931075096
150.68203300,150682033,0.0005035977810621262
150.68257600,150682576,0.0015678172931075096
150.68309600,150683096,0.0015678172931075096
150.68361800,150683618,0.0015678172931075096
150.68414300,150684143,0.0015678172931075096
150.68466400,150684664,0.0015678172931075096
150.68520900,150685209,0.0005035977810621262
150.68572600,150685726,-0.0005606217309832573
150.68624800,150686248,0.0015678172931075096
150.68677700,150686777,0.002632036805152893
150.68730000,150687300,-0.0005606217309832573
150.68784700,150687847,0.0005035977810621262
150.68848600,150688486,0.0015678172931075096
150.68901300,150689013,0.0005035977810621262
150.68955500,150689555,0.0005035977810621262
150.68957600,150689576,0.0015678172931075096
150.69006800,150690068,0.0015678172931075096
150.69059000,150690590,0.0015678172931075096
150.69111600,150691116,0.0015678172931075096
150.69164000,150691640,0.0005035977810621262
150.69216100,150692161,0.0005035977810621262
150.69269600,150692696,0.0005035977810621262
150.69321700,150693217,0.0005035977810621262
150.69374000,150693740,0.0005035977810621262
150.69426300,150694263,0.0005035977810621262
150.69478900,150694789,0.0015678172931075096
150.69532600,150695326,0.0015678172931075096
150.69598600,150695986,-0.0005606217309832573
150.69650900,150696509,0.0015678172931075096
150.69703500,150697035,0.002632036805152893
150.69756700,150697567,0.0015678172931075096
150.69809000,150698090,0.002632036805152893
150.69861000,150698610,0.0036962563171982765
150.69916300,150699163,0.0005035977810621262
150.69918500,150699185,0.0015678172931075096
150.69965800,150699658,0.0015678172931075096
150.70019100,150700191,0.0005035977810621262
150.70071900,150700719,0.0015678172931075096
150.70124200,150701242,0.002632036805152893
150.70176700,150701767,0.002632036805152893
150.70229200,150702292,0.0005035977810621262
150.70282400,150702824,0.0005035977810621262
150.70349400,150703494,0.0005035977810621262
150.70401500,150704015,0.0015678172931075096
150.70453900,150704539,0.0005035977810621262
150.70507200,150705072,0.0005035977810621262
150.70559500,150705595,0.0015678172931075096
150.70612100,150706121,0.0015678172931075096
150.70664300,150706643,0.0015678172931075096
150.70716800,150707168,0.0015678172931075096
150.70771600,150707716,0.002632036805152893
150.70823700,150708237,0.0005035977810621262
150.70878200,150708782,0.0005035977810621262
150.70880200,150708802,0.0036962563171982765
150.70928400,150709284,0.0015678172931075096
150.70980600,150709806,0.0015678172931075096
150.71049200,150710492,0.002632036805152893
150.71101400,150711014,0.0005035977810621262
150.71154400,150711544,-0.0005606217309832573
150.71206900,150712069,0.0005035977810621262
150.71260100,150712601,0.0015678172931075096
150.71313000,150713130,0.002632036805152893
150.71365100,150713651,0.0015678172931075096
150.71417800,150714178,0.0005035977810621262
150.71469800,150714698,-0.0005606217309832573
150.71525200,150715252,0.0005035977810621262
150.71577700,150715777,0.0005035977810621262
150.71630100,150716301,0.0015678172931075096
150.71682100,150716821,0.002632036805152893
150.71753900,150717539,0.0015678172931075096
150.71756000,150717560,0.0015678172931075096
150.71804200,150718042,0.0015678172931075096
150.71856100,150718561,0.0015678172931075096
150.71909300,150719093,0.0015678172931075096
150.71960900,150719609,0.0015678172931075096
150.72015900,150720159,0.0036962563171982765
150.72066700,150720667,0.002632036805152893
150.72118900,150721189,0.0015678172931075096
150.72171400,150721714,0.002632036805152893
150.72223800,150722238,0.0015678172931075096
150.72278000,150722780,0.0005035977810621262
150.72330800,150723308,0.0005035977810621262
150.72401200,150724012,0.0005035977810621262
150.72403200,150724032,-0.0005606217309832573
150.72450500,150724505,0.0005035977810621262
150.72503800,150725038,0.0005035977810621262
150.72556400,150725564,0.0015678172931075096
150.72608600,150726086,0.0015678172931075096
150.72660900,150726609,0.0005035977810621262
150.72714500,150727145,0.0015678172931075096
150.72767600,150727676,0.0015678172931075096
150.72820000,150728200,0.0015678172931075096
150.72872900,150728729,0.0015678172931075096
150.72925000,150729250,0.0015678172931075096
150.72977600,150729776,0.0005035977810621262
150.73030500,150730305,0.0015678172931075096
150.73098700,150730987,0.0015678172931075096
150.73153500,150731535,0.0005035977810621262
150.73156000,150731560,0.0015678172931075096
150.73203400,150732034,0.0015678172931075096
150.73258500,150732585,0.0005035977810621262
150.73309200,150733092,0.0015678172931075096
150.73361500,150733615,0.0015678172931075096
150.73414100,150734141,0.0015678172931075096
150.73466200,150734662,0.0015678172931075096
150.73521200,150735212,0.0015678172931075096
150.73572500,150735725,0.0015678172931075096
150.73624500,150736245,0.0015678172931075096
150.73677000,150736770,0.0005035977810621262
150.73729400,150737294,0.0005035977810621262
150.73782300,150737823,0.0005035977810621262
150.73848400,150738484,-0.0005606217309832573
150.73902200,150739022,0.0005035977810621262
150.73954000,150739540,0.0005035977810621262
150.74007300,150740073,0.0015678172931075096
150.74059900,150740599,0.0005035977810621262
150.74115100,150741151,0.0005035977810621262
150.74117300,150741173,0.002632036805152893
150.74164800,150741648,0.0036962563171982765
150.74217000,150742170,0.0036962563171982765
150.74271400,150742714,0.0015678172931075096
150.74324100,150743241,-0.0005606217309832573
150.74375900,150743759,0.0005035977810621262
150.74428900,150744289,0.0015678172931075096
150.74481100,150744811,0.0015678172931075096
150.74548900,150745489,0.0036962563171982765
150.74601100,150746011,0.0015678172931075096
150.74653900,150746539,0.0005035977810621262
150.74705900,150747059,0.0005035977810621262
150.74759900,150747599,0.0005035977810621262
150.74811900,150748119,0.002632036805152893
150.74864000,150748640,0.0036962563171982765
150.74916500,150749165,0.002632036805152893
150.74968800,150749688,0.0015678172931075096
150.75026100,150750261,0.002632036805152893
150.75028200,150750282,0.002632036805152893
150.75075400,150750754,0.002632036805152893
150.75127900,150751279,0.002632036805152893
150.75180300,150751803,0.002632036805152893
150.75251400,150752514,0.0015678172931075096
150.75303900,150753039,0.002632036805152893
150.75356600,150753566,0.002632036805152893
150.75408700,150754087,0.0005035977810621262
150.75461300,150754613,0.0015678172931075096
150.75515600,150755156,0.0015678172931075096
150.75567300,150755673,0.0005035977810621262
150.75619500,150756195,0.0005035977810621262
150.75672700,150756727,0.0005035977810621262
150.75724900,150757249,-0.0005606217309832573
150.75778300,150757783,0.0005035977810621262
150.75834200,150758342,0.0005035977810621262
150.75836300,150758363,0.0015678172931075096
150.75898200,150758982,0.0015678172931075096
150.75950700,150759507,-0.0005606217309832573
150.76004200,150760042,-0.0005606217309832573
150.76056400,150760564,0.0005035977810621262
150.76108400,150761084,0.0005035977810621262
150.76161700,150761617,0.0005035977810621262
150.76214100,150762141,0.0005035977810621262
150.76267700,150762677,0.0005035977810621262
150.76319700,150763197,0.0005035977810621262
150.76372100,150763721,0.0005035977810621262
150.76424900,150764249,-0.0005606217309832573
150.76476900,150764769,-0.0005606217309832573
150.76530500,150765305,0.0005035977810621262
150.76594100,150765941,0.002632036805152893
150.76596200,150765962,0.0015678172931075096
150.76652000,150766520,0.002632036805152893
150.76704900,150767049,0.0015678172931075096
150.76758100,150767581,-0.0005606217309832573
150.76815500,150768155,0.0005035977810621262
150.76867900,150768679,0.002632036805152893
150.76921000,150769210,0.002632036805152893
150.76973100,150769731,0.0015678172931075096
150.77027300,150770273,0.0015678172931075096
150.77079600,150770796,0.0015678172931075096
150.77132000,150771320,0.0015678172931075096
150.77201100,150772011,0.0015678172931075096
150.77203200,150772032,0.0015678172931075096
150.77252200,150772522,0.0005035977810621262
150.77304500,150773045,0.0005035977810621262
150.77357000,150773570,0.0005035977810621262
150.77409800,150774098,-0.0005606217309832573
150.77462300,150774623,-0.0005606217309832573
150.77517500,150775175,-0.0016248412430286407
150.77568500,150775685,-0.002689060755074024
150.77620700,150776207,-0.0005606217309832573
150.77673500,150776735,0.0015678172931075096
150.77725700,150777257,0.0005035977810621262
150.77778900,150777789,0.0005035977810621262
150.77831900,150778319,0.0015678172931075096
150.77902200,150779022,-0.0016248412430286407
150.77957600,150779576,-0.0005606217309832573
150.77959600,150779596,0.0036962563171982765
150.78008100,150780081,0.0015678172931075096
150.78061300,150780613,-0.0005606217309832573
150.78113500,150781135,0.0005035977810621262
150.78166300,150781663,0.0005035977810621262
150.78218600,150782186,0.0015678172931075096
150.78273200,150782732,0.0015678172931075096
150.78325900,150783259,0.0015678172931075096
150.78378400,150783784,0.0015678172931075096
150.78431000,150784310,0.002632036805152893
150.78502800,150785028,0.0015678172931075096
150.78554800,150785548,0.0005035977810621262
150.78607000,150786070,0.0015678172931075096
150.78660300,150786603,0.0015678172931075096
150.78715200,150787152,-0.0005606217309832573
150.78717200,150787172,-0.0005606217309832573
150.78767800,150787678,0.0015678172931075096
150.78819400,150788194,0.0036962563171982765
150.78871500,150788715,0.0015678172931075096
150.78924200,150789242,0.0015678172931075096
150.78976700,150789767,0.0036962563171982765
150.79030200,150790302,0.0005035977810621262
150.79082700,150790827,-0.0005606217309832573
150.79149500,150791495,0.002632036805152893
150.79203000,150792030,0.0005035977810621262
150.79256300,150792563,0.0005035977810621262
150.79309000,150793090,0.0005035977810621262
150.79361000,150793610,0.0005035977810621262
150.79413700,150794137,0.0005035977810621262
150.79465600,150794656,0.002632036805152893
150.79519300,150795193,0.002632036805152893
150.79571900,150795719,0.0015678172931075096
150.79626300,150796263,0.0015678172931075096
150.79628300,150796283,0.0015678172931075096
150.79676300,150796763,0.0015678172931075096
150.79728500,150797285,0.0005035977810621262
150.79781300,150797813,0.0015678172931075096
150.79841000,150798410,0.0005035977810621262
150.79899300,150798993,0.0005035977810621262
150.79951400,150799514,0.0015678172931075096
150.80004800,150800048,0.0005035977810621262
150.80057000,150800570,-0.0005606217309832573
150.80109600,150801096,0.0005035977810621262
150.80161700,150801617,0.0005035977810621262
150.80214300,150802143,0.0005035977810621262
150.80267400,150802674,0.0015678172931075096
150.80320500,150803205,0.0015678172931075096
150.80373400,150803734,0.0015678172931075096
150.80425300,150804253,0.002632036805152893
150.80477800,150804778,0.0015678172931075096
150.80531500,150805315,0.002632036805152893
150.80599000,150805990,0.0015678172931075096
150.80601100,150806011,0.0015678172931075096
150.80648100,150806481,0.002632036805152893
150.80700600,150807006,0.0015678172931075096
150.80753900,150807539,0.0005035977810621262
150.80806600,150808066,-0.0005606217309832573
150.80858700,150808587,0.0005035977810621262
150.80911400,150809114,0.0015678172931075096
150.80963500,150809635,0.0015678172931075096
150.81017900,150810179,0.0005035977810621262
150.81069400,150810694,-0.0005606217309832573
150.81121500,150811215,-0.0005606217309832573
150.81174200,150811742,0.0015678172931075096
150.81226300,150812263,0.0005035977810621262
150.81279500,150812795,-0.0005606217309832573
150.81332000,150813320,0.0015678172931075096
150.81403600,150814036,0.0005035977810621262
150.81405700,150814057,0.0005035977810621262
150.81453200,150814532,0.0036962563171982765
150.81506700,150815067,0.0036962563171982765
150.81559600,150815596,0.0015678172931075096
150.81612100,150816121,0.0015678172931075096
150.81664300,150816643,0.0005035977810621262
150.81716600,150817166,0.0015678172931075096
150.81771100,150817711,0.002632036805152893
150.81822500,150818225,0.0015678172931075096
150.81874700,150818747,0.0015678172931075096
150.81927400,150819274,0.0015678172931075096
150.81979500,150819795,0.0015678172931075096
150.82032900,150820329,0.0015678172931075096
150.82098600,150820986,0.0015678172931075096
150.82153300,150821533,0.0015678172931075096
150.82155600,150821556,0.0005035977810621262
150.82203300,150822033,0.0015678172931075096
150.82256400,150822564,0.0036962563171982765
150.82309300,150823093,0.0015678172931075096
150.82361900,150823619,0.0015678172931075096
150.82414600,150824146,0.002632036805152893
150.82467000,150824670,0.0005035977810621262
150.82520100,150825201,0.002632036805152893
150.82572600,150825726,0.0036962563171982765
150.82624700,150826247,0.0015678172931075096
150.82677400,150826774,0.0015678172931075096
150.82729800,150827298,0.0015678172931075096
150.82787500,150827875,0.0015678172931075096
150.82853100,150828531,0.0015678172931075096
150.82905200,150829052,0.0015678172931075096
150.82958200,150829582,0.0015678172931075096
150.83013500,150830135,0.0015678172931075096
150.83017200,150830172,0.002632036805152893
150.83063900,150830639,0.002632036805152893
150.83115800,150831158,0.0005035977810621262
150.83169600,150831696,0.0015678172931075096
150.83221500,150832215,0.0015678172931075096
150.83275500,150832755,-0.0005606217309832573
150.83328200,150833282,-0.0005606217309832573
150.83380500,150833805,0.002632036805152893
150.83450900,150834509,0.0015678172931075096
150.83504500,150835045,0.0005035977810621262
150.83559200,150835592,0.002632036805152893
150.83609300,150836093,0.002632036805152893
150.83661500,150836615,0.0005035977810621262
150.83714000,150837140,0.0015678172931075096
150.83768500,150837685,0.0015678172931075096
150.83822300,150838223,0.0015678172931075096
150.83824400,150838244,0.0005035977810621262
150.83871800,150838718,0.0005035977810621262
150.83925000,150839250,0.0015678172931075096
150.83977200,150839772,0.0015678172931075096
150.84030600,150840306,0.0005035977810621262
150.84091700,150840917,0.0005035977810621262
150.84151400,150841514,0.0015678172931075096
150.84204500,150842045,0.002632036805152893
150.84257200,150842572,0.0005035977810621262
150.84310100,150843101,0.0015678172931075096
150.84361700,150843617,0.002632036805152893
150.84414900,150844149,0.0015678172931075096
150.84466900,150844669,0.002632036805152893
150.84521600,150845216,0.0015678172931075096
150.84572500,150845725,-0.0005606217309832573
150.84624800,150846248,0.0015678172931075096
150.84677200,150846772,0.0015678172931075096
150.84732300,150847323,-0.0005606217309832573
150.84734400,150847344,0.002632036805152893
150.84782800,150847828,0.0015678172931075096
150.84852600,150848526,-0.0005606217309832573
150.84905400,150849054,0.002632036805152893
150.84957600,150849576,0.002632036805152893
150.85011400,150850114,0.0015678172931075096
150.85063700,150850637,0.002632036805152893
150.85115800,150851158,0.002632036805152893
150.85168500,150851685,0.0015678172931075096
150.85220700,150852207,0.0015678172931075096
150.85274900,150852749,0.0036962563171982765
150.85327700,150853277,0.002632036805152893
150.85380000,150853800,0.0005035977810621262
150.85435300,150854353,0.0005035977810621262
150.85506200,150855062,0.0005035977810621262
150.85508300,150855083,0.0005035977810621262
150.85556300,150855563,0.0005035977810621262
150.85608600,150856086,0.0005035977810621262
150.85660800,150856608,-0.0005606217309832573
150.85713200,150857132,-0.0005606217309832573
150.85768300,150857683,0.0015678172931075096
150.85819000,150858190,0.0005035977810621262
150.85871800,150858718,0.0015678172931075096
150.85923900,150859239,0.0015678172931075096
150.85976400,150859764,0.0005035977810621262
150.86029400,150860294,0.0015678172931075096
150.86082100,150860821,0.002632036805152893
150.86150600,150861506,0.0015678172931075096
150.86152700,150861527,0.0005035977810621262
150.86202200,150862022,0.0015678172931075096
150.86255900,150862559,0.0015678172931075096
150.86308300,150863083,0.0015678172931075096
150.86360400,150863604,-0.0005606217309832573
150.86413000,150864130,-0.0005606217309832573
150.86465500,150864655,0.0005035977810621262
150.86518600,150865186,0.0015678172931075096
150.86571500,150865715,0.0005035977810621262
150.86624000,150866240,0.0005035977810621262
150.86676000,150866760,0.0005035977810621262
150.86728900,150867289,0.0005035977810621262
150.86782100,150867821,0.0015678172931075096
150.86846000,150868460,0.002632036805152893
150.86900900,150869009,0.0005035977810621262
150.86953500,150869535,-0.0016248412430286407
150.87010100,150870101,0.0015678172931075096
150.87012200,150870122,0.0015678172931075096
150.87059400,150870594,-0.0005606217309832573
150.87111400,150871114,0.0036962563171982765
150.87164300,150871643,0.00476047582924366
150.87216500,150872165,0.0015678172931075096
150.87270200,150872702,0.0015678172931075096
150.87323000,150873230,0.0015678172931075096
150.87374900,150873749,0.0005035977810621262
150.87427300,150874273,0.0005035977810621262
150.87479700,150874797,0.0015678172931075096
150.87532900,150875329,0.0015678172931075096
150.87598700,150875987,0.0015678172931075096
150.87652800,150876528,0.0005035977810621262
150.87704400,150877044,-0.0005606217309832573
150.87758200,150877582,-0.0005606217309832573
150.87810800,150878108,0.0005035977810621262
150.87864400,150878644,0.0005035977810621262
150.87918100,150879181,0.0005035977810621262
150.87920200,150879202,0.002632036805152893
150.87968500,150879685,0.002632036805152893
150.88023600,150880236,0.0015678172931075096
150.88076200,150880762,0.002632036805152893
150.88128500,150881285,0.002632036805152893
150.88181000,150881810,-0.0005606217309832573
150.88251800,150882518,0.0005035977810621262
150.88304100,150883041,0.002632036805152893
150.88356400,150883564,0.0005035977810621262
150.88409600,150884096,-0.0005606217309832573
150.88462400,150884624,0.0005035977810621262
150.88516000,150885160,0.0015678172931075096
150.88568300,150885683,0.0015678172931075096
150.88620400,150886204,0.0015678172931075096
150.88673100,150886731,0.0015678172931075096
150.88728000,150887280,0.0015678172931075096
150.88730000,150887300,0.0015678172931075096
150.88778800,150887788,0.0015678172931075096
150.88831600,150888316,0.0015678172931075096
150.88897000,150888970,0.0005035977810621262
150.88951300,150889513,0.0015678172931075096
150.89005200,150890052,0.0015678172931075096
150.89057400,150890574,0.0015678172931075096
150.89109600,150891096,0.0005035977810621262
150.89162300,150891623,0.0005035977810621262
150.89214600,150892146,0.0005035977810621262
150.89267900,150892679,0.002632036805152893
150.89320300,150893203,0.0005035977810621262
150.89373000,150893730,0.0005035977810621262
150.89425200,150894252,0.0005035977810621262
150.89477400,150894774,-0.0005606217309832573
150.89530600,150895306,0.0015678172931075096
150.89591600,150895916,0.0015678172931075096
150.89593600,150895936,0.0015678172931075096
150.89650800,150896508,0.0015678172931075096
150.89703500,150897035,0.0005035977810621262
150.89756800,150897568,0.0005035977810621262
150.89809000,150898090,0.0015678172931075096
150.89861000,150898610,0.0015678172931075096
150.89913600,150899136,0.0005035977810621262
150.89966000,150899660,0.0005035977810621262
150.90019100,150900191,0.0015678172931075096
150.90071900,150900719,0.0015678172931075096
150.90124800,150901248,0.0015678172931075096
150.90176800,150901768,0.0015678172931075096
150.90229800,150902298,0.0015678172931075096
150.90283100,150902831,0.0005035977810621262
150.90348900,150903489,0.0015678172931075096
150.90351400,150903514,0.002632036805152893
150.90401200,150904012,0.0015678172931075096
150.90453600,150904536,-0.0005606217309832573
150.90507100,150905071,0.0015678172931075096
150.90560300,150905603,0.0036962563171982765
150.90611900,150906119,0.0015678172931075096
150.90664600,150906646,0.0015678172931075096
150.90717000,150907170,0.0036962563171982765
150.90771700,150907717,0.0015678172931075096
150.90822500,150908225,0.0005035977810621262
150.90874800,150908748,0.0015678172931075096
150.90927300,150909273,0.0015678172931075096
150.90979400,150909794,0.0005035977810621262
150.91032600,150910326,0.0005035977810621262
150.91098600,150910986,-0.0005606217309832573
150.91150700,150911507,0.0005035977810621262
150.91206700,150912067,0.0005035977810621262
150.91208700,150912087,-0.0005606217309832573
150.91257800,150912578,0.0005035977810621262
150.91310100,150913101,0.0015678172931075096
150.91363200,150913632,0.0015678172931075096
150.91415000,150914150,0.002632036805152893
150.91467500,150914675,0.0036962563171982765
150.91521600,150915216,0.0036962563171982765
150.91574200,150915742,0.0005035977810621262
150.91626100,150916261,0.0015678172931075096
150.91678800,150916788,0.00476047582924366
150.91731100,150917311,0.0015678172931075096
150.91796800,150917968,-0.0005606217309832573
150.91851400,150918514,0.0015678172931075096
150.91904300,150919043,-0.0005606217309832573
150.91956200,150919562,0.0005035977810621262
150.92010200,150920102,0.0015678172931075096
150.92065200,150920652,0.002632036805152893
150.92067300,150920673,0.002632036805152893
150.92114400,150921144,0.0015678172931075096
150.92166900,150921669,0.0015678172931075096
150.92219400,150922194,0.0015678172931075096
150.92273300,150922733,0.002632036805152893
150.92325800,150923258,0.002632036805152893
150.92378100,150923781,0.002632036805152893
150.92431000,150924310,0.0015678172931075096
150.92502800,150925028,0.0015678172931075096
150.92559000,150925590,0.0015678172931075096
150.92608400,150926084,0.0015678172931075096
150.92659800,150926598,0.0005035977810621262
150.92712600,150927126,0.0015678172931075096
150.92766900,150927669,0.0015678172931075096
150.92818400,150928184,0.0015678172931075096
150.92870400,150928704,0.0015678172931075096
150.92926100,150929261,0.0015678172931075096
150.92928200,150929282,0.0036962563171982765
150.92975600,150929756,0.0015678172931075096
150.93030200,150930302,0.0015678172931075096
150.93082300,150930823,0.0015678172931075096
150.93148300,150931483,0.0005035977810621262
150.93201100,150932011,0.0005035977810621262
150.93256200,150932562,0.0015678172931075096
150.93306900,150933069,0.0005035977810621262
150.93359000,150933590,0.0005035977810621262
150.93412100,150934121,0.0015678172931075096
150.93463800,150934638,0.0015678172931075096
150.93518100,150935181,0.002632036805152893
150.93570500,150935705,0.002632036805152893
150.93622800,150936228,0.002632036805152893
150.93675300,150936753,0.002632036805152893
150.93727700,150937277,0.002632036805152893
150.93780800,150937808,0.0015678172931075096
150.93852000,150938520,0.0015678172931075096
150.93854100,150938541,0.0005035977810621262
150.93903700,150939037,0.0005035977810621262
150.93956500,150939565,0.0005035977810621262
150.94009800,150940098,-0.0005606217309832573
150.94062300,150940623,0.0005035977810621262
150.94114500,150941145,0.002632036805152893
150.94167200,150941672,0.0015678172931075096
150.94219700,150942197,0.0005035977810621262
150.94274300,150942743,0.0015678172931075096
150.94326900,150943269,0.0005035977810621262
150.94378900,150943789,0.0015678172931075096
150.94431500,150944315,0.0015678172931075096
150.94505000,150945050,0.0005035977810621262
150.94507100,150945071,0.0015678172931075096
150.94554700,150945547,0.0015678172931075096
150.94606500,150946065,0.0005035977810621262
150.94659900,150946599,0.0005035977810621262
150.94711900,150947119,0.0015678172931075096
150.94767000,150947670,0.0005035977810621262
150.94817800,150948178,0.0005035977810621262
150.94870400,150948704,0.0015678172931075096
150.94922500,150949225,0.0015678172931075096
150.94975400,150949754,0.0005035977810621262
150.95028000,150950280,0.0015678172931075096
150.95080600,150950806,0.002632036805152893
150.95151200,150951512,0.0036962563171982765
150.95153200,150951532,0.0015678172931075096
150.95201000,150952010,0.0015678172931075096
150.95254900,150952549,0.002632036805152893
150.95307900,150953079,0.0005035977810621262
150.95359600,150953596,0.0015678172931075096
150.95413000,150954130,0.002632036805152893
150.95465300,150954653,-0.0016248412430286407
150.95519500,150955195,-0.0005606217309832573
150.95572000,150955720,0.0015678172931075096
150.95623800,150956238,0.002632036805152893
150.95676400,150956764,0.002632036805152893
150.95728700,150957287,0.002632036805152893
150.95781700,150957817,0.002632036805152893
150.95851600,150958516,0.002632036805152893
150.95904100,150959041,0.002632036805152893
150.95959100,150959591,0.0005035977810621262
150.95961200,150959612,0.0005035977810621262
150.96010000,150960100,0.0005035977810621262
150.96062100,150960621,0.0005035977810621262
150.96114600,150961146,0.0015678172931075096
150.96167100,150961671,0.002632036805152893
150.96219200,150962192,0.002632036805152893
150.96274200,150962742,-0.0005606217309832573
150.96326800,150963268,-0.0005606217309832573
150.96379400,150963794,0.0005035977810621262
150.96431600,150964316,0.0005035977810621262
150.96502100,150965021,0.0036962563171982765
150.96555000,150965550,0.002632036805152893
150.96606800,150966068,-0.0005606217309832573
150.96660400,150966604,-0.0005606217309832573
150.96712800,150967128,0.0005035977810621262
150.96768700,150967687,0.0015678172931075096
150.96770800,150967708,0.0015678172931075096
150.96818400,150968184,0.0015678172931075096
150.96870600,150968706,0.0015678172931075096
150.96923000,150969230,0.0015678172931075096
150.96976100,150969761,0.0015678172931075096
150.97028800,150970288,0.0015678172931075096
150.97081700,150970817,0.0015678172931075096
150.97147900,150971479,0.0005035977810621262
150.97202900,150972029,0.0005035977810621262
150.97256500,150972565,0.0005035977810621262
150.97308700,150973087,0.0015678172931075096
150.97361100,150973611,0.0015678172931075096
150.97413700,150974137,0.0005035977810621262
150.97466000,150974660,0.0015678172931075096
150.97519300,150975193,0.002632036805152893
150.97572400,150975724,0.0005035977810621262
150.97627200,150976272,0.0005035977810621262
150.97629500,150976295,0.002632036805152893
150.97677100,150976771,0.0005035977810621262
150.97729300,150977293,0.0005035977810621262
150.97782700,150977827,0.0015678172931075096
150.97851200,150978512,0.0015678172931075096
150.97903400,150979034,0.0015678172931075096
150.97956000,150979560,0.0015678172931075096
150.98009300,150980093,0.002632036805152893
150.98061900,150980619,0.0015678172931075096
150.98114000,150981140,0.0005035977810621262
150.98166600,150981666,0.0015678172931075096
150.98219000,150982190,0.0015678172931075096
150.98273400,150982734,0.002632036805152893
150.98325900,150983259,0.0015678172931075096
150.98378000,150983780,0.0005035977810621262
150.98430600,150984306,0.0005035977810621262
150.98504900,150985049,0.0005035977810621262
150.98507100,150985071,0.0005035977810621262
150.98556600,150985566,0.0015678172931075096
150.98606600,150986066,0.0005035977810621262
150.98659000,150986590,-0.0005606217309832573
150.98711100,150987111,0.0005035977810621262
150.98766200,150987662,-0.0005606217309832573
150.98817700,150988177,0.0005035977810621262
150.98870100,150988701,0.0015678172931075096
150.98922000,150989220,0.002632036805152893
150.98974700,150989747,0.0015678172931075096
150.99027700,150990277,0.0005035977810621262
150.99080600,150990806,0.0015678172931075096
150.99140100,150991401,0.0015678172931075096
150.99204300,150992043,0.0015678172931075096
150.99206400,150992064,0.0005035977810621262
150.99255200,150992552,0.0005035977810621262
150.99308800,150993088,0.0015678172931075096
150.99359400,150993594,0.0015678172931075096
150.99413000,150994130,0.0015678172931075096
150.99465000,150994650,0.0015678172931075096
150.99518300,150995183,0.0015678172931075096
150.99570800,150995708,0.002632036805152893
150.99623100,150996231,0.0015678172931075096
150.99675700,150996757,0.0015678172931075096
150.99727900,150997279,0.002632036805152893
150.99782000,150997820,0.0005035977810621262
150.99853900,150998539,-0.0005606217309832573
150.99856200,150998562,0.0015678172931075096
150.99903700,150999037,0.0005035977810621262
150.99956100,150999561,0.0015678172931075096
151.00009800,151000098,0.0015678172931075096
151.00061500,151000615,0.0015678172931075096
151.00114200,151001142,0.0015678172931075096
151.00167000,151001670,0.002632036805152893
151.00219200,151002192,0.002632036805152893
151.00274400,151002744,0.0015678172931075096
151.00326800,151003268,0.0015678172931075096
151.00379300,151003793,0.0015678172931075096
151.00431900,151004319,0.0015678172931075096
151.00503200,151005032,0.002632036805152893
151.00555300,151005553,0.0015678172931075096
151.00607600,151006076,0.0015678172931075096
151.00663400,151006634,0.0005035977810621262
151.00665400,151006654,0.0015678172931075096
151.00713100,151007131,0.0015678172931075096
151.00767500,151007675,0.002632036805152893
151.00818800,151008188,0.0015678172931075096
151.00870900,151008709,0.0015678172931075096
151.00923600,151009236,0.002632036805152893
151.00975600,151009756,0.0015678172931075096
151.01029000,151010290,0.0015678172931075096
151.01081200,151010812,0.002632036805152893
151.01150900,151011509,0.0005035977810621262
151.01203500,151012035,0.0015678172931075096
151.01256900,151012569,0.002632036805152893
151.01309300,151013093,0.002632036805152893
151.01361700,151013617,0.0015678172931075096
151.01414200,151014142,0.0005035977810621262
151.01466700,151014667,-0.0005606217309832573
151.01524400,151015244,0.0005035977810621262
151.01526600,151015266,0.0015678172931075096
151.01572700,151015727,0.0015678172931075096
151.01625000,151016250,0.002632036805152893
151.01677800,151016778,0.0036962563171982765
151.01729900,151017299,0.002632036805152893
151.01788700,151017887,0.002632036805152893
151.01851700,151018517,0.0005035977810621262
151.01904400,151019044,0.0005035977810621262
151.01956400,151019564,0.0005035977810621262
151.02010600,151020106,0.0015678172931075096
151.02062600,151020626,-0.0005606217309832573
151.02114800,151021148,-0.0005606217309832573
151.02167400,151021674,0.0005035977810621262
151.02219700,151022197,-0.0005606217309832573
151.02274000,151022740,-0.0005606217309832573
151.02326500,151023265,0.002632036805152893
151.02381500,151023815,0.002632036805152893
151.02383500,151023835,0.0015678172931075096
151.02431300,151024313,0.0015678172931075096
151.02502700,151025027,0.0015678172931075096
151.02555200,151025552,0.0015678172931075096
151.02607900,151026079,0.0015678172931075096
151.02660100,151026601,0.0005035977810621262
151.02714300,151027143,0.0005035977810621262
151.02767800,151027678,0.002632036805152893
151.02819500,151028195,0.002632036805152893
151.02871600,151028716,0.0015678172931075096
151.02924100,151029241,0.0015678172931075096
151.02976300,151029763,0.0005035977810621262
151.03029400,151030294,0.0005035977810621262
151.03081800,151030818,-0.0005606217309832573
151.03150500,151031505,-0.0005606217309832573
151.03152800,151031528,0.0015678172931075096
151.03201300,151032013,0.0005035977810621262
151.03256300,151032563,-0.0005606217309832573
151.03307200,151033072,0.002632036805152893
151.03359300,151033593,0.0015678172931075096
151.03412700,151034127,0.0005035977810621262
151.03465000,151034650,0.002632036805152893
151.03518500,151035185,0.0015678172931075096
151.03570700,151035707,0.0005035977810621262
151.03622800,151036228,-0.0005606217309832573
151.03675300,151036753,-0.0005606217309832573
151.03727700,151037277,0.0015678172931075096
151.03781300,151037813,0.0015678172931075096
151.03856200,151038562,-0.0005606217309832573
151.03858300,151038583,0.0005035977810621262
151.03905600,151039056,0.0015678172931075096
151.03957900,151039579,0.0015678172931075096
151.04011200,151040112,0.0005035977810621262
151.04063900,151040639,0.0015678172931075096
151.04115900,151041159,0.002632036805152893
151.04168800,151041688,0.002632036805152893
151.04220600,151042206,0.0015678172931075096
151.04275000,151042750,0.0005035977810621262
151.04328000,151043280,0.0015678172931075096
151.04379300,151043793,0.002632036805152893
151.04432100,151044321,0.0015678172931075096
151.04505600,151045056,0.0005035977810621262
151.04507700,151045077,0.0005035977810621262
151.04554900,151045549,-0.0016248412430286407
151.04607200,151046072,-0.0005606217309832573
151.04660300,151046603,0.0005035977810621262
151.04712500,151047125,0.0005035977810621262
151.04767500,151047675,0.0005035977810621262
151.04818800,151048188,0.0005035977810621262
151.04870800,151048708,0.0015678172931075096
151.04923300,151049233,0.0015678172931075096
151.04975500,151049755,0.0015678172931075096
151.05029200,151050292,0.0015678172931075096
151.05082300,151050823,0.0015678172931075096
151.05148700,151051487,0.0005035977810621262
151.05201500,151052015,0.0005035977810621262
151.05254400,151052544,0.0015678172931075096
151.05307200,151053072,0.0005035977810621262
151.05359400,151053594,0.0015678172931075096
151.05412200,151054122,0.002632036805152893
151.05466800,151054668,0.0015678172931075096
151.05469000,151054690,0.0005035977810621262
151.05519100,151055191,0.002632036805152893
151.05570200,151055702,0.0005035977810621262
151.05622500,151056225,0.0005035977810621262
151.05675400,151056754,0.002632036805152893
151.05727400,151057274,0.0005035977810621262
151.05780500,151057805,0.0005035977810621262
151.05840900,151058409,0.0015678172931075096
151.05902600,151059026,0.0005035977810621262
151.05954500,151059545,0.0015678172931075096
151.06008400,151060084,0.0005035977810621262
151.06064100,151060641,0.0015678172931075096
151.06115900,151061159,0.002632036805152893
151.06168900,151061689,0.0015678172931075096
151.06223900,151062239,0.0015678172931075096
151.06225900,151062259,0.0015678172931075096
151.06275800,151062758,0.0015678172931075096
151.06328400,151063284,0.0015678172931075096
151.06380900,151063809,0.0005035977810621262
151.06448100,151064481,0.0005035977810621262
151.06502100,151065021,0.0005035977810621262
151.06555200,151065552,0.0005035977810621262
151.06606800,151066068,0.002632036805152893
151.06660400,151066604,0.0005035977810621262
151.06712300,151067123,-0.0005606217309832573
151.06766900,151067669,0.002632036805152893
151.06818100,151068181,0.0005035977810621262
151.06870300,151068703,0.0005035977810621262
151.06922800,151069228,0.0036962563171982765
151.06974900,151069749,0.0015678172931075096
151.07028200,151070282,0.0015678172931075096
151.07080500,151070805,0.0015678172931075096
151.07153400,151071534,0.002632036805152893
151.07155900,151071559,0.0015678172931075096
151.07203000,151072030,0.0015678172931075096
151.07256600,151072566,0.0015678172931075096
151.07309800,151073098,0.0015678172931075096
151.07361100,151073611,0.0015678172931075096
151.07414600,151074146,0.0015678172931075096
151.07467300,151074673,0.002632036805152893
151.07521700,151075217,0.0015678172931075096
151.07574400,151075744,0.0015678172931075096
151.07626600,151076266,0.0015678172931075096
151.07678600,151076786,0.0015678172931075096
151.07731400,151077314,0.0005035977810621262
151.07804800,151078048,0.0005035977810621262
151.07807200,151078072,0.0005035977810621262
151.07854700,151078547,0.0015678172931075096
151.07908100,151079081,-0.0005606217309832573
151.07959700,151079597,0.0005035977810621262
151.08014200,151080142,0.0005035977810621262
151.08066800,151080668,-0.0005606217309832573
151.08119000,151081190,0.0005035977810621262
151.08172100,151081721,0.0015678172931075096
151.08224200,151082242,0.0015678172931075096
151.08278000,151082780,0.0005035977810621262
151.08330700,151083307,0.0005035977810621262
151.08401100,151084011,0.0015678172931075096
151.08403300,151084033,0.0015678172931075096
151.08450900,151084509,0.0005035977810621262
151.08504200,151085042,0.0005035977810621262
151.08557000,151085570,0.0015678172931075096
151.08609600,151086096,0.002632036805152893
151.08662200,151086622,0.0015678172931075096
151.08715000,151087150,0.0005035977810621262
151.08768300,151087683,0.0005035977810621262
151.08820900,151088209,0.0015678172931075096
151.08873300,151088733,0.0015678172931075096
151.08925500,151089255,0.002632036805152893
151.08978800,151089788,0.0015678172931075096
151.09031900,151090319,0.0015678172931075096
151.09099600,151090996,0.0005035977810621262
151.09152000,151091520,0.0005035977810621262
151.09204200,151092042,0.0005035977810621262
151.09260500,151092605,-0.0005606217309832573
151.09262900,151092629,0.0015678172931075096
151.09310400,151093104,0.002632036805152893
151.09362100,151093621,0.0015678172931075096
151.09415300,151094153,0.0015678172931075096
151.09467200,151094672,0.0015678172931075096
151.09521400,151095214,0.0005035977810621262
151.09574100,151095741,0.0005035977810621262
151.09626000,151096260,0.0015678172931075096
151.09678500,151096785,0.0005035977810621262
151.09731100,151097311,-0.0005606217309832573
151.09797500,151097975,0.0015678172931075096
151.09851700,151098517,0.002632036805152893
151.09904400,151099044,0.002632036805152893
151.09956400,151099564,0.0015678172931075096
151.10010500,151100105,0.0005035977810621262
151.10062700,151100627,0.0005035977810621262
151.10118100,151101181,0.0005035977810621262
151.10120200,151101202,-0.0016248412430286407
151.10168300,151101683,0.0015678172931075096
151.10220700,151102207,0.0036962563171982765
151.10274900,151102749,0.0015678172931075096
151.10326700,151103267,0.0005035977810621262
151.10378800,151103788,0.0015678172931075096
151.10431300,151104313,0.0015678172931075096
151.10502400,151105024,0.0005035977810621262
151.10554600,151105546,0.0005035977810621262
151.10606800,151106068,0.0005035977810621262
151.10659300,151106593,0.0015678172931075096
151.10711600,151107116,0.0005035977810621262
151.10766600,151107666,0.002632036805152893
151.10818000,151108180,0.0036962563171982765
151.10870000,151108700,0.002632036805152893
151.10922800,151109228,0.0015678172931075096
151.10977500,151109775,0.0015678172931075096
151.10979600,151109796,0.0005035977810621262
151.11028200,151110282,0.0005035977810621262
151.11080900,151110809,0.0005035977810621262
151.11148600,151111486,0.0015678172931075096
151.11201700,151112017,0.0015678172931075096
151.11254900,151112549,0.002632036805152893
151.11307600,151113076,0.0005035977810621262
151.11359200,151113592,0.0005035977810621262
151.11413200,151114132,0.0015678172931075096
151.11465000,151114650,0.0005035977810621262
151.11518700,151115187,0.0015678172931075096
151.11571100,151115711,0.002632036805152893
151.11623700,151116237,0.0005035977810621262
151.11676600,151116766,0.0015678172931075096
151.11728600,151117286,0.0005035977810621262
151.11781900,151117819,0.0005035977810621262
151.11848400,151118484,0.0005035977810621262
151.11850600,151118506,0.0015678172931075096
151.11902500,151119025,0.0015678172931075096
151.11954800,151119548,0.0005035977810621262
151.12009000,151120090,0.0005035977810621262
151.12061100,151120611,0.0005035977810621262
151.12113100,151121131,0.0015678172931075096
151.12165600,151121656,0.0015678172931075096
151.12218600,151122186,0.0005035977810621262
151.12272400,151122724,-0.0005606217309832573
151.12325500,151123255,-0.0016248412430286407
151.12377700,151123777,0.0005035977810621262
151.12430100,151124301,0.0015678172931075096
151.12494500,151124945,0.0005035977810621262
151.12556000,151125560,0.0015678172931075096
151.12558100,151125581,0.002632036805152893
151.12605500,151126055,-0.0005606217309832573
151.12657900,151126579,0.0005035977810621262
151.12710200,151127102,0.0015678172931075096
151.12765700,151127657,0.0005035977810621262
151.12816700,151128167,0.0005035977810621262
151.12869000,151128690,0.0015678172931075096
151.12921400,151129214,0.0015678172931075096
151.12973400,151129734,0.0015678172931075096
151.13026900,151130269,0.0015678172931075096
151.13079600,151130796,0.0015678172931075096
151.13132000,151131320,0.0015678172931075096
151.13196500,151131965,0.0015678172931075096
151.13256900,151132569,0.0015678172931075096
151.13259500,151132595,0.0015678172931075096
151.13304200,151133042,0.0005035977810621262
151.13356500,151133565,0.0005035977810621262
151.13409400,151134094,0.0015678172931075096
151.13461200,151134612,0.0015678172931075096
151.13516700,151135167,0.0015678172931075096
151.13567600,151135676,0.0005035977810621262
151.13620500,151136205,0.0015678172931075096
151.13672500,151136725,0.002632036805152893
151.13725300,151137253,0.0015678172931075096
151.13778100,151137781,0.002632036805152893
151.13830800,151138308,0.0015678172931075096
151.13898000,151138980,-0.0005606217309832573
151.13951600,151139516,0.0005035977810621262
151.14005100,151140051,0.0005035977810621262
151.14057600,151140576,0.0015678172931075096
151.14112400,151141124,0.002632036805152893
151.14114500,151141145,0.002632036805152893
151.14162200,151141622,0.002632036805152893
151.14214700,151142147,0.0015678172931075096
151.14268500,151142685,0.0005035977810621262
151.14320900,151143209,0.0005035977810621262
151.14372800,151143728,0.0005035977810621262
151.14425400,151144254,0.0005035977810621262
151.14478200,151144782,0.0005035977810621262
151.14532100,151145321,0.0005035977810621262
151.14596100,151145961,0.0005035977810621262
151.14650900,151146509,0.002632036805152893
151.14703200,151147032,0.0005035977810621262
151.14756600,151147566,0.0005035977810621262
151.14809300,151148093,0.002632036805152893
151.14861700,151148617,0.002632036805152893
151.14914000,151149140,0.002632036805152893
151.14966300,151149663,0.0015678172931075096
151.15021100,151150211,0.0005035977810621262
151.15074600,151150746,0.0015678172931075096
151.15077000,151150770,0.002632036805152893
151.15124300,151151243,0.002632036805152893
151.15176800,151151768,0.0015678172931075096
151.15229300,151152293,0.0015678172931075096
151.15282600,151152826,0.0015678172931075096
151.15348700,151153487,0.0015678172931075096
151.15401100,151154011,0.0015678172931075096
151.15453500,151154535,0.0015678172931075096
151.15507200,151155072,0.0015678172931075096
151.15559200,151155592,0.0015678172931075096
151.15611300,151156113,0.0005035977810621262
151.15663800,151156638,0.0005035977810621262
151.15716300,151157163,0.002632036805152893
151.15769800,151157698,0.00476047582924366
151.15821900,151158219,0.0015678172931075096
151.15874300,151158743,0.0015678172931075096
151.15926700,151159267,0.002632036805152893
151.15978900,151159789,0.0015678172931075096
151.16035000,151160350,0.0005035977810621262
151.16037000,151160370,0.0015678172931075096
151.16096800,151160968,0.0015678172931075096
151.16152600,151161526,0.0015678172931075096
151.16204500,151162045,0.002632036805152893
151.16257600,151162576,0.0015678172931075096
151.16310800,151163108,0.0005035977810621262
151.16362800,151163628,0.0015678172931075096
151.16415800,151164158,0.0015678172931075096
151.16468400,151164684,0.0015678172931075096
151.16523500,151165235,0.0015678172931075096
151.16575700,151165757,0.0005035977810621262
151.16627900,151166279,0.0005035977810621262
151.16680500,151166805,0.0015678172931075096
151.16755000,151167550,0.0015678172931075096
151.16757100,151167571,0.0015678172931075096
151.16804500,151168045,0.0015678172931075096
151.16856400,151168564,0.0005035977810621262
151.16909300,151169093,0.0015678172931075096
151.16961500,151169615,0.002632036805152893
151.17016200,151170162,0.002632036805152893
151.17067700,151170677,0.0015678172931075096
151.17119800,151171198,0.0005035977810621262
151.17172500,151171725,0.0015678172931075096
151.17225000,151172250,0.0005035977810621262
151.17278000,151172780,0.0005035977810621262
151.17330800,151173308,0.002632036805152893
151.17403900,151174039,0.0015678172931075096
151.17406000,151174060,0.0015678172931075096
151.17453700,151174537,0.0015678172931075096
151.17507000,151175070,0.0005035977810621262
151.17559700,151175597,0.0005035977810621262
151.17611500,151176115,0.0015678172931075096
151.17664500,151176645,0.0015678172931075096
151.17716900,151177169,0.0015678172931075096
151.17771800,151177718,0.002632036805152893
151.17824000,151178240,0.0015678172931075096
151.17876100,151178761,0.0015678172931075096
151.17928700,151179287,0.0015678172931075096
151.17980800,151179808,0.0015678172931075096
151.18049300,151180493,0.002632036805152893
151.18101900,151181019,0.0005035977810621262
151.18154600,151181546,0.002632036805152893
151.18208900,151182089,0.002632036805152893
151.18211200,151182112,0.0005035977810621262
151.18260000,151182600,0.0015678172931075096
151.18312400,151183124,0.0005035977810621262
151.18364200,151183642,0.0005035977810621262
151.18416900,151184169,0.002632036805152893
151.18469100,151184691,0.0005035977810621262
151.18523200,151185232,0.0005035977810621262
151.18576000,151185760,0.0005035977810621262
151.18628100,151186281,0.0015678172931075096
151.18680700,151186807,0.0015678172931075096
151.18752200,151187522,0.0036962563171982765
151.18807800,151188078,0.002632036805152893
151.18859800,151188598,0.0015678172931075096
151.18913700,151189137,0.0015678172931075096
151.18968200,151189682,0.002632036805152893
151.18970300,151189703,0.002632036805152893
151.19019900,151190199,0.0005035977810621262
151.19072300,151190723,0.0005035977810621262
151.19124200,151191242,0.002632036805152893
151.19177900,151191779,0.002632036805152893
151.19229100,151192291,0.0036962563171982765
151.19282800,151192828,0.0005035977810621262
151.19351400,151193514,-0.0005606217309832573
151.19403700,151194037,0.0005035977810621262
151.19455800,151194558,0.0015678172931075096
151.19509500,151195095,0.002632036805152893
151.19565400,151195654,0.002632036805152893
151.19617700,151196177,0.0005035977810621262
151.19670500,151196705,0.0015678172931075096
151.19725300,151197253,0.002632036805152893
151.19727400,151197274,0.0015678172931075096
151.19775700,151197757,0.0015678172931075096
151.19828700,151198287,0.0015678172931075096
151.19881300,151198813,0.0015678172931075096
151.19948100,151199481,0.0015678172931075096
151.20003600,151200036,0.0015678172931075096
151.20055900,151200559,0.0005035977810621262
151.20108600,151201086,0.0005035977810621262
151.20160700,151201607,0.0005035977810621262
151.20213300,151202133,0.0005035977810621262
151.20267500,151202675,0.0015678172931075096
151.20320300,151203203,0.0005035977810621262
151.20371900,151203719,0.0005035977810621262
151.20425400,151204254,-0.0005606217309832573
151.20477800,151204778,0.0036962563171982765
151.20531500,151205315,0.0036962563171982765
151.20603800,151206038,0.0005035977810621262
151.20605900,151206059,0.0015678172931075096
151.20653500,151206535,0.0005035977810621262
151.20706100,151207061,-0.0005606217309832573
151.20759700,151207597,0.0015678172931075096
151.20811800,151208118,0.002632036805152893
151.20863600,151208636,0.002632036805152893
151.20916400,151209164,0.0015678172931075096
151.20968500,151209685,0.0015678172931075096
151.21022500,151210225,0.002632036805152893
151.21075900,151210759,0.0015678172931075096
151.21128000,151211280,0.002632036805152893
151.21180800,151211808,0.0015678172931075096
151.21254600,151212546,0.0005035977810621262
151.21256800,151212568,0.0005035977810621262
151.21304900,151213049,-0.0005606217309832573
151.21357000,151213570,0.0005035977810621262
151.21409000,151214090,0.0005035977810621262
151.21461600,151214616,0.0015678172931075096
151.21516200,151215162,0.0005035977810621262
151.21567800,151215678,0.0005035977810621262
151.21619700,151216197,0.0015678172931075096
151.21672200,151216722,0.0015678172931075096
151.21724500,151217245,0.0015678172931075096
151.21777600,151217776,0.002632036805152893
151.21830000,151218300,0.0005035977810621262
151.21882000,151218820,0.0005035977810621262
151.21953700,151219537,0.0015678172931075096
151.21955900,151219559,0.0015678172931075096
151.22004200,151220042,0.0015678172931075096
151.22056700,151220567,0.0005035977810621262
151.22108900,151221089,0.0005035977810621262
151.22161800,151221618,0.0015678172931075096
151.22214500,151222145,0.0005035977810621262
151.22267800,151222678,-0.0005606217309832573
151.22320600,151223206,0.0015678172931075096
151.22373600,151223736,0.0015678172931075096
151.22425600,151224256,0.0015678172931075096
151.22478400,151224784,0.0015678172931075096
151.22531200,151225312,0.0015678172931075096
151.22601900,151226019,0.0015678172931075096
151.22653900,151226539,0.0005035977810621262
151.22708700,151227087,0.0005035977810621262
151.22710700,151227107,0.0005035977810621262
151.22759500,151227595,0.0015678172931075096
151.22812100,151228121,0.0015678172931075096
151.22864100,151228641,0.0005035977810621262
151.22916500,151229165,0.0015678172931075096
151.22969100,151229691,0.002632036805152893
151.23024100,151230241,0.0005035977810621262
151.23075900,151230759,0.0015678172931075096
151.23128100,151231281,0.0036962563171982765
151.23180400,151231804,0.002632036805152893
151.23252900,151232529,0.0015678172931075096
151.23304900,151233049,0.0015678172931075096
151.23356900,151233569,0.0005035977810621262
151.23409900,151234099,0.0005035977810621262
151.23461800,151234618,0.0005035977810621262
151.23517000,151235170,0.0005035977810621262
151.23571000,151235710,0.0015678172931075096
151.23573100,151235731,0.0015678172931075096
151.23621100,151236211,0.0015678172931075096
151.23673000,151236730,0.0015678172931075096
151.23725400,151237254,0.0015678172931075096
151.23778400,151237784,0.0005035977810621262
151.23831200,151238312,0.0005035977810621262
151.23900700,151239007,0.0005035977810621262
151.23953400,151239534,-0.0005606217309832573
151.24007300,151240073,0.0015678172931075096
151.24062900,151240629,0.0005035977810621262
151.24115300,151241153,0.0005035977810621262
151.24167700,151241677,0.0005035977810621262
151.24220000,151242200,-0.0016248412430286407
151.24277400,151242774,0.0015678172931075096
151.24279500,151242795,0.002632036805152893
151.24327000,151243270,0.0005035977810621262
151.24379300,151243793,0.0005035977810621262
151.24432100,151244321,0.0005035977810621262
151.24501500,151245015,0.0005035977810621262
151.24554000,151245540,0.0005035977810621262
151.24606200,151246062,0.0015678172931075096
151.24660000,151246600,0.0015678172931075096
151.24711900,151247119,0.0015678172931075096
151.24767200,151247672,0.0015678172931075096
151.24818600,151248186,0.002632036805152893
151.24871200,151248712,0.002632036805152893
151.24923300,151249233,0.0015678172931075096
151.24975900,151249759,-0.0005606217309832573
151.25029000,151250290,-0.0005606217309832573
151.25081400,151250814,0.0036962563171982765
151.25153000,151251530,0.002632036805152893
151.25155300,151251553,0.0015678172931075096
151.25202700,151252027,0.002632036805152893
151.25256300,151252563,0.0015678172931075096
151.25309300,151253093,0.0005035977810621262
151.25361100,151253611,0.0036962563171982765
151.25414000,151254140,0.002632036805152893
151.25466400,151254664,0.0015678172931075096
151.25520900,151255209,0.0015678172931075096
151.25572600,151255726,0.0005035977810621262
151.25624500,151256245,0.0005035977810621262
151.25677100,151256771,0.0015678172931075096
151.25729500,151257295,0.0005035977810621262
151.25782600,151257826,0.0015678172931075096
151.25854000,151258540,0.0015678172931075096
151.25856000,151258560,0.0015678172931075096
151.25903400,151259034,0.0015678172931075096
151.25955800,151259558,0.0015678172931075096
151.26009600,151260096,0.0015678172931075096
151.26062300,151260623,0.0005035977810621262
151.26115200,151261152,0.0005035977810621262
151.26166900,151261669,0.0005035977810621262
151.26219600,151262196,-0.0005606217309832573
151.26274700,151262747,0.0005035977810621262
151.26327500,151263275,0.002632036805152893
151.26379600,151263796,0.0015678172931075096
151.26432100,151264321,0.002632036805152893
151.26504800,151265048,0.002632036805152893
151.26507200,151265072,-0.0016248412430286407
151.26553900,151265539,0.0005035977810621262
151.26606300,151266063,0.002632036805152893
151.26659700,151266597,0.0015678172931075096
151.26711300,151267113,0.0005035977810621262
151.26767200,151267672,0.0015678172931075096
151.26818200,151268182,0.0015678172931075096
151.26870300,151268703,0.0005035977810621262
151.26922900,151269229,0.0005035977810621262
151.26975600,151269756,0.0005035977810621262
151.27028700,151270287,0.0005035977810621262
151.27081000,151270810,0.0015678172931075096
151.27150800,151271508,0.0015678172931075096
151.27203300,151272033,0.002632036805152893
151.27257100,151272571,0.002632036805152893
151.27312000,151273120,0.002632036805152893
151.27314100,151273141,0.002632036805152893
151.27362000,151273620,0.0036962563171982765
151.27414100,151274141,0.0015678172931075096
