timestamp,TimeUS,ACCx
149.92416800,149924168,-0.10534487664699554
149.92469000,149924690,-0.10055647045373917
149.92523300,149925233,-0.10055647045373917
149.92575700,149925757,-0.10534487664699554
149.92627900,149926279,-0.1149216815829277
149.92680500,149926805,-0.11971008777618408
149.92753100,149927531,-0.12449848651885986
149.92755300,149927553,-0.12449848651885986
149.92805800,149928058,-0.12449848651885986
149.92854800,149928548,-0.1149216815829277
149.92907300,149929073,-0.11013327538967133
149.92959600,149929596,-0.11013327538967133
149.93014300,149930143,-0.1149216815829277
149.93066600,149930666,-0.11971008777618408
149.93119500,149931195,-0.12449848651885986
149.93171800,149931718,-0.12449848651885986
149.93224100,149932241,-0.12449848651885986
149.93278300,149932783,-0.12449848651885986
149.93329700,149933297,-0.12449848651885986
149.93387500,149933875,-0.11971008777618408
149.93448700,149934487,-0.1149216815829277
149.93502800,149935028,-0.11013327538967133
149.93559000,149935590,-0.11013327538967133
149.93610200,149936102,-0.10534487664699554
149.93612300,149936123,-0.10055647045373917
149.93660400,149936604,-0.10055647045373917
149.93712700,149937127,-0.10534487664699554
149.93767200,149937672,-0.1149216815829277
149.93818600,149938186,-0.11971008777618408
149.93870600,149938706,-0.1149216815829277
149.93923100,149939231,-0.11013327538967133
149.93975500,149939755,-0.10534487664699554
149.94028300,149940283,-0.10055647045373917
149.94080900,149940809,-0.10055647045373917
149.94147700,149941477,-0.09576806426048279
149.94200100,149942001,-0.09576806426048279
149.94253800,149942538,-0.10055647045373917
149.94306400,149943064,-0.10055647045373917
149.94358800,149943588,-0.10534487664699554
149.94411100,149944111,-0.11013327538967133
149.94463700,149944637,-0.11013327538967133
149.94519600,149945196,-0.11013327538967133
149.94521800,149945218,-0.11971008777618408
149.94569700,149945697,-0.12449848651885986
149.94621800,149946218,-0.12928688526153564
149.94674400,149946744,-0.12928688526153564
149.94726600,149947266,-0.1149216815829277
149.94779600,149947796,-0.10534487664699554
149.94831900,149948319,-0.10055647045373917
149.94897300,149948973,-0.11013327538967133
149.94949600,149949496,-0.11971008777618408
149.95003200,149950032,-0.12449848651885986
149.95055500,149950555,-0.12449848651885986
149.95108000,149951080,-0.11971008777618408
149.95160200,149951602,-0.11971008777618408
149.95212600,149952126,-0.11971008777618408
149.95266700,149952667,-0.11013327538967133
149.95318400,149953184,-0.10055647045373917
149.95371000,149953710,-0.10055647045373917
149.95423200,149954232,-0.11013327538967133
149.95475500,149954755,-0.10534487664699554
149.95531300,149955313,-0.10055647045373917
149.95533700,149955337,-0.10055647045373917
149.95581200,149955812,-0.10534487664699554
149.95648300,149956483,-0.11013327538967133
149.95701200,149957012,-0.1149216815829277
149.95753800,149957538,-0.1149216815829277
149.95808300,149958083,-0.11013327538967133
149.95859100,149958591,-0.11013327538967133
149.95912100,149959121,-0.10534487664699554
149.95964500,149959645,-0.10534487664699554
149.96017900,149960179,-0.11013327538967133
149.96069900,149960699,-0.1149216815829277
149.96121900,149961219,-0.1149216815829277
149.96174500,149961745,-0.11971008777618408
149.96226900,149962269,-0.11971008777618408
149.96280100,149962801,-0.1149216815829277
149.96340200,149963402,-0.1149216815829277
149.96342300,149963423,-0.12449848651885986
149.96397800,149963978,-0.12928688526153564
149.96450200,149964502,-0.12449848651885986
149.96503500,149965035,-0.12449848651885986
149.96555800,149965558,-0.12449848651885986
149.96608000,149966080,-0.1149216815829277
149.96660300,149966603,-0.1149216815829277
149.96713100,149967131,-0.11971008777618408
149.96767000,149967670,-0.11971008777618408
149.96819100,149968191,-0.11971008777618408
149.96871600,149968716,-0.11013327538967133
149.96924000,149969240,-0.10534487664699554
149.96976500,149969765,-0.10534487664699554
149.97029400,149970294,-0.10534487664699554
149.97081800,149970818,-0.1149216815829277
149.97149900,149971499,-0.11971008777618408
149.97152300,149971523,-0.12449848651885986
149.97199700,149971997,-0.12449848651885986
149.97252900,149972529,-0.1149216815829277
149.97305600,149973056,-0.1149216815829277
149.97357900,149973579,-0.1149216815829277
149.97410600,149974106,-0.1149216815829277
149.97462600,149974626,-0.12449848651885986
149.97517100,149975171,-0.12449848651885986
149.97569400,149975694,-0.1149216815829277
149.97621500,149976215,-0.10534487664699554
149.97673900,149976739,-0.10534487664699554
149.97726300,149977263,-0.11013327538967133
149.97779200,149977792,-0.11971008777618408
149.97831600,149978316,-0.12928688526153564
149.97897200,149978972,-0.13407529890537262
149.97949600,149979496,-0.12928688526153564
149.98003100,149980031,-0.12928688526153564
149.98059500,149980595,-0.12449848651885986
149.98111000,149981110,-0.1149216815829277
149.98113200,149981132,-0.11013327538967133
149.98160600,149981606,-0.11013327538967133
149.98214200,149982142,-0.11013327538967133
149.98267000,149982670,-0.10534487664699554
149.98319900,149983199,-0.10055647045373917
149.98371800,149983718,-0.10055647045373917
149.98424500,149984245,-0.10055647045373917
149.98476700,149984767,-0.11013327538967133
149.98529800,149985298,-0.11971008777618408
149.98587700,149985877,-0.11971008777618408
149.98647300,149986473,-0.11971008777618408
149.98699700,149986997,-0.11971008777618408
149.98752900,149987529,-0.11013327538967133
149.98808700,149988087,-0.10055647045373917
149.98860700,149988607,-0.10055647045373917
149.98913900,149989139,-0.10534487664699554
149.98968700,149989687,-0.11013327538967133
149.98970800,149989708,-0.11971008777618408
149.99020600,149990206,-0.11971008777618408
149.99072200,149990722,-0.11971008777618408
149.99125400,149991254,-0.11971008777618408
149.99177200,149991772,-0.11971008777618408
149.99229600,149992296,-0.11013327538967133
149.99288000,149992880,-0.10055647045373917
149.99349100,149993491,-0.10055647045373917
149.99401200,149994012,-0.10055647045373917
149.99453700,149994537,-0.10055647045373917
149.99506900,149995069,-0.10534487664699554
149.99559700,149995597,-0.10055647045373917
149.99611700,149996117,-0.09576806426048279
149.99664200,149996642,-0.10055647045373917
149.99716700,149997167,-0.10534487664699554
149.99771000,149997710,-0.1149216815829277
149.99823200,149998232,-0.11971008777618408
149.99875300,149998753,-0.12449848651885986
149.99930500,149999305,-0.11971008777618408
149.99932700,149999327,-0.1149216815829277
149.99980200,149999802,-0.10534487664699554
150.00048700,150000487,-0.10534487664699554
150.00100900,150001009,-0.10534487664699554
150.00153700,150001537,-0.10055647045373917
150.00205300,150002053,-0.11013327538967133
150.00259300,150002593,-0.1149216815829277
150.00314800,150003148,-0.11971008777618408
150.00367400,150003674,-0.11971008777618408
150.00419500,150004195,-0.1149216815829277
150.00473000,150004730,-0.1149216815829277
150.00526500,150005265,-0.1149216815829277
150.00579400,150005794,-0.1149216815829277
150.00631500,150006315,-0.1149216815829277
150.00701000,150007010,-0.11971008777618408
150.00703200,150007032,-0.11971008777618408
150.00752000,150007520,-0.11971008777618408
150.00804400,150008044,-0.1149216815829277
150.00856500,150008565,-0.11013327538967133
150.00909000,150009090,-0.11013327538967133
150.00961300,150009613,-0.11013327538967133
150.01016000,150010160,-0.10534487664699554
150.01066900,150010669,-0.11013327538967133
150.01119000,150011190,-0.1149216815829277
150.01171600,150011716,-0.11971008777618408
150.01223900,150012239,-0.12449848651885986
150.01277000,150012770,-0.12449848651885986
150.01329600,150013296,-0.12928688526153564
150.01387200,150013872,-0.12449848651885986
150.01451600,150014516,-0.11971008777618408
150.01453800,150014538,-0.11971008777618408
150.01502500,150015025,-0.12449848651885986
150.01555700,150015557,-0.12449848651885986
150.01608700,150016087,-0.11971008777618408
150.01660600,150016606,-0.11013327538967133
150.01713000,150017130,-0.10055647045373917
150.01766700,150017667,-0.10055647045373917
150.01818800,150018188,-0.10534487664699554
150.01870800,150018708,-0.11013327538967133
150.01923700,150019237,-0.11013327538967133
150.01976000,150019760,-0.1149216815829277
150.02029000,150020290,-0.11971008777618408
150.02081700,150020817,-0.12449848651885986
150.02147100,150021471,-0.12449848651885986
150.02199900,150021999,-0.12449848651885986
150.02253500,150022535,-0.11971008777618408
150.02308200,150023082,-0.11971008777618408
150.02310400,150023104,-0.1149216815829277
150.02358000,150023580,-0.1149216815829277
150.02410700,150024107,-0.1149216815829277
150.02462900,150024629,-0.11013327538967133
150.02517400,150025174,-0.1149216815829277
150.02568800,150025688,-0.1149216815829277
150.02621200,150026212,-0.1149216815829277
150.02673400,150026734,-0.11013327538967133
150.02726000,150027260,-0.11013327538967133
150.02779200,150027792,-0.11013327538967133
150.02831900,150028319,-0.1149216815829277
150.02897500,150028975,-0.11013327538967133
150.02950000,150029500,-0.11013327538967133
150.03003000,150030030,-0.11013327538967133
150.03055500,150030555,-0.1149216815829277
150.03107700,150031077,-0.11971008777618408
150.03160500,150031605,-0.1149216815829277
150.03212600,150032126,-0.11013327538967133
150.03268200,150032682,-0.10055647045373917
150.03270700,150032707,-0.10055647045373917
150.03319000,150033190,-0.11013327538967133
150.03371200,150033712,-0.1149216815829277
150.03423800,150034238,-0.11971008777618408
150.03475800,150034758,-0.11971008777618408
150.03529200,150035292,-0.11971008777618408
150.03581800,150035818,-0.11971008777618408
150.03647200,150036472,-0.11971008777618408
150.03699900,150036999,-0.1149216815829277
150.03753400,150037534,-0.1149216815829277
150.03806300,150038063,-0.11013327538967133
150.03858300,150038583,-0.11013327538967133
150.03910800,150039108,-0.10534487664699554
150.03963200,150039632,-0.11013327538967133
150.04017600,150040176,-0.1149216815829277
150.04069300,150040693,-0.11971008777618408
150.04121900,150041219,-0.12449848651885986
150.04174000,150041740,-0.12928688526153564
150.04229200,150042292,-0.12928688526153564
150.04231400,150042314,-0.13407529890537262
150.04280000,150042800,-0.12928688526153564
150.04337500,150043375,-0.12449848651885986
150.04398200,150043982,-0.1149216815829277
150.04450800,150044508,-0.11013327538967133
150.04504000,150045040,-0.10534487664699554
150.04556300,150045563,-0.11013327538967133
150.04608600,150046086,-0.11013327538967133
150.04660900,150046609,-0.1149216815829277
150.04713300,150047133,-0.11971008777618408
150.04767400,150047674,-0.11971008777618408
150.04819000,150048190,-0.12928688526153564
150.04871400,150048714,-0.13407529890537262
150.04923800,150049238,-0.12449848651885986
150.04976400,150049764,-0.1149216815829277
150.05029500,150050295,-0.1149216815829277
150.05084600,150050846,-0.11013327538967133
150.05150800,150051508,-0.11013327538967133
150.05153300,150051533,-0.1149216815829277
150.05200300,150052003,-0.11013327538967133
150.05253600,150052536,-0.11013327538967133
150.05306300,150053063,-0.11013327538967133
150.05358800,150053588,-0.11013327538967133
150.05411100,150054111,-0.1149216815829277
150.05463600,150054636,-0.1149216815829277
150.05517000,150055170,-0.1149216815829277
150.05569400,150055694,-0.11971008777618408
150.05621900,150056219,-0.1149216815829277
150.05674300,150056743,-0.11013327538967133
150.05726500,150057265,-0.11013327538967133
150.05779600,150057796,-0.11013327538967133
150.05832300,150058323,-0.11013327538967133
150.05900300,150059003,-0.10534487664699554
150.05902700,150059027,-0.10534487664699554
150.05949800,150059498,-0.10534487664699554
150.06003100,150060031,-0.10534487664699554
150.06055500,150060555,-0.10534487664699554
150.06107800,150061078,-0.1149216815829277
150.06160200,150061602,-0.11971008777618408
150.06212600,150062126,-0.1149216815829277
150.06266900,150062669,-0.1149216815829277
150.06318300,150063183,-0.1149216815829277
150.06370500,150063705,-0.11971008777618408
150.06423100,150064231,-0.12449848651885986
150.06475300,150064753,-0.12928688526153564
150.06528600,150065286,-0.12928688526153564
150.06581300,150065813,-0.12449848651885986
150.06647800,150066478,-0.11971008777618408
150.06700400,150067004,-0.11971008777618408
150.06756400,150067564,-0.11971008777618408
150.06758600,150067586,-0.1149216815829277
150.06806400,150068064,-0.11013327538967133
150.06858400,150068584,-0.10055647045373917
150.06911100,150069111,-0.09576806426048279
150.06963200,150069632,-0.10534487664699554
150.07017600,150070176,-0.1149216815829277
150.07069000,150070690,-0.1149216815829277
150.07121200,150071212,-0.10534487664699554
150.07173500,150071735,-0.10534487664699554
150.07226000,150072260,-0.1149216815829277
150.07279100,150072791,-0.11971008777618408
150.07331900,150073319,-0.11971008777618408
150.07398200,150073982,-0.1149216815829277
150.07450700,150074507,-0.1149216815829277
150.07504200,150075042,-0.11971008777618408
150.07556400,150075564,-0.12449848651885986
150.07608600,150076086,-0.11971008777618408
150.07661400,150076614,-0.11971008777618408
150.07713700,150077137,-0.11971008777618408
150.07769700,150077697,-0.1149216815829277
150.07771800,150077718,-0.1149216815829277
150.07819800,150078198,-0.1149216815829277
150.07872000,150078720,-0.11971008777618408
150.07924300,150079243,-0.12449848651885986
150.07976800,150079768,-0.12928688526153564
150.08030000,150080300,-0.11971008777618408
150.08097900,150080979,-0.11971008777618408
150.08150300,150081503,-0.11971008777618408
150.08202700,150082027,-0.1149216815829277
150.08256500,150082565,-0.11013327538967133
150.08308900,150083089,-0.1149216815829277
150.08360800,150083608,-0.11971008777618408
150.08413500,150084135,-0.11971008777618408
150.08465600,150084656,-0.11971008777618408
150.08520600,150085206,-0.1149216815829277
150.08571300,150085713,-0.1149216815829277
150.08624100,150086241,-0.11971008777618408
150.08679100,150086791,-0.11971008777618408
150.08681200,150086812,-0.11971008777618408
150.08728600,150087286,-0.1149216815829277
150.08781800,150087818,-0.11013327538967133
150.08848500,150088485,-0.10534487664699554
150.08900800,150089008,-0.10534487664699554
150.08953200,150089532,-0.11013327538967133
150.09006400,150090064,-0.1149216815829277
150.09058800,150090588,-0.1149216815829277
150.09111000,150091110,-0.1149216815829277
150.09164000,150091640,-0.10534487664699554
150.09216300,150092163,-0.10055647045373917
150.09271200,150092712,-0.10055647045373917
150.09322000,150093220,-0.11013327538967133
150.09374300,150093743,-0.11971008777618408
150.09426800,150094268,-0.1149216815829277
150.09479000,150094790,-0.10534487664699554
150.09532200,150095322,-0.10534487664699554
150.09600900,150096009,-0.10055647045373917
150.09603100,150096031,-0.11013327538967133
150.09650300,150096503,-0.11013327538967133
150.09702600,150097026,-0.11013327538967133
150.09756000,150097560,-0.11013327538967133
150.09808200,150098082,-0.1149216815829277
150.09860300,150098603,-0.11013327538967133
150.09912900,150099129,-0.11013327538967133
150.09965400,150099654,-0.11013327538967133
150.10018500,150100185,-0.11013327538967133
150.10071500,150100715,-0.11013327538967133
150.10124100,150101241,-0.1149216815829277
150.10176300,150101763,-0.11971008777618408
150.10228800,150102288,-0.11971008777618408
150.10281900,150102819,-0.11971008777618408
150.10350500,150103505,-0.11971008777618408
150.10352700,150103527,-0.11971008777618408
150.10400100,150104001,-0.1149216815829277
150.10452300,150104523,-0.11013327538967133
150.10505600,150105056,-0.11013327538967133
150.10558100,150105581,-0.11013327538967133
150.10610300,150106103,-0.1149216815829277
150.10662800,150106628,-0.11013327538967133
150.10715200,150107152,-0.11013327538967133
150.10768200,150107682,-0.11013327538967133
150.10820900,150108209,-0.11013327538967133
150.10873000,150108730,-0.1149216815829277
150.10925500,150109255,-0.1149216815829277
150.10978000,150109780,-0.11971008777618408
150.11030800,150110308,-0.12928688526153564
150.11097800,150110978,-0.12928688526153564
150.11150400,150111504,-0.12449848651885986
150.11202400,150112024,-0.1149216815829277
150.11258500,150112585,-0.11013327538967133
150.11261000,150112610,-0.10534487664699554
150.11308300,150113083,-0.10055647045373917
150.11361000,150113610,-0.09576806426048279
150.11413500,150114135,-0.10055647045373917
150.11466100,150114661,-0.10534487664699554
150.11520600,150115206,-0.1149216815829277
150.11571900,150115719,-0.12449848651885986
150.11623800,150116238,-0.12449848651885986
150.11676800,150116768,-0.11971008777618408
150.11728800,150117288,-0.11971008777618408
150.11781700,150117817,-0.11013327538967133
150.11848200,150118482,-0.10055647045373917
150.11901000,150119010,-0.09576806426048279
150.11953200,150119532,-0.090979665517807
150.12006300,150120063,-0.09576806426048279
150.12058900,150120589,-0.10055647045373917
150.12110900,150121109,-0.10055647045373917
150.12163700,150121637,-0.10534487664699554
150.12218400,150122184,-0.10534487664699554
150.12220500,150122205,-0.11013327538967133
150.12269200,150122692,-0.1149216815829277
150.12322100,150123221,-0.12449848651885986
150.12374500,150123745,-0.12449848651885986
150.12426800,150124268,-0.11971008777618408
150.12479400,150124794,-0.1149216815829277
150.12538300,150125383,-0.11013327538967133
150.12598000,150125980,-0.1149216815829277
150.12650900,150126509,-0.11013327538967133
150.12702800,150127028,-0.10055647045373917
150.12756200,150127562,-0.10055647045373917
150.12808800,150128088,-0.10055647045373917
150.12860700,150128607,-0.10055647045373917
150.12913200,150129132,-0.10534487664699554
150.12965600,150129656,-0.1149216815829277
150.13020300,150130203,-0.11971008777618408
150.13072000,150130720,-0.11971008777618408
150.13124000,150131240,-0.11971008777618408
150.13179400,150131794,-0.11971008777618408
150.13181600,150131816,-0.11971008777618408
150.13229000,150132290,-0.11971008777618408
150.13283100,150132831,-0.11971008777618408
150.13347900,150133479,-0.11971008777618408
150.13400100,150134001,-0.1149216815829277
150.13452900,150134529,-0.1149216815829277
150.13506400,150135064,-0.11971008777618408
150.13558800,150135588,-0.12928688526153564
150.13611600,150136116,-0.12449848651885986
150.13663800,150136638,-0.11971008777618408
150.13716300,150137163,-0.1149216815829277
150.13771100,150137711,-0.11971008777618408
150.13823500,150138235,-0.11971008777618408
150.13875800,150138758,-0.1149216815829277
150.13928300,150139283,-0.10534487664699554
150.13980500,150139805,-0.09576806426048279
150.14051200,150140512,-0.10055647045373917
150.14053700,150140537,-0.1149216815829277
150.14100900,150141009,-0.11971008777618408
150.14154300,150141543,-0.11971008777618408
150.14207000,150142070,-0.11971008777618408
150.14260900,150142609,-0.1149216815829277
150.14313200,150143132,-0.11013327538967133
150.14365300,150143653,-0.10534487664699554
150.14418200,150144182,-0.10055647045373917
150.14470300,150144703,-0.10055647045373917
150.14525500,150145255,-0.10534487664699554
150.14578200,150145782,-0.11013327538967133
150.14630300,150146303,-0.1149216815829277
150.14700300,150147003,-0.11013327538967133
150.14702400,150147024,-0.10534487664699554
150.14752300,150147523,-0.10534487664699554
150.14804300,150148043,-0.10534487664699554
150.14857100,150148571,-0.1149216815829277
150.14909000,150149090,-0.11971008777618408
150.14961500,150149615,-0.12449848651885986
150.15015900,150150159,-0.1149216815829277
150.15067400,150150674,-0.10055647045373917
150.15119500,150151195,-0.10055647045373917
150.15172000,150151720,-0.10534487664699554
150.15224300,150152243,-0.1149216815829277
150.15277500,150152775,-0.1149216815829277
150.15330100,150153301,-0.1149216815829277
150.15397900,150153979,-0.1149216815829277
150.15450300,150154503,-0.11971008777618408
150.15506300,150155063,-0.1149216815829277
150.15508900,150155089,-0.10534487664699554
150.15555900,150155559,-0.09576806426048279
150.15608100,150156081,-0.09576806426048279
150.15660700,150156607,-0.09576806426048279
150.15713200,150157132,-0.09576806426048279
150.15767100,150157671,-0.10055647045373917
150.15818800,150158188,-0.11013327538967133
150.15870900,150158709,-0.11971008777618408
150.15923600,150159236,-0.11971008777618408
150.15975500,150159755,-0.12449848651885986
150.16028900,150160289,-0.11971008777618408
150.16081500,150160815,-0.1149216815829277
150.16147600,150161476,-0.11971008777618408
150.16201300,150162013,-0.11971008777618408
150.16254000,150162540,-0.11971008777618408
150.16306700,150163067,-0.11971008777618408
150.16359100,150163591,-0.11971008777618408
150.16411600,150164116,-0.11013327538967133
150.16466800,150164668,-0.10055647045373917
150.16469100,150164691,-0.09576806426048279
150.16517900,150165179,-0.10055647045373917
150.16570400,150165704,-0.10534487664699554
150.16622300,150166223,-0.11013327538967133
150.16674800,150166748,-0.11013327538967133
150.16727100,150167271,-0.11013327538967133
150.16780000,150167800,-0.1149216815829277
150.16837600,150168376,-0.11013327538967133
150.16897500,150168975,-0.11013327538967133
150.16949800,150169498,-0.1149216815829277
150.17003300,150170033,-0.12449848651885986
150.17055700,150170557,-0.12928688526153564
150.17108300,150171083,-0.12449848651885986
150.17161500,150171615,-0.11971008777618408
150.17213800,150172138,-0.11971008777618408
150.17267300,150172673,-0.1149216815829277
150.17320500,150173205,-0.11013327538967133
150.17375500,150173755,-0.11013327538967133
150.17377700,150173777,-0.11013327538967133
150.17425100,150174251,-0.11013327538967133
150.17477700,150174777,-0.11013327538967133
150.17530800,150175308,-0.11013327538967133
150.17597700,150175977,-0.11013327538967133
150.17650300,150176503,-0.1149216815829277
150.17702500,150177025,-0.1149216815829277
150.17755900,150177559,-0.11971008777618408
150.17808200,150178082,-0.11971008777618408
150.17860600,150178606,-0.11971008777618408
150.17913700,150179137,-0.12449848651885986
150.17965600,150179656,-0.11971008777618408
150.18019900,150180199,-0.1149216815829277
150.18071300,150180713,-0.1149216815829277
150.18123400,150181234,-0.11971008777618408
150.18175900,150181759,-0.11971008777618408
150.18228300,150182283,-0.11971008777618408
150.18281200,150182812,-0.11971008777618408
150.18350600,150183506,-0.11971008777618408
150.18353000,150183530,-0.11971008777618408
150.18400500,150184005,-0.1149216815829277
150.18452900,150184529,-0.11971008777618408
150.18506900,150185069,-0.12449848651885986
150.18559200,150185592,-0.12449848651885986
150.18611600,150186116,-0.12449848651885986
150.18663800,150186638,-0.1149216815829277
150.18716600,150187166,-0.1149216815829277
150.18770900,150187709,-0.11013327538967133
150.18823400,150188234,-0.11013327538967133
150.18875400,150188754,-0.11013327538967133
150.18928000,150189280,-0.11971008777618408
150.18980100,150189801,-0.11971008777618408
150.19051900,150190519,-0.12449848651885986
150.19054100,150190541,-0.11971008777618408
150.19101400,150191014,-0.12449848651885986
150.19153400,150191534,-0.11971008777618408
150.19205900,150192059,-0.11971008777618408
150.19259500,150192595,-0.12449848651885986
150.19311800,150193118,-0.11971008777618408
150.19363900,150193639,-0.1149216815829277
150.19417000,150194170,-0.1149216815829277
150.19468600,150194686,-0.1149216815829277
150.19523100,150195231,-0.11971008777618408
150.19575500,150195755,-0.11971008777618408
150.19627600,150196276,-0.11971008777618408
150.19680100,150196801,-0.12449848651885986
150.19754900,150197549,-0.12449848651885986
150.19757200,150197572,-0.12449848651885986
150.19806500,150198065,-0.11971008777618408
150.19857300,150198573,-0.11971008777618408
150.19910400,150199104,-0.1149216815829277
150.19962800,150199628,-0.11971008777618408
150.20017100,150200171,-0.11971008777618408
150.20068600,150200686,-0.12449848651885986
150.20120500,150201205,-0.11971008777618408
150.20173400,150201734,-0.11971008777618408
150.20225200,150202252,-0.11971008777618408
150.20278400,150202784,-0.11971008777618408
150.20330900,150203309,-0.11971008777618408
150.20397800,150203978,-0.1149216815829277
150.20450200,150204502,-0.11971008777618408
150.20503800,150205038,-0.1149216815829277
150.20558500,150205585,-0.10534487664699554
150.20608200,150206082,-0.10055647045373917
150.20663300,150206633,-0.10534487664699554
150.20665400,150206654,-0.1149216815829277
150.20712900,150207129,-0.11971008777618408
150.20766900,150207669,-0.12449848651885986
150.20818700,150208187,-0.1149216815829277
150.20871100,150208711,-0.11013327538967133
150.20923100,150209231,-0.10534487664699554
150.20975500,150209755,-0.10534487664699554
150.21028400,150210284,-0.10055647045373917
150.21081200,150210812,-0.10534487664699554
150.21147400,150211474,-0.11013327538967133
150.21199900,150211999,-0.1149216815829277
150.21253300,150212533,-0.1149216815829277
150.21305600,150213056,-0.11971008777618408
150.21358100,150213581,-0.12449848651885986
150.21410400,150214104,-0.12449848651885986
150.21462600,150214626,-0.12449848651885986
150.21516900,150215169,-0.11971008777618408
150.21568500,150215685,-0.11971008777618408
150.21623000,150216230,-0.1149216815829277
150.21625300,150216253,-0.11013327538967133
150.21673100,150216731,-0.10534487664699554
150.21725200,150217252,-0.1149216815829277
150.21778900,150217789,-0.11971008777618408
150.21831200,150218312,-0.12928688526153564
150.21897500,150218975,-0.12928688526153564
150.21949800,150219498,-0.11971008777618408
150.22003400,150220034,-0.1149216815829277
150.22055700,150220557,-0.11013327538967133
150.22108100,150221081,-0.1149216815829277
150.22160500,150221605,-0.11971008777618408
150.22212900,150222129,-0.11971008777618408
150.22267200,150222672,-0.11971008777618408
150.22319000,150223190,-0.11971008777618408
150.22371400,150223714,-0.12449848651885986
150.22423800,150224238,-0.12449848651885986
150.22475900,150224759,-0.11971008777618408
150.22529000,150225290,-0.1149216815829277
150.22584900,150225849,-0.1149216815829277
150.22587100,150225871,-0.11971008777618408
150.22647600,150226476,-0.11971008777618408
150.22699900,150226999,-0.1149216815829277
150.22752900,150227529,-0.1149216815829277
150.22808000,150228080,-0.11971008777618408
150.22858400,150228584,-0.12928688526153564
150.22910400,150229104,-0.12928688526153564
150.22963200,150229632,-0.12928688526153564
150.23017100,150230171,-0.12928688526153564
150.23068700,150230687,-0.11971008777618408
150.23121000,150231210,-0.11013327538967133
150.23173500,150231735,-0.10534487664699554
150.23225800,150232258,-0.10055647045373917
150.23280100,150232801,-0.10534487664699554
150.23331600,150233316,-0.1149216815829277
150.23400900,150234009,-0.11971008777618408
150.23403200,150234032,-0.12449848651885986
150.23451400,150234514,-0.12928688526153564
150.23504300,150235043,-0.12449848651885986
150.23557400,150235574,-0.1149216815829277
150.23609100,150236091,-0.11013327538967133
150.23661800,150236618,-0.11013327538967133
150.23714100,150237141,-0.11971008777618408
150.23767300,150237673,-0.11971008777618408
150.23819900,150238199,-0.11971008777618408
150.23872100,150238721,-0.11013327538967133
150.23924600,150239246,-0.10534487664699554
150.23976800,150239768,-0.10055647045373917
150.24030000,150240300,-0.10534487664699554
150.24100900,150241009,-0.11013327538967133
150.24103000,150241030,-0.1149216815829277
150.24151100,150241511,-0.11971008777618408
150.24202900,150242029,-0.12449848651885986
150.24256600,150242566,-0.12449848651885986
150.24308600,150243086,-0.12449848651885986
150.24360800,150243608,-0.11971008777618408
150.24413600,150244136,-0.11971008777618408
150.24465900,150244659,-0.1149216815829277
150.24521100,150245211,-0.11013327538967133
150.24573700,150245737,-0.11013327538967133
150.24626200,150246262,-0.11013327538967133
150.24678200,150246782,-0.1149216815829277
150.24730500,150247305,-0.11971008777618408
150.24799500,150247995,-0.12449848651885986
150.24851600,150248516,-0.13407529890537262
150.24904800,150249048,-0.12928688526153564
150.24956900,150249569,-0.12449848651885986
150.25013900,150250139,-0.11971008777618408
150.25017800,150250178,-0.11013327538967133
150.25068000,150250680,-0.10055647045373917
150.25119800,150251198,-0.10055647045373917
150.25172300,150251723,-0.11013327538967133
150.25224600,150252246,-0.1149216815829277
150.25277600,150252776,-0.11971008777618408
150.25330200,150253302,-0.11971008777618408
150.25397800,150253978,-0.11971008777618408
150.25449800,150254498,-0.11971008777618408
150.25503400,150255034,-0.11971008777618408
150.25555600,150255556,-0.11971008777618408
150.25607800,150256078,-0.11971008777618408
150.25660300,150256603,-0.11013327538967133
150.25712500,150257125,-0.10534487664699554
150.25767200,150257672,-0.10534487664699554
150.25821100,150258211,-0.10534487664699554
150.25823300,150258233,-0.11013327538967133
150.25870900,150258709,-0.11013327538967133
150.25922900,150259229,-0.10534487664699554
150.25975500,150259755,-0.10055647045373917
150.26028400,150260284,-0.11013327538967133
150.26081300,150260813,-0.11013327538967133
150.26147200,150261472,-0.11013327538967133
150.26199800,150261998,-0.11013327538967133
150.26253100,150262531,-0.10534487664699554
150.26305700,150263057,-0.11013327538967133
150.26357700,150263577,-0.11971008777618408
150.26410700,150264107,-0.11971008777618408
150.26462900,150264629,-0.1149216815829277
150.26516900,150265169,-0.11013327538967133
150.26568800,150265688,-0.11013327538967133
150.26621000,150266210,-0.1149216815829277
150.26673500,150266735,-0.1149216815829277
150.26726000,150267260,-0.1149216815829277
150.26781500,150267815,-0.1149216815829277
150.26784500,150267845,-0.11013327538967133
150.26831200,150268312,-0.10055647045373917
150.26897400,150268974,-0.10055647045373917
150.26949800,150269498,-0.11013327538967133
150.27002900,150270029,-0.11013327538967133
150.27055600,150270556,-0.11013327538967133
150.27108100,150271081,-0.1149216815829277
150.27160100,150271601,-0.11013327538967133
150.27212900,150272129,-0.1149216815829277
150.27267400,150272674,-0.11971008777618408
150.27318600,150273186,-0.11971008777618408
150.27371000,150273710,-0.12449848651885986
150.27423500,150274235,-0.11971008777618408
150.27475800,150274758,-0.1149216815829277
150.27528900,150275289,-0.1149216815829277
150.27581300,150275813,-0.1149216815829277
150.27649900,150276499,-0.11013327538967133
150.27652300,150276523,-0.11013327538967133
150.27699500,150276995,-0.11013327538967133
150.27752700,150277527,-0.1149216815829277
150.27805300,150278053,-0.11971008777618408
150.27857600,150278576,-0.11971008777618408
150.27910400,150279104,-0.1149216815829277
150.27962400,150279624,-0.11013327538967133
150.28016800,150280168,-0.1149216815829277
150.28068000,150280680,-0.11971008777618408
150.28120300,150281203,-0.12449848651885986
150.28172800,150281728,-0.11971008777618408
150.28225300,150282253,-0.1149216815829277
150.28278700,150282787,-0.11013327538967133
150.28331300,150283313,-0.11013327538967133
150.28400900,150284009,-0.11013327538967133
150.28403100,150284031,-0.11013327538967133
150.28450700,150284507,-0.11013327538967133
150.28503800,150285038,-0.1149216815829277
150.28556400,150285564,-0.1149216815829277
150.28608500,150286085,-0.11971008777618408
150.28661200,150286612,-0.12449848651885986
150.28713500,150287135,-0.12449848651885986
150.28767000,150287670,-0.11971008777618408
150.28819500,150288195,-0.11971008777618408
150.28871700,150288717,-0.1149216815829277
150.28924600,150289246,-0.11013327538967133
150.28976800,150289768,-0.10055647045373917
150.29030100,150290301,-0.10534487664699554
150.29098600,150290986,-0.1149216815829277
150.29150800,150291508,-0.11971008777618408
150.29203300,150292033,-0.12449848651885986
150.29256500,150292565,-0.12449848651885986
150.29311500,150293115,-0.12449848651885986
150.29313800,150293138,-0.1149216815829277
150.29361000,150293610,-0.1149216815829277
150.29413800,150294138,-0.11013327538967133
150.29466100,150294661,-0.10534487664699554
150.29519400,150295194,-0.10055647045373917
150.29571700,150295717,-0.10055647045373917
150.29624400,150296244,-0.09576806426048279
150.29677100,150296771,-0.09576806426048279
150.29729200,150297292,-0.10055647045373917
150.29782200,150297822,-0.11013327538967133
150.29847600,150298476,-0.11971008777618408
150.29900600,150299006,-0.12449848651885986
150.29952800,150299528,-0.12928688526153564
150.30007200,150300072,-0.12449848651885986
150.30059700,150300597,-0.11971008777618408
150.30111700,150301117,-0.11013327538967133
150.30164300,150301643,-0.11013327538967133
150.30216600,150302166,-0.1149216815829277
150.30274000,150302740,-0.11971008777618408
150.30276100,150302761,-0.11971008777618408
150.30324600,150303246,-0.1149216815829277
150.30375900,150303759,-0.11971008777618408
150.30428900,150304289,-0.11971008777618408
150.30481200,150304812,-0.11971008777618408
150.30548600,150305486,-0.11971008777618408
150.30601400,150306014,-0.11971008777618408
150.30654200,150306542,-0.1149216815829277
150.30706000,150307060,-0.11013327538967133
150.30760000,150307600,-0.10534487664699554
150.30812800,150308128,-0.10534487664699554
150.30865300,150308653,-0.11013327538967133
150.30917500,150309175,-0.1149216815829277
150.30970000,150309700,-0.1149216815829277
150.31023200,150310232,-0.1149216815829277
150.31076000,150310760,-0.11971008777618408
150.31130900,150311309,-0.12449848651885986
150.31133000,150311330,-0.12449848651885986
150.31180800,150311808,-0.11971008777618408
150.31250800,150312508,-0.1149216815829277
150.31303700,150313037,-0.11971008777618408
150.31355900,150313559,-0.11971008777618408
150.31408500,150314085,-0.1149216815829277
150.31460800,150314608,-0.1149216815829277
150.31513900,150315139,-0.11013327538967133
150.31566500,150315665,-0.10055647045373917
150.31618600,150316186,-0.10055647045373917
150.31671200,150316712,-0.10534487664699554
150.31723800,150317238,-0.1149216815829277
150.31776600,150317766,-0.12449848651885986
150.31829100,150318291,-0.12928688526153564
150.31881300,150318813,-0.12928688526153564
150.31950200,150319502,-0.11971008777618408
150.31952200,150319522,-0.1149216815829277
150.32002100,150320021,-0.1149216815829277
150.32054300,150320543,-0.11971008777618408
150.32107100,150321071,-0.11971008777618408
150.32159300,150321593,-0.11971008777618408
150.32212000,150322120,-0.12449848651885986
150.32266400,150322664,-0.12928688526153564
150.32318200,150323182,-0.13407529890537262
150.32370300,150323703,-0.12928688526153564
150.32422900,150324229,-0.12928688526153564
150.32475200,150324752,-0.12928688526153564
150.32528200,150325282,-0.11971008777618408
150.32580800,150325808,-0.11971008777618408
150.32649900,150326499,-0.11971008777618408
150.32652500,150326525,-0.12449848651885986
150.32699700,150326997,-0.11971008777618408
150.32753000,150327530,-0.11971008777618408
150.32805700,150328057,-0.11971008777618408
150.32858000,150328580,-0.11971008777618408
150.32910500,150329105,-0.11971008777618408
150.32962900,150329629,-0.11971008777618408
150.33017300,150330173,-0.11971008777618408
150.33068700,150330687,-0.11971008777618408
150.33120900,150331209,-0.11971008777618408
150.33173200,150331732,-0.1149216815829277
150.33225400,150332254,-0.11971008777618408
150.33279700,150332797,-0.12449848651885986
150.33331200,150333312,-0.12449848651885986
150.33398000,150333980,-0.11971008777618408
150.33451100,150334511,-0.11971008777618408
150.33504300,150335043,-0.12449848651885986
150.33559300,150335593,-0.12449848651885986
150.33561600,150335616,-0.12928688526153564
150.33608900,150336089,-0.13407529890537262
150.33661900,150336619,-0.12928688526153564
150.33714300,150337143,-0.12449848651885986
150.33767500,150337675,-0.12928688526153564
150.33820100,150338201,-0.12449848651885986
150.33872100,150338721,-0.11971008777618408
150.33924700,150339247,-0.11971008777618408
150.33977100,150339771,-0.11971008777618408
150.34030100,150340301,-0.11971008777618408
150.34098200,150340982,-0.11971008777618408
150.34150500,150341505,-0.1149216815829277
150.34202600,150342026,-0.10534487664699554
150.34256200,150342562,-0.10055647045373917
150.34308400,150343084,-0.10055647045373917
150.34360400,150343604,-0.10534487664699554
150.34413600,150344136,-0.11013327538967133
150.34468300,150344683,-0.1149216815829277
150.34470400,150344704,-0.11971008777618408
150.34518900,150345189,-0.12449848651885986
150.34572300,150345723,-0.12449848651885986
150.34624700,150346247,-0.12449848651885986
150.34677000,150346770,-0.12449848651885986
150.34729600,150347296,-0.12449848651885986
150.34788600,150347886,-0.12449848651885986
150.34848300,150348483,-0.12449848651885986
150.34900500,150349005,-0.11971008777618408
150.34952700,150349527,-0.1149216815829277
150.35005900,150350059,-0.10534487664699554
150.35058200,150350582,-0.11013327538967133
150.35110500,150351105,-0.1149216815829277
150.35162800,150351628,-0.11971008777618408
150.35215200,150352152,-0.11971008777618408
150.35268400,150352684,-0.11013327538967133
150.35320700,150353207,-0.10055647045373917
150.35372900,150353729,-0.10055647045373917
150.35427900,150354279,-0.10055647045373917
150.35430200,150354302,-0.10534487664699554
150.35477600,150354776,-0.10055647045373917
150.35530500,150355305,-0.10534487664699554
150.35598500,150355985,-0.10534487664699554
150.35650800,150356508,-0.10534487664699554
150.35703300,150357033,-0.10534487664699554
150.35756300,150357563,-0.10534487664699554
150.35809600,150358096,-0.1149216815829277
150.35861700,150358617,-0.12449848651885986
150.35913800,150359138,-0.12928688526153564
150.35966400,150359664,-0.12928688526153564
150.36020900,150360209,-0.12928688526153564
150.36073700,150360737,-0.12449848651885986
150.36125700,150361257,-0.12449848651885986
150.36178600,150361786,-0.11971008777618408
150.36230500,150362305,-0.10534487664699554
150.36301500,150363015,-0.10055647045373917
150.36303700,150363037,-0.10055647045373917
150.36351200,150363512,-0.10055647045373917
150.36404000,150364040,-0.10534487664699554
150.36455800,150364558,-0.11013327538967133
150.36510200,150365102,-0.1149216815829277
150.36562400,150365624,-0.11971008777618408
150.36614700,150366147,-0.12449848651885986
150.36667400,150366674,-0.11971008777618408
150.36720100,150367201,-0.11971008777618408
150.36773900,150367739,-0.11971008777618408
150.36826100,150368261,-0.11971008777618408
150.36878300,150368783,-0.11971008777618408
150.36930900,150369309,-0.12449848651885986
150.37003500,150370035,-0.12449848651885986
150.37005800,150370058,-0.12449848651885986
150.37053900,150370539,-0.11971008777618408
150.37106900,150371069,-0.11971008777618408
150.37159100,150371591,-0.11971008777618408
150.37211800,150372118,-0.12449848651885986
150.37265800,150372658,-0.13407529890537262
150.37317600,150373176,-0.14365209639072418
150.37369500,150373695,-0.13407529890537262
150.37422100,150374221,-0.12449848651885986
150.37474300,150374743,-0.11013327538967133
150.37527400,150375274,-0.10534487664699554
150.37580200,150375802,-0.10534487664699554
150.37647100,150376471,-0.10534487664699554
150.37699800,150376998,-0.1149216815829277
150.37755800,150377558,-0.12449848651885986
150.37758400,150377584,-0.11971008777618408
150.37805600,150378056,-0.1149216815829277
150.37857600,150378576,-0.11971008777618408
150.37910100,150379101,-0.11971008777618408
150.37962200,150379622,-0.11971008777618408
150.38016700,150380167,-0.1149216815829277
150.38068200,150380682,-0.1149216815829277
150.38120700,150381207,-0.12449848651885986
150.38173000,150381730,-0.12449848651885986
150.38225500,150382255,-0.11971008777618408
150.38278300,150382783,-0.1149216815829277
150.38330800,150383308,-0.1149216815829277
150.38397900,150383979,-0.1149216815829277
150.38450400,150384504,-0.11971008777618408
150.38503400,150385034,-0.1149216815829277
150.38558900,150385589,-0.10534487664699554
150.38608200,150386082,-0.10534487664699554
150.38660700,150386607,-0.1149216815829277
150.38715700,150387157,-0.1149216815829277
150.38718300,150387183,-0.1149216815829277
150.38766600,150387666,-0.11013327538967133
150.38818900,150388189,-0.10534487664699554
150.38871000,150388710,-0.10055647045373917
150.38923900,150389239,-0.10534487664699554
150.38976300,150389763,-0.11013327538967133
150.39029500,150390295,-0.1149216815829277
150.39081600,150390816,-0.1149216815829277
150.39147500,150391475,-0.11971008777618408
150.39200100,150392001,-0.11013327538967133
150.39253500,150392535,-0.10055647045373917
150.39305600,150393056,-0.10055647045373917
150.39358200,150393582,-0.11013327538967133
150.39411100,150394111,-0.1149216815829277
150.39463200,150394632,-0.11971008777618408
150.39517500,150395175,-0.12449848651885986
150.39569800,150395698,-0.12449848651885986
150.39622000,150396220,-0.11971008777618408
150.39677200,150396772,-0.11971008777618408
150.39679300,150396793,-0.1149216815829277
150.39726900,150397269,-0.10534487664699554
150.39780000,150397800,-0.10055647045373917
150.39847700,150398477,-0.10055647045373917
150.39900500,150399005,-0.09576806426048279
150.39952500,150399525,-0.090979665517807
150.40005900,150400059,-0.09576806426048279
150.40058200,150400582,-0.10534487664699554
150.40110500,150401105,-0.11013327538967133
150.40163700,150401637,-0.11013327538967133
150.40215800,150402158,-0.11013327538967133
150.40270100,150402701,-0.11013327538967133
150.40321800,150403218,-0.10534487664699554
150.40373700,150403737,-0.10055647045373917
150.40427300,150404273,-0.10055647045373917
150.40479600,150404796,-0.10534487664699554
150.40541100,150405411,-0.1149216815829277
150.40543300,150405433,-0.11971008777618408
150.40599000,150405990,-0.11971008777618408
150.40651100,150406511,-0.1149216815829277
150.40704300,150407043,-0.1149216815829277
150.40757600,150407576,-0.1149216815829277
150.40814300,150408143,-0.11013327538967133
150.40866500,150408665,-0.11013327538967133
150.40918900,150409189,-0.10534487664699554
150.40971300,150409713,-0.10534487664699554
150.41025100,150410251,-0.11013327538967133
150.41077500,150410775,-0.11013327538967133
150.41129900,150411299,-0.10534487664699554
150.41200500,150412005,-0.11013327538967133
150.41202600,150412026,-0.11971008777618408
150.41251500,150412515,-0.11971008777618408
150.41303900,150413039,-0.11013327538967133
150.41356000,150413560,-0.10055647045373917
150.41408400,150414084,-0.09576806426048279
150.41460700,150414607,-0.10055647045373917
150.41513900,150415139,-0.11013327538967133
150.41566500,150415665,-0.1149216815829277
150.41618700,150416187,-0.12449848651885986
150.41671300,150416713,-0.12928688526153564
150.41723600,150417236,-0.12928688526153564
150.41777000,150417770,-0.12928688526153564
150.41829400,150418294,-0.12449848651885986
150.41881900,150418819,-0.12449848651885986
150.41948000,150419480,-0.11971008777618408
150.42004100,150420041,-0.1149216815829277
150.42006300,150420063,-0.1149216815829277
150.42054000,150420540,-0.1149216815829277
150.42106000,150421060,-0.11971008777618408
150.42159400,150421594,-0.11971008777618408
150.42212000,150422120,-0.11971008777618408
150.42267000,150422670,-0.12449848651885986
150.42317900,150423179,-0.11971008777618408
150.42370300,150423703,-0.1149216815829277
150.42422700,150424227,-0.1149216815829277
150.42475200,150424752,-0.11971008777618408
150.42528400,150425284,-0.12449848651885986
150.42580400,150425804,-0.12449848651885986
150.42647700,150426477,-0.12449848651885986
150.42700100,150427001,-0.12449848651885986
150.42753700,150427537,-0.12449848651885986
150.42806200,150428062,-0.1149216815829277
150.42857900,150428579,-0.10534487664699554
150.42913500,150429135,-0.10055647045373917
150.42915600,150429156,-0.10534487664699554
150.42963200,150429632,-0.11013327538967133
150.43017400,150430174,-0.1149216815829277
150.43069600,150430696,-0.1149216815829277
150.43121900,150431219,-0.1149216815829277
150.43174000,150431740,-0.1149216815829277
150.43226700,150432267,-0.11971008777618408
150.43280200,150432802,-0.11971008777618408
150.43338000,150433380,-0.11971008777618408
150.43398200,150433982,-0.1149216815829277
150.43450400,150434504,-0.1149216815829277
150.43503800,150435038,-0.11971008777618408
150.43556600,150435566,-0.11971008777618408
150.43608700,150436087,-0.11971008777618408
150.43661700,150436617,-0.12449848651885986
150.43713900,150437139,-0.12928688526153564
150.43767500,150437675,-0.12928688526153564
150.43822700,150438227,-0.12449848651885986
150.43825000,150438250,-0.1149216815829277
150.43872200,150438722,-0.11013327538967133
150.43924900,150439249,-0.10534487664699554
150.43977100,150439771,-0.10534487664699554
150.44030000,150440300,-0.10055647045373917
150.44087900,150440879,-0.10055647045373917
150.44147400,150441474,-0.10534487664699554
150.44199800,150441998,-0.10534487664699554
150.44253300,150442533,-0.10534487664699554
150.44305800,150443058,-0.11013327538967133
150.44358300,150443583,-0.11013327538967133
150.44410500,150444105,-0.11013327538967133
150.44463600,150444636,-0.1149216815829277
150.44517100,150445171,-0.1149216815829277
150.44569200,150445692,-0.11971008777618408
150.44621300,150446213,-0.11971008777618408
150.44674000,150446740,-0.1149216815829277
150.44726200,150447262,-0.11013327538967133
150.44779200,150447792,-0.11013327538967133
150.44834500,150448345,-0.1149216815829277
150.44836900,150448369,-0.1149216815829277
150.44897900,150448979,-0.1149216815829277
150.44950100,150449501,-0.11013327538967133
150.45003700,150450037,-0.10534487664699554
150.45055900,150450559,-0.10534487664699554
150.45108100,150451081,-0.10534487664699554
150.45160800,150451608,-0.1149216815829277
150.45213200,150452132,-0.1149216815829277
150.45267400,150452674,-0.1149216815829277
150.45319000,150453190,-0.11013327538967133
150.45371600,150453716,-0.11013327538967133
150.45424200,150454242,-0.10534487664699554
150.45476400,150454764,-0.10534487664699554
150.45529700,150455297,-0.1149216815829277
150.45587900,150455879,-0.11971008777618408
150.45650800,150456508,-0.12449848651885986
150.45653000,150456530,-0.12928688526153564
150.45700300,150457003,-0.12449848651885986
150.45753400,150457534,-0.11971008777618408
150.45806300,150458063,-0.11971008777618408
150.45857900,150458579,-0.11013327538967133
150.45910600,150459106,-0.10534487664699554
150.45962500,150459625,-0.10534487664699554
150.46017800,150460178,-0.10534487664699554
150.46068700,150460687,-0.11013327538967133
150.46120600,150461206,-0.1149216815829277
150.46172900,150461729,-0.1149216815829277
150.46225500,150462255,-0.11013327538967133
150.46278300,150462783,-0.1149216815829277
150.46330900,150463309,-0.11971008777618408
150.46397700,150463977,-0.11971008777618408
150.46452500,150464525,-0.11971008777618408
150.46454900,150464549,-0.11971008777618408
150.46503500,150465035,-0.11971008777618408
150.46555600,150465556,-0.11971008777618408
150.46607900,150466079,-0.11013327538967133
150.46660400,150466604,-0.10055647045373917
150.46712600,150467126,-0.10055647045373917
150.46767000,150467670,-0.11013327538967133
150.46818600,150468186,-0.1149216815829277
150.46871400,150468714,-0.11971008777618408
150.46923400,150469234,-0.11971008777618408
150.46975900,150469759,-0.11971008777618408
150.47028700,150470287,-0.12449848651885986
150.47081200,150470812,-0.12449848651885986
150.47147100,150471471,-0.11971008777618408
150.47199600,150471996,-0.11971008777618408
150.47253100,150472531,-0.11971008777618408
150.47305400,150473054,-0.11971008777618408
150.47357600,150473576,-0.12449848651885986
150.47413900,150474139,-0.12449848651885986
150.47416100,150474161,-0.1149216815829277
150.47463500,150474635,-0.11013327538967133
150.47518000,150475180,-0.11013327538967133
150.47570400,150475704,-0.11013327538967133
150.47622500,150476225,-0.1149216815829277
150.47675100,150476751,-0.11971008777618408
150.47728100,150477281,-0.12449848651885986
150.47781300,150477813,-0.12449848651885986
150.47847700,150478477,-0.1149216815829277
150.47900200,150479002,-0.10534487664699554
150.47952400,150479524,-0.10534487664699554
150.48006100,150480061,-0.11013327538967133
150.48058900,150480589,-0.1149216815829277
150.48111400,150481114,-0.1149216815829277
150.48163400,150481634,-0.1149216815829277
150.48216000,150482160,-0.11013327538967133
150.48268900,150482689,-0.10534487664699554
150.48324100,150483241,-0.10534487664699554
150.48326500,150483265,-0.10534487664699554
150.48373700,150483737,-0.1149216815829277
150.48426300,150484263,-0.1149216815829277
150.48478700,150484787,-0.10534487664699554
150.48531500,150485315,-0.10055647045373917
150.48598300,150485983,-0.09576806426048279
150.48650800,150486508,-0.090979665517807
150.48703100,150487031,-0.10055647045373917
150.48756200,150487562,-0.1149216815829277
150.48808500,150488085,-0.11971008777618408
150.48860700,150488607,-0.11971008777618408
150.48913200,150489132,-0.11971008777618408
150.48965300,150489653,-0.1149216815829277
150.49018400,150490184,-0.1149216815829277
150.49070900,150490709,-0.1149216815829277
150.49123000,150491230,-0.11013327538967133
150.49175600,150491756,-0.11013327538967133
150.49227800,150492278,-0.10534487664699554
150.49281200,150492812,-0.10534487664699554
150.49351400,150493514,-0.10534487664699554
150.49353700,150493537,-0.10534487664699554
150.49401900,150494019,-0.11013327538967133
150.49453900,150494539,-0.1149216815829277
150.49506900,150495069,-0.1149216815829277
150.49559400,150495594,-0.11013327538967133
150.49611700,150496117,-0.11013327538967133
150.49664100,150496641,-0.1149216815829277
150.49716600,150497166,-0.12449848651885986
150.49771200,150497712,-0.11971008777618408
150.49824000,150498240,-0.1149216815829277
150.49876100,150498761,-0.10534487664699554
150.49928600,150499286,-0.10055647045373917
150.49980800,150499808,-0.10055647045373917
150.50051500,150500515,-0.11013327538967133
150.50053700,150500537,-0.11013327538967133
150.50101100,150501011,-0.10534487664699554
150.50153700,150501537,-0.10055647045373917
150.50205800,150502058,-0.10055647045373917
150.50260100,150502601,-0.10534487664699554
150.50312500,150503125,-0.1149216815829277
150.50364700,150503647,-0.11971008777618408
150.50417100,150504171,-0.11013327538967133
150.50469400,150504694,-0.10534487664699554
150.50524200,150505242,-0.10534487664699554
150.50577000,150505770,-0.1149216815829277
150.50629400,150506294,-0.11971008777618408
150.50681400,150506814,-0.11971008777618408
150.50753200,150507532,-0.12449848651885986
150.50755500,150507555,-0.12449848651885986
150.50803100,150508031,-0.11971008777618408
150.50856000,150508560,-0.1149216815829277
150.50908200,150509082,-0.1149216815829277
150.50960600,150509606,-0.1149216815829277
150.51013600,150510136,-0.1149216815829277
150.51066100,150510661,-0.11971008777618408
150.51119100,150511191,-0.11971008777618408
150.51170900,150511709,-0.11971008777618408
150.51223500,150512235,-0.1149216815829277
150.51278400,150512784,-0.11971008777618408
150.51330900,150513309,-0.11971008777618408
150.51397800,150513978,-0.12449848651885986
150.51450500,150514505,-0.12928688526153564
150.51503900,150515039,-0.12928688526153564
150.51556600,150515566,-0.13407529890537262
150.51611300,150516113,-0.13407529890537262
150.51613300,150516133,-0.12928688526153564
150.51661700,150516617,-0.11971008777618408
150.51714000,150517140,-0.1149216815829277
150.51767300,150517673,-0.11013327538967133
150.51819800,150518198,-0.11013327538967133
150.51872300,150518723,-0.10534487664699554
150.51924500,150519245,-0.10055647045373917
150.51977100,150519771,-0.10055647045373917
150.52030000,150520300,-0.10055647045373917
150.52098400,150520984,-0.11013327538967133
150.52150500,150521505,-0.11971008777618408
150.52202800,150522028,-0.12449848651885986
150.52256300,150522563,-0.11971008777618408
150.52308700,150523087,-0.1149216815829277
150.52360800,150523608,-0.1149216815829277
150.52413500,150524135,-0.11013327538967133
150.52465800,150524658,-0.11013327538967133
150.52522600,150525226,-0.11013327538967133
150.52524800,150525248,-0.11013327538967133
150.52571300,150525713,-0.11013327538967133
150.52623600,150526236,-0.11013327538967133
150.52675900,150526759,-0.11013327538967133
150.52728300,150527283,-0.11013327538967133
150.52781300,150527813,-0.11013327538967133
150.52848300,150528483,-0.11013327538967133
150.52901200,150529012,-0.1149216815829277
150.52953300,150529533,-0.1149216815829277
150.53006600,150530066,-0.11013327538967133
150.53059600,150530596,-0.10534487664699554
150.53112400,150531124,-0.10534487664699554
150.53164500,150531645,-0.10055647045373917
150.53217000,150532170,-0.10055647045373917
150.53270000,150532700,-0.10055647045373917
150.53323000,150533230,-0.10055647045373917
150.53375400,150533754,-0.10534487664699554
150.53430400,150534304,-0.10534487664699554
150.53432500,150534325,-0.11013327538967133
150.53479900,150534799,-0.1149216815829277
150.53548700,150535487,-0.1149216815829277
150.53601000,150536010,-0.1149216815829277
150.53653200,150536532,-0.1149216815829277
150.53705200,150537052,-0.11013327538967133
150.53758900,150537589,-0.1149216815829277
150.53811100,150538111,-0.11971008777618408
150.53863500,150538635,-0.11971008777618408
150.53916100,150539161,-0.11971008777618408
150.53968200,150539682,-0.12449848651885986
150.54022800,150540228,-0.11971008777618408
150.54075000,150540750,-0.11971008777618408
150.54127100,150541271,-0.11971008777618408
150.54179600,150541796,-0.12449848651885986
150.54244900,150542449,-0.12928688526153564
150.54247700,150542477,-0.12449848651885986
150.54299100,150542991,-0.11971008777618408
150.54351900,150543519,-0.11971008777618408
150.54403900,150544039,-0.11013327538967133
150.54456700,150544567,-0.10055647045373917
150.54509900,150545099,-0.09576806426048279
150.54562800,150545628,-0.10055647045373917
150.54614700,150546147,-0.11013327538967133
150.54668000,150546680,-0.11971008777618408
150.54720400,150547204,-0.11971008777618408
150.54774000,150547740,-0.11971008777618408
150.54826300,150548263,-0.1149216815829277
150.54878400,150548784,-0.1149216815829277
150.54931000,150549310,-0.1149216815829277
150.55003200,150550032,-0.11971008777618408
150.55005400,150550054,-0.11013327538967133
150.55053100,150550531,-0.10534487664699554
150.55105800,150551058,-0.10534487664699554
150.55158600,150551586,-0.11013327538967133
150.55210800,150552108,-0.11013327538967133
150.55265900,150552659,-0.1149216815829277
150.55317300,150553173,-0.1149216815829277
150.55370600,150553706,-0.1149216815829277
150.55422900,150554229,-0.11971008777618408
150.55475600,150554756,-0.12449848651885986
150.55528500,150555285,-0.12928688526153564
150.55581200,150555812,-0.12928688526153564
150.55647400,150556474,-0.11971008777618408
150.55699800,150556998,-0.11013327538967133
150.55752900,150557529,-0.10534487664699554
150.55809100,150558091,-0.10534487664699554
150.55811500,150558115,-0.11013327538967133
150.55858600,150558586,-0.11013327538967133
150.55911600,150559116,-0.1149216815829277
150.55963700,150559637,-0.11013327538967133
150.56017000,150560170,-0.11013327538967133
150.56069900,150560699,-0.10534487664699554
150.56122200,150561222,-0.10534487664699554
150.56174700,150561747,-0.11013327538967133
150.56227100,150562271,-0.10534487664699554
150.56280100,150562801,-0.10055647045373917
150.56348000,150563480,-0.10534487664699554
150.56400400,150564004,-0.11013327538967133
150.56452300,150564523,-0.1149216815829277
150.56505500,150565055,-0.1149216815829277
150.56559700,150565597,-0.11971008777618408
150.56610800,150566108,-0.11971008777618408
150.56662900,150566629,-0.11971008777618408
150.56718100,150567181,-0.12928688526153564
150.56720200,150567202,-0.13407529890537262
150.56768500,150567685,-0.12928688526153564
150.56821300,150568213,-0.12449848651885986
150.56874200,150568742,-0.12449848651885986
150.56926600,150569266,-0.11971008777618408
150.56978900,150569789,-0.1149216815829277
150.57032000,150570320,-0.11013327538967133
150.57097800,150570978,-0.11013327538967133
150.57150300,150571503,-0.11013327538967133
150.57202400,150572024,-0.1149216815829277
150.57256400,150572564,-0.12449848651885986
150.57309000,150573090,-0.12449848651885986
150.57361100,150573611,-0.11971008777618408
150.57413900,150574139,-0.1149216815829277
150.57465900,150574659,-0.1149216815829277
150.57520100,150575201,-0.1149216815829277
150.57572700,150575727,-0.11013327538967133
150.57623500,150576235,-0.1149216815829277
150.57678900,150576789,-0.11971008777618408
150.57681300,150576813,-0.11013327538967133
150.57728600,150577286,-0.10534487664699554
150.57781700,150577817,-0.10055647045373917
150.57849000,150578490,-0.09576806426048279
150.57900900,150579009,-0.09576806426048279
150.57954000,150579540,-0.09576806426048279
150.58007200,150580072,-0.090979665517807
150.58059900,150580599,-0.09576806426048279
150.58112000,150581120,-0.10055647045373917
150.58164500,150581645,-0.10534487664699554
150.58217000,150582170,-0.11013327538967133
150.58270500,150582705,-0.11971008777618408
150.58323100,150583231,-0.11971008777618408
150.58375300,150583753,-0.1149216815829277
150.58428000,150584280,-0.1149216815829277
150.58480600,150584806,-0.1149216815829277
150.58551400,150585514,-0.1149216815829277
150.58553600,150585536,-0.1149216815829277
150.58601100,150586011,-0.1149216815829277
150.58653900,150586539,-0.1149216815829277
150.58706200,150587062,-0.1149216815829277
150.58759600,150587596,-0.1149216815829277
150.58814400,150588144,-0.11971008777618408
150.58866100,150588661,-0.11971008777618408
150.58918600,150589186,-0.11971008777618408
150.58971000,150589710,-0.11971008777618408
150.59025400,150590254,-0.1149216815829277
150.59078400,150590784,-0.1149216815829277
150.59130900,150591309,-0.11013327538967133
150.59200500,150592005,-0.11013327538967133
150.59202600,150592026,-0.11013327538967133
150.59251800,150592518,-0.1149216815829277
150.59304500,150593045,-0.1149216815829277
150.59356900,150593569,-0.1149216815829277
150.59409100,150594091,-0.1149216815829277
150.59461600,150594616,-0.11971008777618408
150.59515900,150595159,-0.11971008777618408
150.59567200,150595672,-0.12449848651885986
150.59619300,150596193,-0.12449848651885986
150.59672000,150596720,-0.12449848651885986
150.59724300,150597243,-0.11971008777618408
150.59777300,150597773,-0.1149216815829277
150.59829600,150598296,-0.11013327538967133
150.59887700,150598877,-0.10534487664699554
150.59947700,150599477,-0.09576806426048279
150.60004600,150600046,-0.09576806426048279
150.60007000,150600070,-0.09576806426048279
150.60054700,150600547,-0.09576806426048279
150.60107000,150601070,-0.10055647045373917
150.60160400,150601604,-0.10534487664699554
150.60212700,150602127,-0.11013327538967133
150.60266900,150602669,-0.11013327538967133
150.60318900,150603189,-0.1149216815829277
150.60371800,150603718,-0.11971008777618408
150.60423900,150604239,-0.1149216815829277
150.60476300,150604763,-0.1149216815829277
150.60529300,150605293,-0.10534487664699554
150.60582200,150605822,-0.10055647045373917
150.60647600,150606476,-0.10534487664699554
150.60700000,150607000,-0.11013327538967133
150.60753000,150607530,-0.10534487664699554
150.60805700,150608057,-0.10534487664699554
150.60857800,150608578,-0.09576806426048279
150.60910700,150609107,-0.09576806426048279
150.60965400,150609654,-0.10055647045373917
150.60967500,150609675,-0.10055647045373917
150.61017400,150610174,-0.10534487664699554
150.61068600,150610686,-0.11013327538967133
150.61121000,150611210,-0.1149216815829277
150.61173200,150611732,-0.11971008777618408
150.61225800,150612258,-0.1149216815829277
150.61278700,150612787,-0.1149216815829277
150.61331300,150613313,-0.1149216815829277
150.61398200,150613982,-0.1149216815829277
150.61450000,150614500,-0.11971008777618408
150.61503500,150615035,-0.11971008777618408
150.61556000,150615560,-0.12449848651885986
150.61608800,150616088,-0.12928688526153564
150.61661100,150616611,-0.12928688526153564
150.61713500,150617135,-0.11971008777618408
150.61767200,150617672,-0.1149216815829277
150.61819500,150618195,-0.1149216815829277
150.61871600,150618716,-0.1149216815829277
150.61926600,150619266,-0.1149216815829277
150.61928900,150619289,-0.1149216815829277
150.61976500,150619765,-0.11971008777618408
150.62029500,150620295,-0.11971008777618408
150.62082200,150620822,-0.11971008777618408
150.62147500,150621475,-0.11971008777618408
150.62199900,150621999,-0.12449848651885986
150.62253300,150622533,-0.11971008777618408
150.62305500,150623055,-0.1149216815829277
150.62357900,150623579,-0.1149216815829277
150.62410600,150624106,-0.11971008777618408
150.62463200,150624632,-0.11971008777618408
150.62517100,150625171,-0.1149216815829277
150.62568600,150625686,-0.11013327538967133
150.62621500,150626215,-0.10534487664699554
150.62674200,150626742,-0.10534487664699554
150.62726400,150627264,-0.10534487664699554
150.62779500,150627795,-0.11013327538967133
150.62832200,150628322,-0.1149216815829277
150.62900300,150629003,-0.1149216815829277
150.62902500,150629025,-0.11013327538967133
150.62950400,150629504,-0.10055647045373917
150.63003800,150630038,-0.09576806426048279
150.63056300,150630563,-0.09576806426048279
150.63108500,150631085,-0.10055647045373917
150.63161000,150631610,-0.10055647045373917
150.63213100,150632131,-0.10055647045373917
150.63266400,150632664,-0.11013327538967133
150.63320100,150633201,-0.1149216815829277
150.63370900,150633709,-0.11971008777618408
150.63423900,150634239,-0.1149216815829277
150.63475700,150634757,-0.11013327538967133
150.63528900,150635289,-0.10055647045373917
150.63581300,150635813,-0.10055647045373917
150.63650500,150636505,-0.10534487664699554
150.63653200,150636532,-0.11013327538967133
150.63700200,150637002,-0.11971008777618408
150.63753300,150637533,-0.12449848651885986
150.63806200,150638062,-0.11971008777618408
150.63858300,150638583,-0.1149216815829277
150.63910900,150639109,-0.10055647045373917
150.63963100,150639631,-0.09576806426048279
150.64017000,150640170,-0.09576806426048279
150.64068900,150640689,-0.09576806426048279
150.64121300,150641213,-0.10055647045373917
150.64173500,150641735,-0.10055647045373917
150.64226000,150642260,-0.10055647045373917
150.64278800,150642788,-0.10055647045373917
150.64331300,150643313,-0.10055647045373917
150.64397800,150643978,-0.10055647045373917
150.64450100,150644501,-0.10055647045373917
150.64505900,150645059,-0.10055647045373917
150.64508200,150645082,-0.10055647045373917
150.64555800,150645558,-0.10534487664699554
150.64608200,150646082,-0.11013327538967133
150.64661400,150646614,-0.1149216815829277
150.64713600,150647136,-0.1149216815829277
150.64766700,150647667,-0.11013327538967133
150.64819400,150648194,-0.1149216815829277
150.64871400,150648714,-0.11971008777618408
150.64923800,150649238,-0.11971008777618408
150.64976000,150649760,-0.12449848651885986
150.65029000,150650290,-0.11971008777618408
150.65081800,150650818,-0.1149216815829277
150.65147200,150651472,-0.11013327538967133
150.65199700,150651997,-0.11013327538967133
150.65252900,150652529,-0.1149216815829277
150.65305500,150653055,-0.1149216815829277
150.65358100,150653581,-0.12449848651885986
150.65410300,150654103,-0.12928688526153564
150.65465300,150654653,-0.12928688526153564
150.65467500,150654675,-0.12449848651885986
150.65517400,150655174,-0.11971008777618408
150.65568500,150655685,-0.11971008777618408
150.65620700,150656207,-0.1149216815829277
150.65673600,150656736,-0.10534487664699554
150.65725900,150657259,-0.10055647045373917
150.65779900,150657799,-0.10055647045373917
150.65837700,150658377,-0.10534487664699554
150.65898000,150658980,-0.1149216815829277
150.65951000,150659510,-0.12449848651885986
150.66004200,150660042,-0.12928688526153564
150.66057000,150660570,-0.12449848651885986
150.66108700,150661087,-0.11971008777618408
150.66161100,150661611,-0.1149216815829277
150.66213400,150662134,-0.1149216815829277
150.66267400,150662674,-0.11013327538967133
150.66319400,150663194,-0.10534487664699554
150.66371700,150663717,-0.10534487664699554
150.66426800,150664268,-0.10055647045373917
150.66428900,150664289,-0.10534487664699554
150.66476700,150664767,-0.10534487664699554
150.66529700,150665297,-0.11013327538967133
150.66587900,150665879,-0.11013327538967133
150.66648100,150666481,-0.1149216815829277
150.66701400,150667014,-0.1149216815829277
150.66754100,150667541,-0.1149216815829277
150.66807100,150668071,-0.11013327538967133
150.66859700,150668597,-0.1149216815829277
150.66912500,150669125,-0.12449848651885986
150.66964500,150669645,-0.12449848651885986
150.67018100,150670181,-0.12449848651885986
150.67070500,150670705,-0.12449848651885986
150.67122700,150671227,-0.11971008777618408
150.67175200,150671752,-0.11971008777618408
150.67227400,150672274,-0.11013327538967133
150.67280700,150672807,-0.10534487664699554
150.67350600,150673506,-0.10055647045373917
150.67352700,150673527,-0.11013327538967133
150.67400300,150674003,-0.11013327538967133
150.67452700,150674527,-0.1149216815829277
150.67506000,150675060,-0.1149216815829277
150.67558400,150675584,-0.1149216815829277
150.67610600,150676106,-0.1149216815829277
150.67663700,150676637,-0.11013327538967133
150.67715800,150677158,-0.10534487664699554
150.67770600,150677706,-0.10534487664699554
150.67821800,150678218,-0.10534487664699554
150.67874700,150678747,-0.1149216815829277
150.67926700,150679267,-0.12449848651885986
150.67979300,150679793,-0.12928688526153564
150.68034200,150680342,-0.12928688526153564
150.68101000,150681010,-0.12928688526153564
150.68103100,150681031,-0.12449848651885986
150.68150800,150681508,-0.1149216815829277
150.68202700,150682027,-0.1149216815829277
150.68256900,150682569,-0.11013327538967133
150.68309000,150683090,-0.11013327538967133
150.68361100,150683611,-0.10534487664699554
150.68413700,150684137,-0.10534487664699554
150.68465800,150684658,-0.11013327538967133
150.68520300,150685203,-0.11013327538967133
150.68572000,150685720,-0.11013327538967133
150.68624200,150686242,-0.1149216815829277
150.68677100,150686771,-0.11971008777618408
150.68729200,150687292,-0.12449848651885986
150.68784100,150687841,-0.11971008777618408
150.68847800,150688478,-0.11971008777618408
150.68900300,150689003,-0.11971008777618408
150.68954900,150689549,-0.11971008777618408
150.68957000,150689570,-0.1149216815829277
150.69006100,150690061,-0.11971008777618408
150.69058300,150690583,-0.11971008777618408
150.69110900,150691109,-0.1149216815829277
150.69163400,150691634,-0.1149216815829277
150.69215500,150692155,-0.11013327538967133
150.69268900,150692689,-0.11013327538967133
150.69321100,150693211,-0.1149216815829277
150.69373400,150693734,-0.11013327538967133
150.69425700,150694257,-0.10055647045373917
150.69478300,150694783,-0.10055647045373917
150.69531800,150695318,-0.09576806426048279
150.69598000,150695980,-0.09576806426048279
150.69650300,150696503,-0.10055647045373917
150.69702900,150697029,-0.10534487664699554
150.69756100,150697561,-0.1149216815829277
150.69808300,150698083,-0.11971008777618408
150.69860500,150698605,-0.11971008777618408
150.69915600,150699156,-0.12449848651885986
150.69918000,150699180,-0.12928688526153564
150.69965200,150699652,-0.12449848651885986
150.70018400,150700184,-0.11971008777618408
150.70071300,150700713,-0.1149216815829277
150.70123600,150701236,-0.11013327538967133
150.70176100,150701761,-0.1149216815829277
150.70228600,150702286,-0.11971008777618408
150.70281800,150702818,-0.1149216815829277
150.70348800,150703488,-0.1149216815829277
150.70400900,150704009,-0.11971008777618408
150.70453300,150704533,-0.12449848651885986
150.70506500,150705065,-0.12928688526153564
150.70558800,150705588,-0.12928688526153564
150.70611500,150706115,-0.12928688526153564
150.70663600,150706636,-0.11971008777618408
150.70716200,150707162,-0.11013327538967133
150.70770800,150707708,-0.11013327538967133
150.70823100,150708231,-0.10534487664699554
150.70877600,150708776,-0.10534487664699554
150.70879700,150708797,-0.1149216815829277
150.70927800,150709278,-0.1149216815829277
150.70980000,150709800,-0.1149216815829277
150.71048500,150710485,-0.1149216815829277
150.71100800,150711008,-0.1149216815829277
150.71153800,150711538,-0.11013327538967133
150.71206000,150712060,-0.10055647045373917
150.71259500,150712595,-0.090979665517807
150.71312400,150713124,-0.09576806426048279
150.71364500,150713645,-0.10534487664699554
150.71417100,150714171,-0.11013327538967133
150.71469300,150714693,-0.11013327538967133
150.71524500,150715245,-0.11013327538967133
150.71577100,150715771,-0.11013327538967133
150.71629500,150716295,-0.1149216815829277
150.71681500,150716815,-0.11971008777618408
150.71753100,150717531,-0.11971008777618408
150.71755400,150717554,-0.11971008777618408
150.71803600,150718036,-0.11971008777618408
150.71855500,150718555,-0.1149216815829277
150.71908300,150719083,-0.11013327538967133
150.71960100,150719601,-0.10534487664699554
150.72015200,150720152,-0.10055647045373917
150.72066100,150720661,-0.10055647045373917
150.72118300,150721183,-0.10534487664699554
150.72170800,150721708,-0.11013327538967133
150.72223200,150722232,-0.1149216815829277
150.72277300,150722773,-0.11971008777618408
150.72330200,150723302,-0.1149216815829277
150.72400600,150724006,-0.1149216815829277
150.72402700,150724027,-0.11013327538967133
150.72449900,150724499,-0.11013327538967133
150.72503100,150725031,-0.11013327538967133
150.72555800,150725558,-0.11013327538967133
150.72608000,150726080,-0.11013327538967133
150.72660400,150726604,-0.1149216815829277
150.72713800,150727138,-0.11971008777618408
150.72767000,150727670,-0.11971008777618408
150.72819400,150728194,-0.1149216815829277
150.72872200,150728722,-0.11013327538967133
150.72924400,150729244,-0.11013327538967133
150.72977000,150729770,-0.10534487664699554
150.73029900,150730299,-0.10055647045373917
150.73098100,150730981,-0.11013327538967133
150.73152900,150731529,-0.11013327538967133
150.73155300,150731553,-0.1149216815829277
150.73202800,150732028,-0.11971008777618408
150.73257600,150732576,-0.11971008777618408
150.73308600,150733086,-0.1149216815829277
150.73360900,150733609,-0.1149216815829277
150.73413500,150734135,-0.11971008777618408
150.73465600,150734656,-0.11971008777618408
150.73520500,150735205,-0.11971008777618408
150.73571900,150735719,-0.11013327538967133
150.73623900,150736239,-0.10534487664699554
150.73676400,150736764,-0.10534487664699554
150.73728800,150737288,-0.10534487664699554
150.73781700,150737817,-0.10534487664699554
150.73847800,150738478,-0.11013327538967133
150.73901400,150739014,-0.1149216815829277
150.73953400,150739534,-0.11971008777618408
150.74006600,150740066,-0.11971008777618408
150.74059200,150740592,-0.11971008777618408
150.74114500,150741145,-0.11971008777618408
150.74116600,150741166,-0.11971008777618408
150.74164000,150741640,-0.11971008777618408
150.74216400,150742164,-0.12449848651885986
150.74270500,150742705,-0.12449848651885986
150.74323400,150743234,-0.12449848651885986
150.74375300,150743753,-0.11971008777618408
150.74428300,150744283,-0.11013327538967133
150.74480500,150744805,-0.10534487664699554
150.74548300,150745483,-0.10055647045373917
150.74600500,150746005,-0.10055647045373917
150.74653200,150746532,-0.10534487664699554
150.74705300,150747053,-0.10534487664699554
150.74759200,150747592,-0.10534487664699554
150.74811300,150748113,-0.10534487664699554
150.74863400,150748634,-0.10534487664699554
150.74915900,150749159,-0.11013327538967133
150.74968200,150749682,-0.11013327538967133
150.75025200,150750252,-0.11013327538967133
150.75027700,150750277,-0.10534487664699554
150.75074800,150750748,-0.10055647045373917
150.75127300,150751273,-0.10055647045373917
150.75179800,150751798,-0.10055647045373917
150.75250700,150752507,-0.10534487664699554
150.75303200,150753032,-0.11013327538967133
150.75355900,150753559,-0.11013327538967133
150.75408200,150754082,-0.11013327538967133
150.75460700,150754607,-0.1149216815829277
150.75513800,150755138,-0.11971008777618408
150.75566700,150755667,-0.11971008777618408
150.75618900,150756189,-0.11971008777618408
150.75672100,150756721,-0.1149216815829277
150.75724300,150757243,-0.1149216815829277
150.75777700,150757777,-0.11971008777618408
150.75833600,150758336,-0.11971008777618408
150.75835700,150758357,-0.11971008777618408
150.75897500,150758975,-0.12449848651885986
150.75950100,150759501,-0.12449848651885986
150.76003400,150760034,-0.12449848651885986
150.76055700,150760557,-0.11971008777618408
150.76107800,150761078,-0.11971008777618408
150.76161100,150761611,-0.12449848651885986
150.76213300,150762133,-0.12449848651885986
150.76266800,150762668,-0.11971008777618408
150.76319100,150763191,-0.1149216815829277
150.76371500,150763715,-0.11013327538967133
150.76424300,150764243,-0.11013327538967133
150.76476300,150764763,-0.11971008777618408
150.76529800,150765298,-0.12449848651885986
150.76593500,150765935,-0.11971008777618408
150.76595600,150765956,-0.1149216815829277
150.76651400,150766514,-0.10534487664699554
150.76703900,150767039,-0.09576806426048279
150.76757400,150767574,-0.090979665517807
150.76814900,150768149,-0.10055647045373917
150.76867300,150768673,-0.1149216815829277
150.76920200,150769202,-0.1149216815829277
150.76972500,150769725,-0.1149216815829277
150.77026700,150770267,-0.1149216815829277
150.77079000,150770790,-0.1149216815829277
150.77131500,150771315,-0.11971008777618408
150.77200400,150772004,-0.11971008777618408
150.77202600,150772026,-0.11971008777618408
150.77251200,150772512,-0.12449848651885986
150.77303800,150773038,-0.11971008777618408
150.77356500,150773565,-0.1149216815829277
150.77409200,150774092,-0.11971008777618408
150.77461700,150774617,-0.11971008777618408
150.77516800,150775168,-0.12449848651885986
150.77567900,150775679,-0.12449848651885986
150.77620100,150776201,-0.11971008777618408
150.77672900,150776729,-0.11971008777618408
150.77725100,150777251,-0.11013327538967133
150.77778300,150777783,-0.10534487664699554
150.77831200,150778312,-0.10534487664699554
150.77901600,150779016,-0.1149216815829277
150.77957000,150779570,-0.12449848651885986
150.77959100,150779591,-0.12928688526153564
150.78007400,150780074,-0.12449848651885986
150.78060600,150780606,-0.11971008777618408
150.78112900,150781129,-0.11971008777618408
150.78165700,150781657,-0.11013327538967133
150.78218100,150782181,-0.10534487664699554
150.78272500,150782725,-0.11013327538967133
150.78325300,150783253,-0.1149216815829277
150.78377800,150783778,-0.12449848651885986
150.78430400,150784304,-0.12449848651885986
150.78502100,150785021,-0.1149216815829277
150.78554200,150785542,-0.1149216815829277
150.78606400,150786064,-0.11971008777618408
150.78659700,150786597,-0.12449848651885986
150.78714600,150787146,-0.12449848651885986
150.78716600,150787166,-0.12449848651885986
150.78767100,150787671,-0.11971008777618408
150.78818800,150788188,-0.11971008777618408
150.78871000,150788710,-0.11971008777618408
150.78923600,150789236,-0.11971008777618408
150.78976100,150789761,-0.12449848651885986
150.79029200,150790292,-0.12449848651885986
150.79082100,150790821,-0.11971008777618408
150.79148900,150791489,-0.1149216815829277
150.79202400,150792024,-0.10534487664699554
150.79255400,150792554,-0.11013327538967133
150.79308200,150793082,-0.11013327538967133
150.79360400,150793604,-0.11013327538967133
150.79413000,150794130,-0.1149216815829277
150.79465100,150794651,-0.11971008777618408
150.79518600,150795186,-0.11971008777618408
150.79571300,150795713,-0.1149216815829277
150.79625700,150796257,-0.11013327538967133
150.79627800,150796278,-0.11013327538967133
150.79675700,150796757,-0.11013327538967133
150.79727900,150797279,-0.11013327538967133
150.79780700,150797807,-0.1149216815829277
150.79840400,150798404,-0.1149216815829277
150.79898600,150798986,-0.11971008777618408
150.79950800,150799508,-0.1149216815829277
150.80004000,150800040,-0.1149216815829277
150.80056300,150800563,-0.10534487664699554
150.80109000,150801090,-0.10534487664699554
150.80161100,150801611,-0.11013327538967133
150.80213700,150802137,-0.1149216815829277
150.80266800,150802668,-0.11971008777618408
150.80319900,150803199,-0.12449848651885986
150.80372800,150803728,-0.12449848651885986
150.80424600,150804246,-0.1149216815829277
150.80477200,150804772,-0.11013327538967133
150.80530700,150805307,-0.10534487664699554
150.80598300,150805983,-0.10534487664699554
150.80600500,150806005,-0.11013327538967133
150.80647600,150806476,-0.1149216815829277
150.80700000,150807000,-0.1149216815829277
150.80753200,150807532,-0.1149216815829277
150.80806000,150808060,-0.1149216815829277
150.80858100,150808581,-0.1149216815829277
150.80910800,150809108,-0.11013327538967133
150.80962900,150809629,-0.10534487664699554
150.81017200,150810172,-0.10534487664699554
150.81068800,150810688,-0.10534487664699554
150.81120900,150811209,-0.11013327538967133
150.81173500,150811735,-0.11013327538967133
150.81225700,150812257,-0.11013327538967133
150.81278800,150812788,-0.1149216815829277
150.81331400,150813314,-0.11971008777618408
150.81403000,150814030,-0.11971008777618408
150.81405100,150814051,-0.11971008777618408
150.81452700,150814527,-0.11971008777618408
150.81506000,150815060,-0.11013327538967133
150.81558900,150815589,-0.11013327538967133
150.81611500,150816115,-0.1149216815829277
150.81663700,150816637,-0.1149216815829277
150.81716000,150817160,-0.11971008777618408
150.81770500,150817705,-0.1149216815829277
150.81821900,150818219,-0.11013327538967133
150.81874100,150818741,-0.10055647045373917
150.81926800,150819268,-0.10055647045373917
150.81979000,150819790,-0.10055647045373917
150.82032100,150820321,-0.10534487664699554
150.82098000,150820980,-0.10534487664699554
150.82152800,150821528,-0.10055647045373917
150.82155100,150821551,-0.10055647045373917
150.82202700,150822027,-0.11013327538967133
150.82255700,150822557,-0.11971008777618408
150.82308700,150823087,-0.12928688526153564
150.82361100,150823611,-0.12449848651885986
150.82414000,150824140,-0.1149216815829277
150.82466400,150824664,-0.11013327538967133
150.82519500,150825195,-0.11013327538967133
150.82572000,150825720,-0.11013327538967133
150.82624100,150826241,-0.11013327538967133
150.82676800,150826768,-0.11971008777618408
150.82729200,150827292,-0.12928688526153564
150.82786900,150827869,-0.13407529890537262
150.82852400,150828524,-0.12928688526153564
150.82904700,150829047,-0.12928688526153564
150.82957400,150829574,-0.11971008777618408
150.83012800,150830128,-0.11971008777618408
150.83016600,150830166,-0.11971008777618408
150.83063200,150830632,-0.11971008777618408
150.83115200,150831152,-0.1149216815829277
150.83169000,150831690,-0.11013327538967133
150.83220900,150832209,-0.11013327538967133
150.83274800,150832748,-0.11013327538967133
150.83327600,150833276,-0.11971008777618408
150.83379900,150833799,-0.11971008777618408
150.83450400,150834504,-0.12449848651885986
150.83503800,150835038,-0.11971008777618408
150.83558500,150835585,-0.11971008777618408
150.83608500,150836085,-0.11971008777618408
150.83660800,150836608,-0.12928688526153564
150.83713400,150837134,-0.12928688526153564
150.83767800,150837678,-0.12449848651885986
150.83821700,150838217,-0.1149216815829277
150.83823900,150838239,-0.10534487664699554
150.83871200,150838712,-0.10055647045373917
150.83924400,150839244,-0.09576806426048279
150.83976600,150839766,-0.09576806426048279
150.84030000,150840300,-0.10055647045373917
150.84091000,150840910,-0.09576806426048279
150.84150900,150841509,-0.09576806426048279
150.84203900,150842039,-0.10534487664699554
150.84256500,150842565,-0.11971008777618408
150.84309500,150843095,-0.12449848651885986
150.84361100,150843611,-0.11971008777618408
150.84414200,150844142,-0.1149216815829277
150.84466300,150844663,-0.11013327538967133
150.84521000,150845210,-0.11013327538967133
150.84571900,150845719,-0.11013327538967133
150.84624200,150846242,-0.11971008777618408
150.84676600,150846766,-0.11971008777618408
150.84731500,150847315,-0.1149216815829277
150.84733800,150847338,-0.11971008777618408
150.84782100,150847821,-0.11971008777618408
150.84852100,150848521,-0.11971008777618408
150.84904600,150849046,-0.11971008777618408
150.84957000,150849570,-0.11971008777618408
150.85010700,150850107,-0.11971008777618408
150.85063100,150850631,-0.11971008777618408
150.85115300,150851153,-0.12449848651885986
150.85167900,150851679,-0.12928688526153564
150.85220100,150852201,-0.12928688526153564
150.85274200,150852742,-0.12449848651885986
150.85327000,150853270,-0.12449848651885986
150.85379300,150853793,-0.11971008777618408
150.85434700,150854347,-0.11971008777618408
150.85505500,150855055,-0.1149216815829277
150.85507700,150855077,-0.11013327538967133
150.85555500,150855555,-0.10534487664699554
150.85608000,150856080,-0.10534487664699554
150.85660200,150856602,-0.10534487664699554
150.85712700,150857127,-0.10534487664699554
150.85767600,150857676,-0.10534487664699554
150.85818400,150858184,-0.11013327538967133
150.85871000,150858710,-0.11971008777618408
150.85923200,150859232,-0.11971008777618408
150.85975800,150859758,-0.11971008777618408
150.86028800,150860288,-0.11971008777618408
150.86081400,150860814,-0.12449848651885986
150.86150000,150861500,-0.12449848651885986
150.86152200,150861522,-0.12449848651885986
150.86201600,150862016,-0.1149216815829277
150.86255200,150862552,-0.10534487664699554
150.86307700,150863077,-0.10534487664699554
150.86359800,150863598,-0.10534487664699554
150.86412300,150864123,-0.10055647045373917
150.86464900,150864649,-0.10055647045373917
150.86518000,150865180,-0.09576806426048279
150.86570900,150865709,-0.090979665517807
150.86623400,150866234,-0.09576806426048279
150.86675500,150866755,-0.10534487664699554
150.86728300,150867283,-0.11013327538967133
150.86781200,150867812,-0.1149216815829277
150.86845300,150868453,-0.11971008777618408
150.86900300,150869003,-0.11971008777618408
150.86952800,150869528,-0.11971008777618408
150.87009400,150870094,-0.11971008777618408
150.87011700,150870117,-0.11971008777618408
150.87058800,150870588,-0.1149216815829277
150.87110800,150871108,-0.1149216815829277
150.87163700,150871637,-0.1149216815829277
150.87216000,150872160,-0.11013327538967133
150.87269600,150872696,-0.1149216815829277
150.87322200,150873222,-0.11971008777618408
150.87374200,150873742,-0.11971008777618408
150.87426700,150874267,-0.1149216815829277
150.87479100,150874791,-0.1149216815829277
150.87532300,150875323,-0.11013327538967133
150.87598100,150875981,-0.1149216815829277
150.87652000,150876520,-0.12449848651885986
150.87703800,150877038,-0.12928688526153564
150.87757400,150877574,-0.12928688526153564
150.87810100,150878101,-0.12449848651885986
150.87863700,150878637,-0.11971008777618408
150.87917500,150879175,-0.11971008777618408
150.87919600,150879196,-0.1149216815829277
150.87967900,150879679,-0.1149216815829277
150.88023000,150880230,-0.1149216815829277
150.88075600,150880756,-0.11971008777618408
150.88127900,150881279,-0.12449848651885986
150.88180400,150881804,-0.12449848651885986
150.88251100,150882511,-0.11971008777618408
150.88303400,150883034,-0.11971008777618408
150.88355700,150883557,-0.11971008777618408
150.88408900,150884089,-0.11971008777618408
150.88461800,150884618,-0.11971008777618408
150.88515300,150885153,-0.12449848651885986
150.88567600,150885676,-0.11971008777618408
150.88619800,150886198,-0.11971008777618408
150.88672500,150886725,-0.11971008777618408
150.88727400,150887274,-0.12449848651885986
150.88729500,150887295,-0.11971008777618408
150.88778200,150887782,-0.11971008777618408
150.88830900,150888309,-0.11971008777618408
150.88896300,150888963,-0.11971008777618408
150.88950700,150889507,-0.11971008777618408
150.89004400,150890044,-0.11971008777618408
150.89056800,150890568,-0.11971008777618408
150.89109000,150891090,-0.11971008777618408
150.89161700,150891617,-0.1149216815829277
150.89214000,150892140,-0.11013327538967133
150.89267200,150892672,-0.11013327538967133
150.89319700,150893197,-0.11013327538967133
150.89372300,150893723,-0.1149216815829277
150.89424600,150894246,-0.1149216815829277
150.89476800,150894768,-0.1149216815829277
150.89529900,150895299,-0.1149216815829277
150.89591000,150895910,-0.11971008777618408
150.89593100,150895931,-0.11971008777618408
150.89650200,150896502,-0.11971008777618408
150.89702900,150897029,-0.12928688526153564
150.89755700,150897557,-0.12928688526153564
150.89808400,150898084,-0.11971008777618408
150.89860400,150898604,-0.11971008777618408
150.89913000,150899130,-0.1149216815829277
150.89965400,150899654,-0.1149216815829277
150.90018400,150900184,-0.1149216815829277
150.90071300,150900713,-0.1149216815829277
150.90124200,150901242,-0.1149216815829277
150.90176100,150901761,-0.1149216815829277
150.90229200,150902292,-0.12449848651885986
150.90282300,150902823,-0.12449848651885986
150.90348300,150903483,-0.11971008777618408
150.90350500,150903505,-0.11013327538967133
150.90400600,150904006,-0.10534487664699554
150.90453100,150904531,-0.10055647045373917
150.90506400,150905064,-0.10055647045373917
150.90559700,150905597,-0.10534487664699554
150.90611300,150906113,-0.10534487664699554
150.90664000,150906640,-0.10534487664699554
150.90716400,150907164,-0.10055647045373917
150.90770800,150907708,-0.10055647045373917
150.90821900,150908219,-0.10534487664699554
150.90874300,150908743,-0.11013327538967133
150.90926700,150909267,-0.11013327538967133
150.90978800,150909788,-0.1149216815829277
150.91031900,150910319,-0.1149216815829277
150.91098000,150910980,-0.1149216815829277
150.91150200,150911502,-0.11971008777618408
150.91206000,150912060,-0.12449848651885986
150.91208200,150912082,-0.12928688526153564
150.91257000,150912570,-0.12928688526153564
150.91309500,150913095,-0.12449848651885986
150.91362500,150913625,-0.11971008777618408
150.91414400,150914144,-0.11013327538967133
150.91466900,150914669,-0.09576806426048279
150.91520900,150915209,-0.090979665517807
150.91573600,150915736,-0.090979665517807
150.91625600,150916256,-0.090979665517807
150.91678100,150916781,-0.090979665517807
150.91730500,150917305,-0.090979665517807
150.91796200,150917962,-0.09576806426048279
150.91850800,150918508,-0.11013327538967133
150.91903400,150919034,-0.11971008777618408
150.91955600,150919556,-0.12449848651885986
150.92009500,150920095,-0.1149216815829277
150.92064500,150920645,-0.1149216815829277
150.92066700,150920667,-0.1149216815829277
150.92113800,150921138,-0.11971008777618408
150.92166300,150921663,-0.1149216815829277
150.92218800,150922188,-0.1149216815829277
150.92272600,150922726,-0.1149216815829277
150.92325200,150923252,-0.1149216815829277
150.92377500,150923775,-0.11013327538967133
150.92430400,150924304,-0.11013327538967133
150.92501800,150925018,-0.11013327538967133
150.92558300,150925583,-0.11013327538967133
150.92607500,150926075,-0.11971008777618408
150.92659200,150926592,-0.11971008777618408
150.92712000,150927120,-0.11971008777618408
150.92766200,150927662,-0.11971008777618408
150.92817700,150928177,-0.11971008777618408
150.92869800,150928698,-0.1149216815829277
150.92925500,150929255,-0.11013327538967133
150.92927700,150929277,-0.10055647045373917
150.92975000,150929750,-0.090979665517807
150.93029400,150930294,-0.09576806426048279
150.93081700,150930817,-0.11013327538967133
150.93147700,150931477,-0.12449848651885986
150.93200500,150932005,-0.12449848651885986
150.93255400,150932554,-0.1149216815829277
150.93306200,150933062,-0.11013327538967133
150.93358400,150933584,-0.10534487664699554
150.93411500,150934115,-0.10534487664699554
150.93463200,150934632,-0.10534487664699554
150.93517400,150935174,-0.10534487664699554
150.93569800,150935698,-0.11013327538967133
150.93622200,150936222,-0.11013327538967133
150.93674700,150936747,-0.1149216815829277
150.93727100,150937271,-0.1149216815829277
150.93780200,150937802,-0.1149216815829277
150.93851200,150938512,-0.11971008777618408
150.93853500,150938535,-0.11971008777618408
150.93903100,150939031,-0.1149216815829277
150.93955800,150939558,-0.11013327538967133
150.94009100,150940091,-0.1149216815829277
150.94061700,150940617,-0.1149216815829277
150.94113900,150941139,-0.1149216815829277
150.94166600,150941666,-0.11013327538967133
150.94219200,150942192,-0.10534487664699554
150.94273700,150942737,-0.11013327538967133
150.94326200,150943262,-0.11013327538967133
150.94378300,150943783,-0.10534487664699554
150.94430900,150944309,-0.09576806426048279
150.94504300,150945043,-0.10055647045373917
150.94506600,150945066,-0.11013327538967133
150.94554000,150945540,-0.1149216815829277
150.94605900,150946059,-0.11971008777618408
150.94659200,150946592,-0.12449848651885986
150.94711300,150947113,-0.12449848651885986
150.94766300,150947663,-0.1149216815829277
150.94817200,150948172,-0.11013327538967133
150.94869800,150948698,-0.11013327538967133
150.94921900,150949219,-0.10534487664699554
150.94974800,150949748,-0.10055647045373917
150.95027200,150950272,-0.10534487664699554
150.95080000,150950800,-0.11013327538967133
150.95150600,150951506,-0.1149216815829277
150.95152700,150951527,-0.1149216815829277
150.95200300,150952003,-0.11013327538967133
150.95254200,150952542,-0.1149216815829277
150.95307000,150953070,-0.1149216815829277
150.95359000,150953590,-0.11013327538967133
150.95412400,150954124,-0.10055647045373917
150.95464700,150954647,-0.09576806426048279
150.95518900,150955189,-0.09576806426048279
150.95571100,150955711,-0.10055647045373917
150.95623200,150956232,-0.11013327538967133
150.95675800,150956758,-0.11971008777618408
150.95728100,150957281,-0.12449848651885986
150.95781100,150957811,-0.12449848651885986
150.95851000,150958510,-0.11971008777618408
150.95903400,150959034,-0.1149216815829277
150.95958500,150959585,-0.10534487664699554
150.95960700,150959607,-0.10055647045373917
150.96009300,150960093,-0.09576806426048279
150.96061500,150960615,-0.10534487664699554
150.96114000,150961140,-0.11013327538967133
150.96166400,150961664,-0.1149216815829277
150.96218600,150962186,-0.1149216815829277
150.96273500,150962735,-0.11013327538967133
150.96326200,150963262,-0.10534487664699554
150.96378800,150963788,-0.1149216815829277
150.96431100,150964311,-0.11971008777618408
150.96501400,150965014,-0.11971008777618408
150.96554400,150965544,-0.11971008777618408
150.96606200,150966062,-0.11971008777618408
150.96659800,150966598,-0.1149216815829277
150.96712200,150967122,-0.10534487664699554
150.96768000,150967680,-0.10055647045373917
150.96770300,150967703,-0.11013327538967133
150.96817800,150968178,-0.1149216815829277
150.96870000,150968700,-0.1149216815829277
150.96922400,150969224,-0.11013327538967133
150.96975400,150969754,-0.10534487664699554
150.97028100,150970281,-0.10055647045373917
150.97081100,150970811,-0.10055647045373917
150.97147400,150971474,-0.10055647045373917
150.97202300,150972023,-0.10534487664699554
150.97255700,150972557,-0.1149216815829277
150.97308000,150973080,-0.12449848651885986
150.97360500,150973605,-0.11971008777618408
150.97413100,150974131,-0.1149216815829277
150.97465300,150974653,-0.10534487664699554
150.97518700,150975187,-0.09576806426048279
150.97571500,150975715,-0.09576806426048279
150.97626600,150976266,-0.10534487664699554
150.97629000,150976290,-0.11013327538967133
150.97676200,150976762,-0.1149216815829277
150.97728700,150977287,-0.1149216815829277
150.97782100,150977821,-0.11971008777618408
150.97850600,150978506,-0.11971008777618408
150.97902800,150979028,-0.11971008777618408
150.97955500,150979555,-0.1149216815829277
150.98008400,150980084,-0.11013327538967133
150.98061300,150980613,-0.10534487664699554
150.98113400,150981134,-0.10534487664699554
150.98166000,150981660,-0.10534487664699554
150.98218400,150982184,-0.10534487664699554
150.98272800,150982728,-0.11013327538967133
150.98325300,150983253,-0.10534487664699554
150.98377400,150983774,-0.10534487664699554
150.98430000,150984300,-0.10534487664699554
150.98504200,150985042,-0.11013327538967133
150.98506500,150985065,-0.1149216815829277
150.98556000,150985560,-0.12928688526153564
150.98606000,150986060,-0.13407529890537262
150.98658300,150986583,-0.13407529890537262
150.98710500,150987105,-0.12928688526153564
150.98765600,150987656,-0.11971008777618408
150.98817000,150988170,-0.11013327538967133
150.98869300,150988693,-0.10055647045373917
150.98921400,150989214,-0.090979665517807
150.98974000,150989740,-0.10055647045373917
150.99027100,150990271,-0.1149216815829277
150.99079700,150990797,-0.12928688526153564
150.99139500,150991395,-0.12928688526153564
150.99203700,150992037,-0.12449848651885986
150.99205800,150992058,-0.11971008777618408
150.99254300,150992543,-0.1149216815829277
150.99308000,150993080,-0.11013327538967133
150.99358800,150993588,-0.10055647045373917
150.99412400,150994124,-0.10055647045373917
150.99464400,150994644,-0.09576806426048279
150.99517700,150995177,-0.10055647045373917
150.99570200,150995702,-0.10055647045373917
150.99622500,150996225,-0.11013327538967133
150.99675100,150996751,-0.1149216815829277
150.99727300,150997273,-0.11971008777618408
150.99780700,150997807,-0.1149216815829277
150.99853300,150998533,-0.11013327538967133
150.99855600,150998556,-0.11013327538967133
150.99903000,150999030,-0.10534487664699554
150.99955500,150999555,-0.10055647045373917
151.00009100,151000091,-0.10534487664699554
151.00060900,151000609,-0.11013327538967133
151.00113600,151001136,-0.1149216815829277
151.00166400,151001664,-0.11971008777618408
151.00218600,151002186,-0.1149216815829277
151.00273800,151002738,-0.1149216815829277
151.00326200,151003262,-0.1149216815829277
151.00378800,151003788,-0.1149216815829277
151.00431300,151004313,-0.11971008777618408
151.00502500,151005025,-0.11971008777618408
151.00554600,151005546,-0.11971008777618408
151.00607000,151006070,-0.11971008777618408
151.00662800,151006628,-0.1149216815829277
151.00664900,151006649,-0.1149216815829277
151.00712500,151007125,-0.11013327538967133
151.00766800,151007668,-0.10534487664699554
151.00818200,151008182,-0.10534487664699554
151.00870300,151008703,-0.1149216815829277
151.00923000,151009230,-0.11971008777618408
151.00975000,151009750,-0.12449848651885986
151.01028300,151010283,-0.11971008777618408
151.01080600,151010806,-0.1149216815829277
151.01150300,151011503,-0.11013327538967133
151.01202900,151012029,-0.10534487664699554
151.01256200,151012562,-0.10055647045373917
151.01308600,151013086,-0.09576806426048279
151.01361100,151013611,-0.09576806426048279
151.01413600,151014136,-0.10055647045373917
151.01466200,151014662,-0.10534487664699554
151.01523700,151015237,-0.11013327538967133
151.01526000,151015260,-0.11971008777618408
151.01572100,151015721,-0.11971008777618408
151.01624400,151016244,-0.11971008777618408
151.01677200,151016772,-0.12449848651885986
151.01729300,151017293,-0.12449848651885986
151.01787800,151017878,-0.12449848651885986
151.01851100,151018511,-0.11971008777618408
151.01903600,151019036,-0.11971008777618408
151.01955800,151019558,-0.11971008777618408
151.02009900,151020099,-0.1149216815829277
151.02062000,151020620,-0.11013327538967133
151.02114200,151021142,-0.11013327538967133
151.02166800,151021668,-0.11013327538967133
151.02219100,151022191,-0.11013327538967133
151.02273400,151022734,-0.11013327538967133
151.02325900,151023259,-0.10534487664699554
151.02380900,151023809,-0.10534487664699554
151.02383000,151023830,-0.11013327538967133
151.02430800,151024308,-0.1149216815829277
151.02501800,151025018,-0.11013327538967133
151.02554500,151025545,-0.1149216815829277
151.02607300,151026073,-0.11971008777618408
151.02659500,151026595,-0.12449848651885986
151.02713600,151027136,-0.11971008777618408
151.02767100,151027671,-0.1149216815829277
151.02818900,151028189,-0.1149216815829277
151.02871000,151028710,-0.11013327538967133
151.02923500,151029235,-0.11013327538967133
151.02975700,151029757,-0.1149216815829277
151.03028700,151030287,-0.11971008777618408
151.03081200,151030812,-0.11971008777618408
151.03150000,151031500,-0.1149216815829277
151.03152200,151031522,-0.1149216815829277
151.03200700,151032007,-0.1149216815829277
151.03255600,151032556,-0.11971008777618408
151.03306500,151033065,-0.11971008777618408
151.03358700,151033587,-0.1149216815829277
151.03412100,151034121,-0.11013327538967133
151.03464400,151034644,-0.1149216815829277
151.03517800,151035178,-0.11971008777618408
151.03570100,151035701,-0.11971008777618408
151.03622200,151036222,-0.1149216815829277
151.03674700,151036747,-0.1149216815829277
151.03727100,151037271,-0.11971008777618408
151.03780600,151037806,-0.12449848651885986
151.03855400,151038554,-0.11971008777618408
151.03857700,151038577,-0.1149216815829277
151.03905000,151039050,-0.1149216815829277
151.03957300,151039573,-0.11013327538967133
151.04010500,151040105,-0.1149216815829277
151.04063200,151040632,-0.1149216815829277
151.04115300,151041153,-0.11971008777618408
151.04168000,151041680,-0.11971008777618408
151.04220000,151042200,-0.11971008777618408
151.04274300,151042743,-0.11971008777618408
151.04327300,151043273,-0.11971008777618408
151.04378700,151043787,-0.12449848651885986
151.04431500,151044315,-0.12449848651885986
151.04504900,151045049,-0.12449848651885986
151.04507100,151045071,-0.12449848651885986
151.04554300,151045543,-0.12449848651885986
151.04606400,151046064,-0.11971008777618408
151.04659600,151046596,-0.1149216815829277
151.04711900,151047119,-0.11013327538967133
151.04766800,151047668,-0.1149216815829277
151.04818200,151048182,-0.1149216815829277
151.04870300,151048703,-0.1149216815829277
151.04922700,151049227,-0.11013327538967133
151.04974900,151049749,-0.11013327538967133
151.05028500,151050285,-0.1149216815829277
151.05081300,151050813,-0.1149216815829277
151.05148100,151051481,-0.1149216815829277
151.05200700,151052007,-0.11971008777618408
151.05253700,151052537,-0.11971008777618408
151.05306500,151053065,-0.11971008777618408
151.05358800,151053588,-0.11971008777618408
151.05411500,151054115,-0.11971008777618408
151.05466200,151054662,-0.11971008777618408
151.05468500,151054685,-0.11971008777618408
151.05518400,151055184,-0.12449848651885986
151.05569500,151055695,-0.12928688526153564
151.05622000,151056220,-0.11971008777618408
151.05674800,151056748,-0.1149216815829277
151.05726800,151057268,-0.11013327538967133
151.05779900,151057799,-0.11013327538967133
151.05840300,151058403,-0.1149216815829277
151.05902000,151059020,-0.12449848651885986
151.05953900,151059539,-0.1388636976480484
151.06007500,151060075,-0.1388636976480484
151.06063400,151060634,-0.13407529890537262
151.06115200,151061152,-0.12928688526153564
151.06168300,151061683,-0.12928688526153564
151.06223300,151062233,-0.12449848651885986
151.06225400,151062254,-0.1149216815829277
151.06275200,151062752,-0.11013327538967133
151.06327800,151063278,-0.11013327538967133
151.06380300,151063803,-0.11013327538967133
151.06447500,151064475,-0.10534487664699554
151.06501400,151065014,-0.10534487664699554
151.06554300,151065543,-0.09576806426048279
151.06606200,151066062,-0.090979665517807
151.06659600,151066596,-0.10055647045373917
151.06711700,151067117,-0.11013327538967133
151.06766200,151067662,-0.11971008777618408
151.06817500,151068175,-0.11971008777618408
151.06869700,151068697,-0.11971008777618408
151.06922200,151069222,-0.11013327538967133
151.06974400,151069744,-0.10534487664699554
151.07027500,151070275,-0.10055647045373917
151.07079900,151070799,-0.09576806426048279
151.07152800,151071528,-0.09576806426048279
151.07155400,151071554,-0.10534487664699554
151.07202500,151072025,-0.1149216815829277
151.07256000,151072560,-0.11971008777618408
151.07309000,151073090,-0.1149216815829277
151.07360600,151073606,-0.11013327538967133
151.07414000,151074140,-0.10055647045373917
151.07466700,151074667,-0.10055647045373917
151.07521000,151075210,-0.10534487664699554
151.07573700,151075737,-0.11013327538967133
151.07626000,151076260,-0.10534487664699554
151.07678100,151076781,-0.11013327538967133
151.07730800,151077308,-0.1149216815829277
151.07804100,151078041,-0.1149216815829277
151.07806700,151078067,-0.1149216815829277
151.07854100,151078541,-0.1149216815829277
151.07907400,151079074,-0.11013327538967133
151.07959100,151079591,-0.10534487664699554
151.08013500,151080135,-0.10055647045373917
151.08066200,151080662,-0.10534487664699554
151.08118400,151081184,-0.10534487664699554
151.08171500,151081715,-0.10055647045373917
151.08223600,151082236,-0.10534487664699554
151.08277300,151082773,-0.11013327538967133
151.08330100,151083301,-0.1149216815829277
151.08400500,151084005,-0.1149216815829277
151.08402600,151084026,-0.1149216815829277
151.08450400,151084504,-0.11013327538967133
151.08503500,151085035,-0.11013327538967133
151.08556300,151085563,-0.1149216815829277
151.08609000,151086090,-0.1149216815829277
151.08661700,151086617,-0.1149216815829277
151.08714400,151087144,-0.1149216815829277
151.08767600,151087676,-0.11971008777618408
151.08820200,151088202,-0.11971008777618408
151.08872700,151088727,-0.11971008777618408
151.08924900,151089249,-0.12449848651885986
151.08978200,151089782,-0.1149216815829277
151.09031200,151090312,-0.10534487664699554
151.09099000,151090990,-0.10055647045373917
151.09151400,151091514,-0.09576806426048279
151.09203700,151092037,-0.10055647045373917
151.09259600,151092596,-0.10534487664699554
151.09262400,151092624,-0.11013327538967133
151.09309300,151093093,-0.1149216815829277
151.09361600,151093616,-0.1149216815829277
151.09414700,151094147,-0.11971008777618408
151.09466600,151094666,-0.12449848651885986
151.09520700,151095207,-0.11971008777618408
151.09573500,151095735,-0.1149216815829277
151.09625400,151096254,-0.1149216815829277
151.09677900,151096779,-0.11013327538967133
151.09730400,151097304,-0.11013327538967133
151.09796900,151097969,-0.11013327538967133
151.09851100,151098511,-0.1149216815829277
151.09903800,151099038,-0.12449848651885986
151.09955800,151099558,-0.12928688526153564
151.10009900,151100099,-0.12449848651885986
151.10062100,151100621,-0.11971008777618408
151.10117500,151101175,-0.11971008777618408
151.10119600,151101196,-0.11971008777618408
151.10167700,151101677,-0.11971008777618408
151.10219900,151102199,-0.11971008777618408
151.10274200,151102742,-0.11971008777618408
151.10326100,151103261,-0.11971008777618408
151.10378200,151103782,-0.1149216815829277
151.10430600,151104306,-0.10534487664699554
151.10501500,151105015,-0.10055647045373917
151.10553900,151105539,-0.10534487664699554
151.10606000,151106060,-0.11013327538967133
151.10658700,151106587,-0.10534487664699554
151.10711000,151107110,-0.10055647045373917
151.10765900,151107659,-0.09576806426048279
151.10817400,151108174,-0.09576806426048279
151.10869400,151108694,-0.10055647045373917
151.10922200,151109222,-0.10055647045373917
151.10977000,151109770,-0.09576806426048279
151.10979100,151109791,-0.10534487664699554
151.11027600,151110276,-0.11013327538967133
151.11080300,151110803,-0.1149216815829277
151.11148000,151111480,-0.11971008777618408
151.11201000,151112010,-0.11971008777618408
151.11254200,151112542,-0.11971008777618408
151.11307000,151113070,-0.12449848651885986
151.11358600,151113586,-0.12449848651885986
151.11412400,151114124,-0.12449848651885986
151.11464500,151114645,-0.11971008777618408
151.11518000,151115180,-0.1149216815829277
151.11570500,151115705,-0.11971008777618408
151.11623100,151116231,-0.1149216815829277
151.11676000,151116760,-0.1149216815829277
151.11728000,151117280,-0.11013327538967133
151.11781100,151117811,-0.11013327538967133
151.11847800,151118478,-0.10534487664699554
151.11850000,151118500,-0.10055647045373917
151.11901900,151119019,-0.10055647045373917
151.11954200,151119542,-0.10534487664699554
151.12008300,151120083,-0.11013327538967133
151.12060500,151120605,-0.1149216815829277
151.12112500,151121125,-0.11971008777618408
151.12165000,151121650,-0.11971008777618408
151.12217700,151122177,-0.11971008777618408
151.12271700,151122717,-0.1149216815829277
151.12324800,151123248,-0.11013327538967133
151.12377100,151123771,-0.11013327538967133
151.12429500,151124295,-0.11013327538967133
151.12493800,151124938,-0.11013327538967133
151.12555200,151125552,-0.11013327538967133
151.12557500,151125575,-0.11013327538967133
151.12604800,151126048,-0.1149216815829277
151.12657300,151126573,-0.1149216815829277
151.12709600,151127096,-0.1149216815829277
151.12763500,151127635,-0.1149216815829277
151.12816100,151128161,-0.1149216815829277
151.12868400,151128684,-0.11971008777618408
151.12920800,151129208,-0.12449848651885986
151.12972800,151129728,-0.12928688526153564
151.13026200,151130262,-0.12928688526153564
151.13079000,151130790,-0.11971008777618408
151.13131400,151131314,-0.11013327538967133
151.13195900,151131959,-0.10534487664699554
151.13256200,151132562,-0.10534487664699554
151.13259000,151132590,-0.10534487664699554
151.13303600,151133036,-0.10534487664699554
151.13355900,151133559,-0.10534487664699554
151.13408500,151134085,-0.11013327538967133
151.13460600,151134606,-0.1149216815829277
151.13514500,151135145,-0.11971008777618408
151.13567000,151135670,-0.11971008777618408
151.13619900,151136199,-0.11971008777618408
151.13672000,151136720,-0.11971008777618408
151.13724400,151137244,-0.11971008777618408
151.13777500,151137775,-0.1149216815829277
151.13830200,151138302,-0.1149216815829277
151.13897400,151138974,-0.1149216815829277
151.13951000,151139510,-0.11971008777618408
151.14004300,151140043,-0.11971008777618408
151.14057000,151140570,-0.11971008777618408
151.14111800,151141118,-0.12449848651885986
151.14113900,151141139,-0.12449848651885986
151.14161600,151141616,-0.1149216815829277
151.14214100,151142141,-0.10534487664699554
151.14267800,151142678,-0.11013327538967133
151.14320300,151143203,-0.11013327538967133
151.14372200,151143722,-0.1149216815829277
151.14424800,151144248,-0.1149216815829277
151.14477600,151144776,-0.1149216815829277
151.14531200,151145312,-0.11971008777618408
151.14595500,151145955,-0.12449848651885986
151.14650300,151146503,-0.11971008777618408
151.14702600,151147026,-0.11971008777618408
151.14755800,151147558,-0.1149216815829277
151.14808600,151148086,-0.1149216815829277
151.14861100,151148611,-0.11013327538967133
151.14913500,151149135,-0.11013327538967133
151.14965800,151149658,-0.1149216815829277
151.15020500,151150205,-0.1149216815829277
151.15074000,151150740,-0.1149216815829277
151.15076400,151150764,-0.1149216815829277
151.15123700,151151237,-0.11971008777618408
151.15176200,151151762,-0.1149216815829277
151.15228700,151152287,-0.1149216815829277
151.15281800,151152818,-0.1149216815829277
151.15348100,151153481,-0.11013327538967133
151.15400500,151154005,-0.10534487664699554
151.15452900,151154529,-0.11013327538967133
151.15506200,151155062,-0.1149216815829277
151.15558600,151155586,-0.1149216815829277
151.15610700,151156107,-0.11013327538967133
151.15663100,151156631,-0.11013327538967133
151.15715700,151157157,-0.11013327538967133
151.15769200,151157692,-0.11013327538967133
151.15821300,151158213,-0.11013327538967133
151.15873700,151158737,-0.10534487664699554
151.15926100,151159261,-0.10534487664699554
151.15978300,151159783,-0.10534487664699554
151.16034300,151160343,-0.11013327538967133
151.16036500,151160365,-0.1149216815829277
151.16096000,151160960,-0.11971008777618408
151.16152000,151161520,-0.11971008777618408
151.16203700,151162037,-0.1149216815829277
151.16256900,151162569,-0.1149216815829277
151.16310200,151163102,-0.1149216815829277
151.16362000,151163620,-0.11971008777618408
151.16415100,151164151,-0.11971008777618408
151.16467800,151164678,-0.11013327538967133
151.16522700,151165227,-0.10534487664699554
151.16575100,151165751,-0.10534487664699554
151.16627300,151166273,-0.10534487664699554
151.16679900,151166799,-0.11013327538967133
151.16754100,151167541,-0.11971008777618408
151.16756600,151167566,-0.12449848651885986
151.16803900,151168039,-0.12449848651885986
151.16855900,151168559,-0.12449848651885986
151.16908700,151169087,-0.11971008777618408
151.16960900,151169609,-0.11013327538967133
151.17014400,151170144,-0.10534487664699554
151.17067100,151170671,-0.10055647045373917
151.17119300,151171193,-0.09576806426048279
151.17171900,151171719,-0.09576806426048279
151.17224400,151172244,-0.10534487664699554
151.17277400,151172774,-0.11013327538967133
151.17330200,151173302,-0.1149216815829277
151.17403300,151174033,-0.1149216815829277
151.17405400,151174054,-0.1149216815829277
151.17453000,151174530,-0.11013327538967133
151.17506300,151175063,-0.10534487664699554
151.17559000,151175590,-0.10534487664699554
151.17610900,151176109,-0.11013327538967133
151.17663800,151176638,-0.11971008777618408
151.17716300,151177163,-0.12449848651885986
151.17771100,151177711,-0.11971008777618408
151.17823200,151178232,-0.1149216815829277
151.17875600,151178756,-0.1149216815829277
151.17928100,151179281,-0.1149216815829277
151.17980200,151179802,-0.10534487664699554
151.18048700,151180487,-0.10055647045373917
151.18101200,151181012,-0.10055647045373917
151.18153900,151181539,-0.10055647045373917
151.18208300,151182083,-0.10055647045373917
151.18210600,151182106,-0.10055647045373917
151.18259300,151182593,-0.10055647045373917
151.18311700,151183117,-0.10055647045373917
151.18363700,151183637,-0.10534487664699554
151.18416300,151184163,-0.11013327538967133
151.18468500,151184685,-0.11013327538967133
151.18522500,151185225,-0.1149216815829277
151.18575200,151185752,-0.1149216815829277
151.18627500,151186275,-0.11013327538967133
151.18680100,151186801,-0.11013327538967133
151.18751500,151187515,-0.11013327538967133
151.18807100,151188071,-0.11013327538967133
151.18859200,151188592,-0.1149216815829277
151.18913100,151189131,-0.11971008777618408
151.18967600,151189676,-0.1149216815829277
151.18969700,151189697,-0.11013327538967133
151.19019200,151190192,-0.11013327538967133
151.19071600,151190716,-0.1149216815829277
151.19123600,151191236,-0.1149216815829277
151.19177200,151191772,-0.11971008777618408
151.19228500,151192285,-0.11971008777618408
151.19281800,151192818,-0.1149216815829277
151.19350700,151193507,-0.11013327538967133
151.19403000,151194030,-0.10534487664699554
151.19455200,151194552,-0.11013327538967133
151.19508700,151195087,-0.1149216815829277
151.19564800,151195648,-0.1149216815829277
151.19617100,151196171,-0.10534487664699554
151.19669900,151196699,-0.10055647045373917
151.19724700,151197247,-0.10055647045373917
151.19726800,151197268,-0.10534487664699554
151.19775100,151197751,-0.11013327538967133
151.19828000,151198280,-0.1149216815829277
151.19880700,151198807,-0.11013327538967133
151.19947500,151199475,-0.10534487664699554
151.20002900,151200029,-0.10055647045373917
151.20055300,151200553,-0.10055647045373917
151.20108000,151201080,-0.10534487664699554
151.20160100,151201601,-0.11013327538967133
151.20212600,151202126,-0.11971008777618408
151.20266800,151202668,-0.11971008777618408
151.20319600,151203196,-0.12449848651885986
151.20371100,151203711,-0.12449848651885986
151.20424800,151204248,-0.11971008777618408
151.20477200,151204772,-0.11971008777618408
151.20530900,151205309,-0.11971008777618408
151.20603200,151206032,-0.12928688526153564
151.20605400,151206054,-0.12928688526153564
151.20652900,151206529,-0.11971008777618408
151.20705500,151207055,-0.1149216815829277
151.20758800,151207588,-0.10534487664699554
151.20811200,151208112,-0.11013327538967133
151.20863100,151208631,-0.11013327538967133
151.20915600,151209156,-0.11013327538967133
151.20967900,151209679,-0.10534487664699554
151.21021800,151210218,-0.10534487664699554
151.21075300,151210753,-0.11013327538967133
151.21127500,151211275,-0.11971008777618408
151.21180200,151211802,-0.12449848651885986
151.21253900,151212539,-0.1149216815829277
151.21256300,151212563,-0.11013327538967133
151.21304200,151213042,-0.11013327538967133
151.21356400,151213564,-0.10534487664699554
151.21408500,151214085,-0.10055647045373917
151.21461000,151214610,-0.10055647045373917
151.21515500,151215155,-0.10055647045373917
151.21567200,151215672,-0.10534487664699554
151.21619100,151216191,-0.1149216815829277
151.21671600,151216716,-0.12449848651885986
151.21723900,151217239,-0.12449848651885986
151.21777000,151217770,-0.11971008777618408
151.21829300,151218293,-0.12449848651885986
151.21881400,151218814,-0.11971008777618408
151.21953100,151219531,-0.11971008777618408
151.21955200,151219552,-0.1149216815829277
151.22003500,151220035,-0.1149216815829277
151.22056000,151220560,-0.1149216815829277
151.22108300,151221083,-0.11013327538967133
151.22161200,151221612,-0.11013327538967133
151.22213900,151222139,-0.1149216815829277
151.22267200,151222672,-0.11971008777618408
151.22319900,151223199,-0.1149216815829277
151.22373000,151223730,-0.11013327538967133
151.22425000,151224250,-0.10534487664699554
151.22477800,151224778,-0.09576806426048279
151.22530600,151225306,-0.10055647045373917
151.22601300,151226013,-0.10534487664699554
151.22653400,151226534,-0.11013327538967133
151.22708100,151227081,-0.11013327538967133
151.22710200,151227102,-0.11013327538967133
151.22758800,151227588,-0.11013327538967133
151.22811200,151228112,-0.1149216815829277
151.22863500,151228635,-0.11971008777618408
151.22915900,151229159,-0.12449848651885986
151.22968500,151229685,-0.12928688526153564
151.23023100,151230231,-0.12928688526153564
151.23075300,151230753,-0.11971008777618408
151.23127500,151231275,-0.1149216815829277
151.23179800,151231798,-0.11013327538967133
151.23251900,151232519,-0.1149216815829277
151.23304300,151233043,-0.12449848651885986
151.23356300,151233563,-0.12449848651885986
151.23409300,151234093,-0.1149216815829277
151.23461200,151234612,-0.11013327538967133
151.23516300,151235163,-0.11013327538967133
151.23570300,151235703,-0.11013327538967133
151.23572600,151235726,-0.1149216815829277
151.23620400,151236204,-0.1149216815829277
151.23672400,151236724,-0.1149216815829277
151.23724800,151237248,-0.11013327538967133
151.23777800,151237778,-0.11013327538967133
151.23830600,151238306,-0.11013327538967133
151.23900100,151239001,-0.1149216815829277
151.23952800,151239528,-0.11013327538967133
151.24006300,151240063,-0.1149216815829277
151.24062300,151240623,-0.11971008777618408
151.24114600,151241146,-0.12449848651885986
151.24167100,151241671,-0.12449848651885986
151.24219400,151242194,-0.12449848651885986
151.24276600,151242766,-0.12928688526153564
151.24279000,151242790,-0.12449848651885986
151.24326400,151243264,-0.11971008777618408
151.24378700,151243787,-0.11971008777618408
151.24431500,151244315,-0.12449848651885986
151.24500800,151245008,-0.11971008777618408
151.24553400,151245534,-0.11971008777618408
151.24605600,151246056,-0.11971008777618408
151.24659300,151246593,-0.11971008777618408
151.24711300,151247113,-0.11971008777618408
151.24766500,151247665,-0.1149216815829277
151.24817900,151248179,-0.1149216815829277
151.24870600,151248706,-0.1149216815829277
151.24922700,151249227,-0.1149216815829277
151.24975300,151249753,-0.1149216815829277
151.25028200,151250282,-0.11013327538967133
151.25080800,151250808,-0.11013327538967133
151.25152400,151251524,-0.10534487664699554
151.25154700,151251547,-0.10055647045373917
151.25202200,151252022,-0.10055647045373917
151.25255600,151252556,-0.10534487664699554
151.25308600,151253086,-0.11013327538967133
151.25360600,151253606,-0.1149216815829277
151.25413400,151254134,-0.11971008777618408
151.25465700,151254657,-0.12928688526153564
151.25520200,151255202,-0.13407529890537262
151.25571900,151255719,-0.12928688526153564
151.25623900,151256239,-0.12449848651885986
151.25676500,151256765,-0.1149216815829277
151.25728900,151257289,-0.1149216815829277
151.25781900,151257819,-0.1149216815829277
151.25853300,151258533,-0.11971008777618408
151.25855500,151258555,-0.11971008777618408
151.25902800,151259028,-0.12449848651885986
151.25955200,151259552,-0.11971008777618408
151.26008600,151260086,-0.11971008777618408
151.26061600,151260616,-0.12449848651885986
151.26114600,151261146,-0.11971008777618408
151.26166300,151261663,-0.1149216815829277
151.26219000,151262190,-0.11013327538967133
151.26274100,151262741,-0.11013327538967133
151.26326700,151263267,-0.11013327538967133
151.26379000,151263790,-0.10534487664699554
151.26431500,151264315,-0.10055647045373917
151.26503900,151265039,-0.10534487664699554
151.26506600,151265066,-0.11013327538967133
151.26553300,151265533,-0.1149216815829277
151.26605700,151266057,-0.11971008777618408
151.26659000,151266590,-0.11971008777618408
151.26710700,151267107,-0.1149216815829277
151.26766500,151267665,-0.1149216815829277
151.26817600,151268176,-0.1149216815829277
151.26869700,151268697,-0.11971008777618408
151.26922300,151269223,-0.12449848651885986
151.26974900,151269749,-0.12449848651885986
151.27027900,151270279,-0.11971008777618408
151.27080400,151270804,-0.11013327538967133
151.27150200,151271502,-0.10534487664699554
151.27202500,151272025,-0.11013327538967133
151.27255900,151272559,-0.1149216815829277
151.27311300,151273113,-0.12449848651885986
151.27313600,151273136,-0.12928688526153564
151.27361400,151273614,-0.12449848651885986
151.27413500,151274135,-0.11971008777618408
151.27465900,151274659,-0.1149216815829277
151.27520200,151275202,-0.1149216815829277
151.27572500,151275725,-0.12928688526153564
151.27624800,151276248,-0.1388636976480484
151.27677300,151276773,-0.13407529890537262
151.27729600,151277296,-0.12449848651885986
151.27789500,151277895,-0.11971008777618408
151.27851800,151278518,-0.11013327538967133
151.27904600,151279046,-0.10055647045373917
151.27956600,151279566,-0.10055647045373917
151.28010200,151280102,-0.10055647045373917
151.28062400,151280624,-0.10055647045373917
151.28114500,151281145,-0.10534487664699554
151.28169900,151281699,-0.1149216815829277
151.28172200,151281722,-0.1149216815829277
151.28219800,151282198,-0.10534487664699554
151.28274500,151282745,-0.10055647045373917
151.28327300,151283273,-0.10534487664699554
151.28379600,151283796,-0.10534487664699554
151.28440100,151284401,-0.11013327538967133
151.28501700,151285017,-0.1149216815829277
151.28558000,151285580,-0.11971008777618408
151.28606600,151286066,-0.11971008777618408
151.28659300,151286593,-0.12449848651885986
151.28711500,151287115,-0.12928688526153564
151.28766100,151287661,-0.13407529890537262
151.28817500,151288175,-0.13407529890537262
151.28869400,151288694,-0.13407529890537262
151.28921900,151289219,-0.12928688526153564
151.28974700,151289747,-0.12928688526153564
151.29030200,151290302,-0.12928688526153564
151.29032600,151290326,-0.12449848651885986
151.29080300,151290803,-0.1149216815829277
151.29150400,151291504,-0.1149216815829277
151.29202900,151292029,-0.1149216815829277
151.29256200,151292562,-0.11971008777618408
151.29308500,151293085,-0.12449848651885986
151.29360500,151293605,-0.11971008777618408
151.29413600,151294136,-0.1149216815829277
151.29465600,151294656,-0.10534487664699554
151.29520600,151295206,-0.10534487664699554
151.29572000,151295720,-0.1149216815829277
151.29624400,151296244,-0.11971008777618408
151.29677100,151296771,-0.11971008777618408
151.29729000,151297290,-0.1149216815829277
151.29782300,151297823,-0.1149216815829277
151.29855200,151298552,-0.12449848651885986
151.29857400,151298574,-0.12449848651885986
151.29905000,151299050,-0.12449848651885986
151.29957700,151299577,-0.12449848651885986
151.30011300,151300113,-0.11971008777618408
151.30063600,151300636,-0.11971008777618408
151.30116000,151301160,-0.11971008777618408
151.30168300,151301683,-0.11971008777618408
151.30220500,151302205,-0.11971008777618408
151.30274800,151302748,-0.12449848651885986
151.30327800,151303278,-0.12449848651885986
151.30379600,151303796,-0.12449848651885986
151.30440100,151304401,-0.11971008777618408
151.30504900,151305049,-0.1149216815829277
151.30507500,151305075,-0.11971008777618408
151.30554800,151305548,-0.12449848651885986
151.30606900,151306069,-0.12928688526153564
151.30660500,151306605,-0.12928688526153564
151.30712800,151307128,-0.12449848651885986
151.30768000,151307680,-0.11971008777618408
151.30818800,151308188,-0.1149216815829277
151.30871500,151308715,-0.11971008777618408
151.30923600,151309236,-0.11971008777618408
151.30976200,151309762,-0.11971008777618408
