timestamp,TimeUS,I,GyrX,GyrY,GyrZ,AccX,AccY,AccZ,EG,EA,T,GH,AH,GHz,AHz
153.47284100,153472841,0,0.006051794160157442,0.010182344354689121,-0.0004983991384506226,2.9855008125305176,0.9970157742500305,-9.1646728515625,0,0,32.50873565673828,1,1,1528,190
153.52408900,153524089,0,0.00662265345454216,0.010315111838281155,-0.0028932001441717148,2.972541332244873,1.0048561096191406,-9.168354988098145,0,0,32.50832748413086,1,1,1528,190
153.52681900,153526819,0,0.007945448160171509,0.012601100839674473,-0.003113076090812683,2.9745423793792725,1.007262945175171,-9.165395736694336,0,0,32.50836181640625,1,1,1528,190
153.55684400,153556844,0,0.00901633221656084,0.010388441383838654,-0.002675536787137389,2.987894296646118,1.0060946941375732,-9.173718452453613,0,0,32.50846862792969,1,1,1528,190
153.55908200,153559082,0,0.009934922680258751,0.009590435773134232,-0.004084007348865271,2.987166166305542,1.005962610244751,-9.172938346862793,0,0,32.508453369140625,1,1,1528,190
153.56203700,153562037,0,0.007226836401969194,0.007476100232452154,-0.003500287653878331,2.984879493713379,1.0051506757736206,-9.171713829040527,0,0,32.50843048095703,1,1,1528,190
153.58683300,153586833,0,0.006867800373584032,0.008849005214869976,-0.0013189635938033462,2.9899165630340576,0.9986840486526489,-9.174910545349121,0,0,32.50836944580078,1,1,1528,190
153.58912100,153589121,0,0.0066015832126140594,0.00845534261316061,-0.0023642200976610184,2.993605136871338,0.9994572401046753,-9.175490379333496,0,0,32.508392333984375,1,1,1528,190
153.59182300,153591823,0,0.0057493532076478004,0.007832898758351803,-0.0010551067534834146,2.9970920085906982,0.9997326135635376,-9.175149917602539,0,0,32.50843811035156,1,1,1528,190
153.62198600,153621986,0,0.00827830284833908,0.010102068074047565,-0.0028419485315680504,2.969667911529541,1.0162326097488403,-9.147897720336914,0,0,32.50893020629883,1,1,1528,190
153.62407100,153624071,0,0.006008376833051443,0.011857463046908379,-0.0026702415198087692,2.9685661792755127,1.015560507774353,-9.141356468200684,0,0,32.508975982666016,1,1,1528,190
153.62682500,153626825,0,0.006240903399884701,0.013201003894209862,-0.0038092636968940496,2.966482400894165,1.011802315711975,-9.138748168945312,0,0,32.50902557373047,1,1,1528,190
153.65182600,153651826,0,0.005494067911058664,0.0073914132080972195,-0.002240428701043129,2.9743564128875732,1.0052413940429688,-9.169893264770508,0,0,32.509315490722656,1,1,1528,190
153.65408200,153654082,0,0.005617756396532059,0.006812467239797115,-0.002351398579776287,2.975008010864258,1.0095210075378418,-9.173080444335938,0,0,32.509334564208984,1,1,1528,190
153.65685100,153656851,0,0.0068164304830133915,0.005689237732440233,-0.0012356467777863145,2.9757697582244873,1.0112632513046265,-9.175633430480957,0,0,32.50936508178711,1,1,1528,190
153.70182400,153701824,0,0.007224241271615028,0.008090546354651451,-0.0005604263278655708,2.9886832237243652,0.9952864646911621,-9.180610656738281,0,0,32.51043701171875,1,1,1528,190
153.70408300,153704083,0,0.006822539493441582,0.009203527122735977,-0.0014077380765229464,2.988929271697998,0.9976422786712646,-9.187393188476562,0,0,32.5105094909668,1,1,1528,190
153.70681800,153706818,0,0.006255017127841711,0.010479170829057693,-0.0006465640035457909,2.989147186279297,1.0038014650344849,-9.193249702453613,0,0,32.51062774658203,1,1,1528,190
153.73408500,153734085,0,0.007778977043926716,0.013408001512289047,-0.002014418598264456,2.9833438396453857,1.0094505548477173,-9.161809921264648,0,0,32.51194381713867,1,1,1528,190
153.73684100,153736841,0,0.009459716267883778,0.015748025849461555,-0.0034842141903936863,2.9870078563690186,1.0072892904281616,-9.157508850097656,0,0,32.5120849609375,1,1,1528,190
153.73908800,153739088,0,0.008677706122398376,0.013256441801786423,-0.002990913111716509,2.9906601905822754,1.0055824518203735,-9.15728759765625,0,0,32.512176513671875,1,1,1528,190
153.76681900,153766819,0,0.006955884397029877,0.00920063629746437,-0.003076698863878846,2.99051570892334,1.0118461847305298,-9.181174278259277,0,0,32.5136604309082,1,1,1528,190
153.76914500,153769145,0,0.007955865934491158,0.008430978283286095,-0.0017971901688724756,2.9924395084381104,1.0140531063079834,-9.177178382873535,0,0,32.51375198364258,1,1,1528,190
153.77181200,153771812,0,0.007025287952274084,0.007360287941992283,-0.0010307451011613011,2.9944562911987305,1.015456199645996,-9.173308372497559,0,0,32.513893127441406,1,1,1528,190
153.80183100,153801831,0,0.005556711461395025,0.006911309901624918,-0.0011487242300063372,2.975877523422241,0.9853481650352478,-9.173521041870117,0,0,32.5153694152832,1,1,1528,190
153.80408100,153804081,0,0.004823613446205854,0.006590919569134712,-0.0005618944996967912,2.9799957275390625,0.9878884553909302,-9.172063827514648,0,0,32.51551818847656,1,1,1528,190
153.80683700,153806837,0,0.005367428530007601,0.006925136782228947,4.0588463889434934e-05,2.9880177974700928,0.9900522828102112,-9.170965194702148,0,0,32.51565933227539,1,1,1528,190
153.83181900,153831819,0,0.006834974978119135,0.011019784025847912,-0.001445037662051618,2.9891886711120605,1.002610445022583,-9.179227828979492,0,0,32.51673126220703,1,1,1528,190
153.83407000,153834070,0,0.007087780628353357,0.010026104748249054,-0.002673271344974637,2.991926908493042,1.0001717805862427,-9.182543754577637,0,0,32.51680374145508,1,1,1528,190
153.83682600,153836826,0,0.006447535008192062,0.010371193289756775,-0.0020888240542262793,2.9936273097991943,0.9964368343353271,-9.184415817260742,0,0,32.516902923583984,1,1,1528,190
153.83908100,153839081,0,0.006960409227758646,0.010401143692433834,-0.00167341239284724,2.993093967437744,0.9953973293304443,-9.182400703430176,0,0,32.516971588134766,1,1,1528,190
153.86181900,153861819,0,0.006325628608465195,0.010231253691017628,-0.0013820065651088953,2.9903244972229004,0.9944899082183838,-9.155686378479004,0,0,32.51765060424805,1,1,1528,190
153.86407300,153864073,0,0.0064874556846916676,0.009655160829424858,-0.00197033048607409,2.986400604248047,0.9950741529464722,-9.158926963806152,0,0,32.517696380615234,1,1,1528,190
153.86681700,153866817,0,0.007290511392056942,0.007230702787637711,-0.0020964161958545446,2.9808671474456787,0.9947296380996704,-9.167742729187012,0,0,32.517765045166016,1,1,1528,190
153.86909700,153869097,0,0.006952847819775343,0.007888153195381165,-0.002087084809318185,2.976696729660034,0.9937653541564941,-9.174455642700195,0,0,32.5178108215332,1,1,1528,190
153.89407800,153894078,0,0.004563555587083101,0.0060401191003620625,-0.0005450243479572237,2.976510524749756,1.011338472366333,-9.174823760986328,0,0,32.518348693847656,1,1,1528,190
153.89684000,153896840,0,0.006840955000370741,0.006994232069700956,-0.0014699572930112481,2.9779202938079834,1.014486312866211,-9.169132232666016,0,0,32.51840591430664,1,1,1528,190
153.89908300,153899083,0,0.00832371599972248,0.007371888961642981,-0.000986057915724814,2.9791436195373535,1.015858769416809,-9.166803359985352,0,0,32.51844024658203,1,1,1528,190
153.90204200,153902042,0,0.008565962314605713,0.00824572704732418,-0.0007992361788637936,2.980386972427368,1.0170061588287354,-9.162959098815918,0,0,32.518516540527344,1,1,1528,190
153.92910500,153929105,0,0.006911982782185078,0.013729220256209373,-0.003028399311006069,2.992816209793091,1.0131968259811401,-9.181833267211914,0,0,32.51902770996094,1,1,1528,190
153.93181400,153931814,0,0.007811120245605707,0.016444824635982513,-0.0016340877627953887,2.9928979873657227,1.014224648475647,-9.180521965026855,0,0,32.51906204223633,1,1,1528,190
153.93406900,153934069,0,0.006439888849854469,0.015894265845417976,-0.0008250043028965592,2.992401599884033,1.0155868530273438,-9.176705360412598,0,0,32.51908493041992,1,1,1528,190
153.93684300,153936843,0,0.00490949023514986,0.013871311210095882,-0.001127369119785726,2.9923877716064453,1.0146757364273071,-9.172417640686035,0,0,32.519107818603516,1,1,1528,190
153.93908100,153939081,0,0.006355430465191603,0.013945545069873333,-0.000672302907332778,2.9932749271392822,1.0119240283966064,-9.169500350952148,0,0,32.51914596557617,1,1,1528,190
153.96184600,153961846,0,0.006055589299649,0.0065820408053696156,0.0010625155409798026,3.009721517562866,1.0048984289169312,-9.15615463256836,0,0,32.51956558227539,1,1,1528,190
153.96409200,153964092,0,0.005347643047571182,0.007100803777575493,0.0008859271183609962,3.01035737991333,1.002480149269104,-9.161840438842773,0,0,32.519596099853516,1,1,1528,190
153.96684100,153966841,0,0.006510746665298939,0.005039070267230272,-0.0011243738699704409,3.008260488510132,1.000706672668457,-9.171116828918457,0,0,32.519615173339844,1,1,1528,190
153.96912400,153969124,0,0.006833474617451429,0.004355642478913069,-0.0018466137116774917,3.0055418014526367,1.0004351139068604,-9.175292015075684,0,0,32.519630432128906,1,1,1528,190
153.97181700,153971817,0,0.0074453274719417095,0.005327691324055195,-0.002585453912615776,3.0009090900421143,1.0019452571868896,-9.178014755249023,0,0,32.5196533203125,1,1,1528,190
153.99919200,153999192,0,0.0052185459062457085,0.0044694324024021626,-0.0018843772122636437,2.9835522174835205,0.9934914112091064,-9.173768043518066,0,0,32.51984786987305,1,1,1528,190
154.00182200,154001822,0,0.006014870014041662,0.006665382534265518,-0.003305015852674842,2.982102155685425,0.9892159104347229,-9.178447723388672,0,0,32.51987075805664,1,1,1528,190
154.00408300,154004083,0,0.006305575370788574,0.008665723726153374,-0.00213175592944026,2.9813742637634277,0.9876081943511963,-9.179862976074219,0,0,32.51988220214844,1,1,1528,190
154.00681200,154006812,0,0.008421240374445915,0.007799304556101561,-0.0037024416960775852,2.9809024333953857,0.9852985143661499,-9.177726745605469,0,0,32.51990509033203,1,1,1528,190
154.00925200,154009252,0,0.008035111241042614,0.007717135827988386,-0.00431595416739583,2.978813409805298,0.9830344319343567,-9.175427436828613,0,0,32.51991271972656,1,1,1528,190
154.03683600,154036836,0,0.005539564415812492,0.014855318702757359,-0.0018393354257568717,2.9756553173065186,1.0191819667816162,-9.183695793151855,0,0,32.520179748535156,1,1,1528,190
154.03904600,154039046,0,0.005853149574249983,0.014659128151834011,-0.0001976846542675048,2.978672981262207,1.0179158449172974,-9.178000450134277,0,0,32.52019500732422,1,1,1528,190
154.04182100,154041821,0,0.00626808637753129,0.015580931678414345,6.364555247273529e-06,2.9831347465515137,1.018336534500122,-9.169803619384766,0,0,32.52020263671875,1,1,1528,190
154.04404000,154044040,0,0.005901101510971785,0.015971357002854347,-0.0008653817931190133,2.9847724437713623,1.01826012134552,-9.166666984558105,0,0,32.52019500732422,1,1,1528,190
154.04685900,154046859,0,0.007426811847835779,0.016566185280680656,-0.0022658410016447306,2.9871826171875,1.0155694484710693,-9.166402816772461,0,0,32.52019500732422,1,1,1528,190
154.08912200,154089122,0,0.007077513262629509,0.005041202995926142,-0.0001496121403761208,3.000248670578003,0.9983351230621338,-9.153996467590332,0,0,32.5201530456543,1,1,1528,190
154.09182000,154091820,0,0.006716430652886629,0.005247564986348152,-0.0007669087499380112,3.0034890174865723,1.001895546913147,-9.160106658935547,0,0,32.520137786865234,1,1,1528,190
154.09403800,154094038,0,0.00852137804031372,0.005862084683030844,-0.000852474186103791,3.0039610862731934,1.0059871673583984,-9.166536331176758,0,0,32.52012252807617,1,1,1528,190
154.09684600,154096846,0,0.006848897784948349,0.00438763527199626,-0.0024837276432663202,3.001401901245117,1.0120455026626587,-9.171259880065918,0,0,32.52009582519531,1,1,1528,190
154.09906400,154099064,0,0.004869851749390364,0.004481990355998278,-0.0006531763356178999,2.9984841346740723,1.0146708488464355,-9.171113967895508,0,0,32.52008056640625,1,1,1528,190
154.13722300,154137223,0,0.007411830592900515,0.010634989477694035,-0.001694534788839519,2.9896390438079834,0.9945036768913269,-9.18067741394043,0,0,32.52006912231445,1,1,1529,191
154.13993400,154139934,0,0.008003043942153454,0.011962545104324818,-0.0017987758619710803,2.9906110763549805,0.9975096583366394,-9.176285743713379,0,0,32.520084381103516,1,1,1529,191
154.14217100,154142171,0,0.007215795572847128,0.012138914316892624,-0.0021401126869022846,2.9901349544525146,0.9992275238037109,-9.174129486083984,0,0,32.52008819580078,1,1,1529,191
154.14493100,154144931,0,0.005269109271466732,0.012602613307535648,-0.002834934275597334,2.9891443252563477,1.0019985437393188,-9.169999122619629,0,0,32.52009201049805,1,1,1529,191
154.14716900,154147169,0,0.006316062528640032,0.01460075844079256,-0.0028016476426273584,2.9886474609375,1.005055546760559,-9.169002532958984,0,0,32.52009201049805,1,1,1529,191
154.14995900,154149959,0,0.006262506358325481,0.015207321383059025,-0.0018527370411902666,2.9882068634033203,1.0107420682907104,-9.169241905212402,0,0,32.52008056640625,1,1,1529,191
154.18722000,154187220,0,0.007349970750510693,0.009411022998392582,9.385683370055631e-05,2.986891508102417,0.9961304664611816,-9.169014930725098,0,0,32.52018356323242,1,1,1529,191
154.18998500,154189985,0,0.005878004245460033,0.006954621989279985,-0.0001311510568484664,2.9885034561157227,0.9986316561698914,-9.169305801391602,0,0,32.52016067504883,1,1,1529,191
154.19220000,154192200,0,0.0067460727877914906,0.007386987563222647,-0.0013547182315960526,2.9899020195007324,1.0001567602157593,-9.169852256774902,0,0,32.52013397216797,1,1,1529,191
154.19493200,154194932,0,0.00559635367244482,0.0063603888265788555,-0.003510260721668601,2.9919395446777344,1.0031712055206299,-9.169207572937012,0,0,32.520050048828125,1,1,1529,191
154.19723800,154197238,0,0.006427822168916464,0.006616413593292236,-0.0025904346257448196,2.9934706687927246,1.0042108297348022,-9.167108535766602,0,0,32.51999282836914,1,1,1529,191
154.19993100,154199931,0,0.00741287786513567,0.006180723197758198,-0.0026536695659160614,2.995129346847534,1.006930947303772,-9.161277770996094,0,0,32.519901275634766,1,1,1529,191
154.23515800,154235158,0,0.0052222502417862415,0.007125316187739372,-0.0014219587901607156,2.982174873352051,1.0030466318130493,-9.192699432373047,0,0,32.51899337768555,1,1,1529,191
154.23779400,154237794,0,0.0070252553559839725,0.008159571327269077,-0.002281795721501112,2.9800617694854736,1.0039211511611938,-9.191786766052246,0,0,32.51895523071289,1,1,1529,191
154.24069500,154240695,0,0.009023425169289112,0.01043405570089817,-0.0019305433379486203,2.9761962890625,1.005187749862671,-9.18935775756836,0,0,32.518882751464844,1,1,1529,191
154.24326500,154243265,0,0.008018998429179192,0.012962006032466888,-0.0036709283012896776,2.975569009780884,1.0060831308364868,-9.182531356811523,0,0,32.518798828125,1,1,1529,191
154.24580500,154245805,0,0.007301791571080685,0.014565862715244293,-0.003249869681894779,2.974881172180176,1.0069451332092285,-9.176231384277344,0,0,32.518733978271484,1,1,1529,191
154.24801100,154248011,0,0.0069854785688221455,0.014684280380606651,-0.002512444043532014,2.974538803100586,1.0068302154541016,-9.176703453063965,0,0,32.5186882019043,1,1,1529,191
154.28532900,154285329,0,0.007066173013299704,0.009495197795331478,-0.0021987883374094963,2.976392984390259,1.0144147872924805,-9.156246185302734,0,0,32.517822265625,1,1,1529,191
154.28817500,154288175,0,0.007296623662114143,0.009249642491340637,-0.0010394318960607052,2.9800021648406982,1.0138278007507324,-9.153762817382812,0,0,32.51779556274414,1,1,1529,191
154.29093500,154290935,0,0.006274720653891563,0.008236918598413467,-0.0004100606602150947,2.9841930866241455,1.0113970041275024,-9.153076171875,0,0,32.51778793334961,1,1,1529,191
154.29331400,154293314,0,0.006547481752932072,0.0075714243575930595,0.00044694257667288184,2.9856812953948975,1.010244607925415,-9.155326843261719,0,0,32.517791748046875,1,1,1529,191
154.29616900,154296169,0,0.006251847371459007,0.00629624305292964,0.000947820080909878,2.986872673034668,1.0085581541061401,-9.15615463256836,0,0,32.517822265625,1,1,1529,191
154.29894300,154298943,0,0.006243376061320305,0.0042114597745239735,-0.0004801276954822242,2.9845879077911377,1.0070290565490723,-9.15326976776123,0,0,32.51787567138672,1,1,1529,191
154.33645000,154336450,0,0.0060339877381920815,0.007094576023519039,-0.0030901930294930935,2.9995296001434326,0.9979204535484314,-9.17003345489502,0,0,32.51866149902344,1,1,1529,191
154.33916100,154339161,0,0.006533859763294458,0.006155045237392187,-0.0007452717400155962,3.0003528594970703,0.998141348361969,-9.17156982421875,0,0,32.51873016357422,1,1,1529,191
154.34190000,154341900,0,0.004690331872552633,0.007305569481104612,-0.0008533767540939152,2.996908187866211,1.0012609958648682,-9.17550277709961,0,0,32.518795013427734,1,1,1529,191
154.34429700,154344297,0,0.004688241984695196,0.009636787697672844,-0.0015703175449743867,2.993814468383789,1.0027986764907837,-9.177863121032715,0,0,32.51884078979492,1,1,1529,191
154.34713900,154347139,0,0.00702160457149148,0.011886597611010075,-0.0018459249986335635,2.98980712890625,1.003363847732544,-9.180949211120605,0,0,32.518924713134766,1,1,1529,191
154.34989300,154349893,0,0.007103889714926481,0.012975864112377167,-0.00028525234665721655,2.9901528358459473,1.003393292427063,-9.181877136230469,0,0,32.51902389526367,1,1,1529,191
154.39015900,154390159,0,0.007478952873498201,0.009213009849190712,-0.0016375742852687836,2.9934582710266113,0.9989627003669739,-9.161808967590332,0,0,32.5203742980957,1,1,1529,191
154.39293700,154392937,0,0.006798949092626572,0.009409956634044647,-0.0006725125131197274,2.9887430667877197,1.00260329246521,-9.163527488708496,0,0,32.520484924316406,1,1,1529,191
154.39543500,154395435,0,0.00618185056373477,0.009358593262732029,-0.0011955953668802977,2.986687421798706,1.0041368007659912,-9.16417121887207,0,0,32.52055358886719,1,1,1529,191
154.39823700,154398237,0,0.0044730836525559425,0.0056545850820839405,-0.0017452661413699389,2.9854936599731445,1.0059537887573242,-9.160017013549805,0,0,32.52066421508789,1,1,1529,191
154.40097200,154400972,0,0.006237991154193878,0.00606050668284297,-2.922999919974245e-05,2.987650156021118,1.0087834596633911,-9.155442237854004,0,0,32.52077102661133,1,1,1529,191
154.40347200,154403472,0,0.007686974015086889,0.006640976294875145,-0.0006450461223721504,2.9899110794067383,1.010054588317871,-9.155083656311035,0,0,32.520896911621094,1,1,1529,191
154.45354700,154453547,0,0.007352624554187059,0.010799692012369633,0.0004004896036349237,3.001588821411133,0.9974852204322815,-9.173562049865723,0,0,32.522499084472656,1,1,1529,191
154.45621900,154456219,0,0.005980335175991058,0.011265414766967297,-0.0005706296069547534,2.9964759349823,1.000115156173706,-9.172019004821777,0,0,32.5225944519043,1,1,1529,191
154.45902600,154459026,0,0.00606576120480895,0.010702602565288544,-0.0017420484218746424,2.996474266052246,1.0012632608413696,-9.173824310302734,0,0,32.52268981933594,1,1,1529,191
154.46178600,154461786,0,0.004668883513659239,0.010847135446965694,-0.0015897046541795135,2.9977123737335205,1.0018292665481567,-9.175182342529297,0,0,32.522789001464844,1,1,1529,191
154.46409100,154464091,0,0.006006781477481127,0.01308502722531557,-0.0022994717583060265,2.9960665702819824,1.0022059679031372,-9.17545223236084,0,0,32.522850036621094,1,1,1529,191
154.49199200,154491992,0,0.005534857511520386,0.010208667255938053,-0.002154546556994319,2.985043525695801,1.0181920528411865,-9.167542457580566,0,0,32.52375411987305,1,1,1529,191
154.49461600,154494616,0,0.007120856549590826,0.01005787868052721,-0.003123174188658595,2.9846608638763428,1.0174589157104492,-9.170622825622559,0,0,32.5238037109375,1,1,1529,191
154.49745000,154497450,0,0.008483889512717724,0.010439353063702583,-0.0020439294166862965,2.98445463180542,1.0184600353240967,-9.17715072631836,0,0,32.52390670776367,1,1,1529,191
154.49998100,154499981,0,0.007539001759141684,0.009574525989592075,-0.001608360791578889,2.983902931213379,1.0220285654067993,-9.182479858398438,0,0,32.52402114868164,1,1,1529,191
154.52982800,154529828,0,0.004892601165920496,0.006386694964021444,-0.0011152856750413775,2.9971320629119873,1.0040537118911743,-9.172260284423828,0,0,32.52448272705078,1,1,1529,191
154.53210100,154532101,0,0.004542897921055555,0.006310507655143738,-0.001568203093484044,2.9973740577697754,1.0027055740356445,-9.167839050292969,0,0,32.52452087402344,1,1,1529,191
154.53487400,154534874,0,0.006115937605500221,0.006425563711673021,-0.0017729706596583128,2.9978702068328857,1.0033727884292603,-9.165066719055176,0,0,32.52455520629883,1,1,1529,191
154.53711300,154537113,0,0.0055176797322928905,0.006232461426407099,-0.0003640584764070809,2.9976930618286133,1.0043169260025024,-9.165261268615723,0,0,32.524574279785156,1,1,1529,191
154.56231700,154562317,0,0.005952439736574888,0.008339336141943932,0.00012909018550999463,2.9903645515441895,0.9978541135787964,-9.14516830444336,0,0,32.52448654174805,1,1,1529,191
154.56487900,154564879,0,0.006048661656677723,0.007581040728837252,-0.0007384560885839164,2.99265456199646,0.9933329224586487,-9.149554252624512,0,0,32.52449417114258,1,1,1529,191
154.56756500,154567565,0,0.007575151976197958,0.006459190975874662,-0.0020680830348283052,2.9923970699310303,0.989274263381958,-9.15381908416748,0,0,32.52450180053711,1,1,1529,191
154.57018900,154570189,0,0.006872022058814764,0.010400967672467232,-0.0035013349261134863,2.9886903762817383,0.9848217964172363,-9.158881187438965,0,0,32.524532318115234,1,1,1529,191
154.57264300,154572643,0,0.006556773092597723,0.01046864315867424,-0.002224942436441779,2.9868438243865967,0.9826050400733948,-9.160818099975586,0,0,32.52455520629883,1,1,1529,191
154.60483300,154604833,0,0.005696408916264772,0.014669133350253105,-0.0020333651918917894,2.9816019535064697,0.9991322755813599,-9.160881042480469,0,0,32.52531814575195,1,1,1529,191
154.60710100,154607101,0,0.005664458032697439,0.014359368942677975,-0.0010568017605692148,2.9793894290924072,1.0020313262939453,-9.163103103637695,0,0,32.525367736816406,1,1,1529,191
154.60982900,154609829,0,0.007810250855982304,0.013750743120908737,-0.0012820345582440495,2.9783573150634766,1.0049232244491577,-9.166850090026855,0,0,32.52544021606445,1,1,1529,191
154.61210200,154612102,0,0.006952793803066015,0.013172999024391174,-0.0028733382932841778,2.980128526687622,1.0063427686691284,-9.167186737060547,0,0,32.52548599243164,1,1,1529,191
154.61504200,154615042,0,0.007650537882000208,0.013041295111179352,-0.0028578017372637987,2.9832763671875,1.0084775686264038,-9.167075157165527,0,0,32.52554702758789,1,1,1529,191
154.64003800,154640038,0,0.004556413274258375,0.005535454023629427,-0.002380083780735731,2.9831130504608154,1.0080980062484741,-9.175529479980469,0,0,32.52634811401367,1,1,1529,191
154.64213900,154642139,0,0.004856758285313845,0.006107437890022993,-0.0025580625515431166,2.984529495239258,1.005628228187561,-9.174960136413574,0,0,32.52640914916992,1,1,1529,191
154.64483900,154644839,0,0.007486628834158182,0.007160483859479427,-0.0016076116589829326,2.9875166416168213,1.002500057220459,-9.172969818115234,0,0,32.52649688720703,1,1,1529,191
154.64710200,154647102,0,0.006994637195020914,0.00664901128038764,-0.0008743723155930638,2.9890694618225098,1.0012761354446411,-9.173262596130371,0,0,32.526554107666016,1,1,1529,191
154.64983100,154649831,0,0.005819196812808514,0.005153061356395483,-0.0013039816403761506,2.988862991333008,1.0005943775177002,-9.173335075378418,0,0,32.52664566040039,1,1,1529,191
154.67486800,154674868,0,0.00715531874448061,0.00740741565823555,-0.0011345022358000278,2.9860095977783203,0.98981773853302,-9.14881420135498,0,0,32.52750778198242,1,1,1529,191
154.67712800,154677128,0,0.00835471972823143,0.0074098194018006325,-0.0011464726412668824,2.9874119758605957,0.990642249584198,-9.151435852050781,0,0,32.52756881713867,1,1,1529,191
154.67984500,154679845,0,0.006328347604721785,0.006325621157884598,-0.0007721596630290151,2.9894070625305176,0.9932777881622314,-9.157548904418945,0,0,32.52766418457031,1,1,1529,191
154.68210100,154682101,0,0.005439660511910915,0.0057316976599395275,-0.0006611048593185842,2.991180658340454,0.9947697520256042,-9.162689208984375,0,0,32.52772903442383,1,1,1529,191
154.68486900,154684869,0,0.0058556850999593735,0.007761306129395962,-7.183885463746265e-05,2.9931273460388184,0.9973100423812866,-9.170717239379883,0,0,32.52782440185547,1,1,1529,191
154.70543600,154705436,0,0.0050972988829016685,0.011944964528083801,-0.002643771003931761,2.993488073348999,0.9963817000389099,-9.192188262939453,0,0,32.529083251953125,1,1,1529,191
154.71342300,154713423,0,0.006318462546914816,0.012042236514389515,-0.0027339106891304255,2.9938480854034424,0.9960992932319641,-9.192090034484863,0,0,32.52988815307617,1,1,1529,191
154.72189000,154721890,0,0.0072595831006765366,0.01278656255453825,-0.0025523907970637083,2.9941937923431396,0.995967447757721,-9.191329956054688,0,0,32.53064727783203,1,1,1529,191
154.72963500,154729635,0,0.007674207910895348,0.013778089545667171,-0.0021325259003788233,2.9944427013397217,0.9962157607078552,-9.189992904663086,0,0,32.5313606262207,1,1,1529,191
154.73742900,154737429,0,0.007725672330707312,0.014202086254954338,-0.0018187009263783693,2.994504928588867,0.9967630505561829,-9.188260078430176,0,0,32.53196334838867,1,1,1529,191
154.74585300,154745853,0,0.007474466226994991,0.013551773503422737,-0.001781356637366116,2.9943809509277344,0.9974232316017151,-9.186347007751465,0,0,32.53252410888672,1,1,1529,191
154.75325400,154753254,0,0.007073670160025358,0.011605342850089073,-0.0018038416747003794,2.994175434112549,0.9982125163078308,-9.18427562713623,0,0,32.533084869384766,1,1,1529,191
154.76131600,154761316,0,0.006677011493593454,0.008900332264602184,-0.0016775124240666628,2.993917942047119,0.99915611743927,-9.18189525604248,0,0,32.53358459472656,1,1,1529,191
154.76964400,154769644,0,0.006340513471513987,0.006498781032860279,-0.001502937637269497,2.9936001300811768,1.0001198053359985,-9.179367065429688,0,0,32.533992767333984,1,1,1529,191
154.77730300,154777303,0,0.00611494854092598,0.005113503895699978,-0.0013773500686511397,2.993309497833252,1.001032829284668,-9.176824569702148,0,0,32.5343017578125,1,1,1529,191
154.78544800,154785448,0,0.006052842829376459,0.004858051426708698,-0.0013550528092309833,2.9930715560913086,1.0019224882125854,-9.174009323120117,0,0,32.53461837768555,1,1,1529,191
154.79382000,154793820,0,0.0061267102137207985,0.005494406446814537,-0.0014498617965728045,2.992816686630249,1.0026907920837402,-9.170891761779785,0,0,32.534934997558594,1,1,1529,191
154.80127400,154801274,0,0.006222929805517197,0.006711946800351143,-0.0014862315729260445,2.992560625076294,1.0032306909561157,-9.167802810668945,0,0,32.5352668762207,1,1,1529,191
154.80931200,154809312,0,0.006371724884957075,0.008340589702129364,-0.0014631906524300575,2.9922728538513184,1.0036406517028809,-9.165088653564453,0,0,32.53556442260742,1,1,1529,191
154.81870900,154818709,0,0.006513633765280247,0.010220514610409737,-0.0015302705578505993,2.9917409420013428,1.004042387008667,-9.163000106811523,0,0,32.53587341308594,1,1,1529,191
154.82531700,154825317,0,0.006405877415090799,0.012042888440191746,-0.0016608977457508445,2.990853786468506,1.0044900178909302,-9.161524772644043,0,0,32.53612518310547,1,1,1529,191
154.83330500,154833305,0,0.006219056434929371,0.013345060870051384,-0.0018107801442965865,2.989732265472412,1.0049867630004883,-9.160552024841309,0,0,32.53623580932617,1,1,1529,191
154.84162600,154841626,0,0.006340966559946537,0.013623393140733242,-0.001956164138391614,2.9885094165802,1.0054035186767578,-9.160096168518066,0,0,32.53622055053711,1,1,1529,191
154.84928300,154849283,0,0.006698407232761383,0.012669911608099937,-0.0020290566608309746,2.9873030185699463,1.005722999572754,-9.160163879394531,0,0,32.53620147705078,1,1,1529,191
154.85761400,154857614,0,0.007031875196844339,0.010725114494562149,-0.0019092673901468515,2.986250162124634,1.0059641599655151,-9.160696983337402,0,0,32.53627395629883,1,1,1529,191
154.86580000,154865800,0,0.007169433403760195,0.008404106833040714,-0.0017124527366831899,2.9854254722595215,1.0059705972671509,-9.161439895629883,0,0,32.53630065917969,1,1,1529,191
154.87342900,154873429,0,0.006969457492232323,0.006536444649100304,-0.0016928858822211623,2.984842538833618,1.0057235956192017,-9.162201881408691,0,0,32.536190032958984,1,1,1529,191
154.88142900,154881429,0,0.006583619397133589,0.005681028123944998,-0.0018465365283191204,2.9843947887420654,1.0054389238357544,-9.162993431091309,0,0,32.536033630371094,1,1,1529,191
154.88963700,154889637,0,0.006241684313863516,0.005777253769338131,-0.0021446391474455595,2.9838714599609375,1.0052051544189453,-9.163858413696289,0,0,32.53593444824219,1,1,1529,191
154.89730400,154897304,0,0.006140019278973341,0.0064653316512703896,-0.0024034336674958467,2.98321270942688,1.0049595832824707,-9.164912223815918,0,0,32.53583526611328,1,1,1529,191
154.90572700,154905727,0,0.006250806152820587,0.007332335226237774,-0.0024281314108520746,2.9825637340545654,1.0047842264175415,-9.166173934936523,0,0,32.535736083984375,1,1,1529,191
154.91387300,154913873,0,0.006365020759403706,0.008064229972660542,-0.0022962396033108234,2.9819939136505127,1.004827618598938,-9.167564392089844,0,0,32.53555679321289,1,1,1529,191
154.92173100,154921731,0,0.0065276166424155235,0.008637330494821072,-0.0019793135579675436,2.9814140796661377,1.0050973892211914,-9.169037818908691,0,0,32.5354118347168,1,1,1529,191
154.95327700,154953277,0,0.006305918097496033,0.011234368197619915,-0.0015066618798300624,2.97989559173584,1.0051823854446411,-9.172921180725098,0,0,32.53493881225586,1,1,1529,191
154.96168900,154961689,0,0.0061589572578668594,0.011138330213725567,-0.001592904096469283,2.979857921600342,1.0049878358840942,-9.173299789428711,0,0,32.53498458862305,1,1,1529,191
154.97743100,154977431,0,0.006608473602682352,0.009841074235737324,-0.0015359696699306369,2.9805409908294678,1.0048542022705078,-9.174121856689453,0,0,32.53523254394531,1,1,1529,191
154.98566400,154985664,0,0.006799821276217699,0.009309530258178711,-0.0014850180596113205,2.9808666706085205,1.004779577255249,-9.174551963806152,0,0,32.53531265258789,1,1,1529,191
154.99372500,154993725,0,0.0067839003168046474,0.009037051349878311,-0.0015768243465572596,2.9809064865112305,1.0045686960220337,-9.175126075744629,0,0,32.53539276123047,1,1,1529,191
155.00179900,155001799,0,0.006531953811645508,0.009011468850076199,-0.0017314773285761476,2.9806530475616455,1.004164218902588,-9.175819396972656,0,0,32.53546905517578,1,1,1529,191
155.00987400,155009874,0,0.006243305280804634,0.009038560092449188,-0.0017809714190661907,2.9803307056427,1.0035091638565063,-9.176547050476074,0,0,32.5355339050293,1,1,1529,191
155.01772100,155017721,0,0.006163933780044317,0.009005354717373848,-0.001739390892907977,2.980015516281128,1.0027985572814941,-9.17725944519043,0,0,32.53567886352539,1,1,1529,191
155.02581300,155025813,0,0.006227575242519379,0.00908133015036583,-0.0017707088263705373,2.979767084121704,1.0022777318954468,-9.17778205871582,0,0,32.53573989868164,1,1,1529,191
155.03375500,155033755,0,0.006293868646025658,0.009403756819665432,-0.0017914277268573642,2.9798662662506104,1.0019611120224,-9.178108215332031,0,0,32.535675048828125,1,1,1529,191
155.04127000,155041270,0,0.006411930546164513,0.009707309305667877,-0.0016253411304205656,2.9804351329803467,1.0017434358596802,-9.178451538085938,0,0,32.535518646240234,1,1,1529,191
155.04932300,155049323,0,0.0065389834344387054,0.009672962129116058,-0.0014301901683211327,2.9811699390411377,1.0015109777450562,-9.178914070129395,0,0,32.53537368774414,1,1,1529,191
155.05770200,155057702,0,0.006469052750617266,0.009166129864752293,-0.001322706462815404,2.9817733764648438,1.0011857748031616,-9.179570198059082,0,0,32.53523635864258,1,1,1529,191
155.06558700,155065587,0,0.006273903883993626,0.008257671259343624,-0.001203949679620564,2.9822893142700195,1.000749111175537,-9.180320739746094,0,0,32.53506088256836,1,1,1529,191
155.07330700,155073307,0,0.006167603190988302,0.007357785478234291,-0.0011104934383183718,2.982860803604126,1.0003299713134766,-9.181046485900879,0,0,32.534908294677734,1,1,1529,191
155.08184700,155081847,0,0.006100814789533615,0.006976298522204161,-0.0011358113260939717,2.9835143089294434,1.0001766681671143,-9.181819915771484,0,0,32.534793853759766,1,1,1529,191
155.08927100,155089271,0,0.006067793350666761,0.007392930332571268,-0.001298053888604045,2.9842472076416016,1.0004826784133911,-9.18265151977539,0,0,32.53467559814453,1,1,1529,191
155.09728900,155097289,0,0.006099681835621595,0.00839809700846672,-0.0015112331602722406,2.9849886894226074,1.0012856721878052,-9.1836519241333,0,0,32.5345458984375,1,1,1529,191
155.10561700,155105617,0,0.006184865720570087,0.009618420153856277,-0.0016162038082256913,2.9856016635894775,1.0023963451385498,-9.184823036193848,0,0,32.53436279296875,1,1,1529,191
155.11344100,155113441,0,0.006355469115078449,0.0106632299721241,-0.0016400283202528954,2.9859938621520996,1.0036009550094604,-9.185830116271973,0,0,32.534244537353516,1,1,1529,191
155.12172800,155121728,0,0.00647707050666213,0.011208230629563332,-0.0016906808596104383,2.9861669540405273,1.0048929452896118,-9.186579704284668,0,0,32.534141540527344,1,1,1531,191
155.12967900,155129679,0,0.006395221222192049,0.011334670707583427,-0.001714633428491652,2.986243963241577,1.0061951875686646,-9.18725299835205,0,0,32.53398895263672,1,1,1531,191
155.13730200,155137302,0,0.006230570375919342,0.01119170244783163,-0.0017211376689374447,2.9863836765289307,1.0073727369308472,-9.187864303588867,0,0,32.5338134765625,1,1,1531,191
155.14532500,155145325,0,0.006122957915067673,0.010767852887511253,-0.001718558487482369,2.9867160320281982,1.0084705352783203,-9.188287734985352,0,0,32.533634185791016,1,1,1531,191
155.15363100,155153631,0,0.006125940941274166,0.010087285190820694,-0.0016284593148157,2.987278699874878,1.0094105005264282,-9.188556671142578,0,0,32.533451080322266,1,1,1531,191
155.16142200,155161422,0,0.006242734380066395,0.00926752109080553,-0.0014817562187090516,2.9879093170166016,1.0100016593933105,-9.188714027404785,0,0,32.53321838378906,1,1,1531,191
155.16925400,155169254,0,0.0063615539111196995,0.008360200561583042,-0.001390274497680366,2.988403081893921,1.0102550983428955,-9.188608169555664,0,0,32.53304672241211,1,1,1531,191
155.17772300,155177723,0,0.006333093624562025,0.007325215730816126,-0.0014382456429302692,2.9888503551483154,1.0103650093078613,-9.188216209411621,0,0,32.53297805786133,1,1,1531,191
155.18531400,155185314,0,0.00621537072584033,0.0064560421742498875,-0.0015250458382070065,2.9894275665283203,1.0104374885559082,-9.187803268432617,0,0,32.53298568725586,1,1,1531,191
155.19344400,155193444,0,0.006266493815928698,0.006071744952350855,-0.0014546412276104093,2.989931106567383,1.0103753805160522,-9.18748664855957,0,0,32.53298568725586,1,1,1531,191
155.20202700,155202027,0,0.0063850306905806065,0.0060167559422552586,-0.0012507963692769408,2.9902024269104004,1.0101544857025146,-9.186898231506348,0,0,32.53301239013672,1,1,1531,191
155.20928500,155209285,0,0.00637578871101141,0.006217184942215681,-0.0011850829469040036,2.9903974533081055,1.009857416152954,-9.185807228088379,0,0,32.5330924987793,1,1,1531,191
155.21772500,155217725,0,0.006348165683448315,0.00685500493273139,-0.0013634908245876431,2.990422010421753,1.0094785690307617,-9.18444538116455,0,0,32.5331916809082,1,1,1531,191
155.22602100,155226021,0,0.006429307162761688,0.008057055063545704,-0.0015754005871713161,2.990105628967285,1.0090547800064087,-9.183030128479004,0,0,32.53331756591797,1,1,1531,191
155.23376200,155233762,0,0.006569945719093084,0.009692199528217316,-0.0017225767951458693,2.989548444747925,1.0087484121322632,-9.181689262390137,0,0,32.53347396850586,1,1,1531,191
155.24176600,155241766,0,0.006691853515803814,0.011400881223380566,-0.0018470146460458636,2.9889020919799805,1.0086604356765747,-9.18037223815918,0,0,32.53364181518555,1,1,1531,191
155.24983700,155249837,0,0.0067242966033518314,0.012935379520058632,-0.001938650500960648,2.9882559776306152,1.0087432861328125,-9.17896556854248,0,0,32.53379821777344,1,1,1531,191
155.25748700,155257487,0,0.006642952095717192,0.013998248614370823,-0.002026802161708474,2.987715721130371,1.0088682174682617,-9.17764949798584,0,0,32.53400802612305,1,1,1531,191
155.26531700,155265317,0,0.0065927570685744286,0.014101773500442505,-0.0020152507349848747,2.9874660968780518,1.0089528560638428,-9.176467895507812,0,0,32.53428268432617,1,1,1531,191
155.27364700,155273647,0,0.0066360002383589745,0.013095858506858349,-0.0017955375369638205,2.9876463413238525,1.0088838338851929,-9.175209045410156,0,0,32.53458023071289,1,1,1531,191
155.28126900,155281269,0,0.006665943656116724,0.011290518566966057,-0.001509102643467486,2.9882678985595703,1.0085391998291016,-9.173893928527832,0,0,32.5349235534668,1,1,1531,191
155.28930400,155289304,0,0.006539313588291407,0.009096365422010422,-0.0012837074464187026,2.989288330078125,1.0080229043960571,-9.172761917114258,0,0,32.53526306152344,1,1,1531,191
155.29768700,155297687,0,0.006285334937274456,0.00676162913441658,-0.0011245958739891648,2.990448474884033,1.007554531097412,-9.172073364257812,0,0,32.53564453125,1,1,1531,191
155.30525600,155305256,0,0.006134208757430315,0.004672193434089422,-0.0010256298119202256,2.991334915161133,1.0072368383407593,-9.171893119812012,0,0,32.536067962646484,1,1,1531,191
155.31345400,155313454,0,0.0062422542832791805,0.003621588461101055,-0.0010195301147177815,2.9919400215148926,1.0069937705993652,-9.17208480834961,0,0,32.53644943237305,1,1,1531,191
155.32187900,155321879,0,0.0064333416521549225,0.00414826488122344,-0.0011894317576661706,2.9924230575561523,1.0067253112792969,-9.172477722167969,0,0,32.53688049316406,1,1,1531,191
155.32953300,155329533,0,0.006442766636610031,0.006064964924007654,-0.001492421724833548,2.9927687644958496,1.0064634084701538,-9.172783851623535,0,0,32.53731918334961,1,1,1531,191
155.33727500,155337275,0,0.006330246105790138,0.00864447746425867,-0.001682580099441111,2.9930851459503174,1.0062592029571533,-9.172805786132812,0,0,32.53778076171875,1,1,1531,191
155.34560200,155345602,0,0.0063460348173975945,0.011198170483112335,-0.001692154910415411,2.993460178375244,1.0060158967971802,-9.172599792480469,0,0,32.538230895996094,1,1,1531,191
155.35353600,155353536,0,0.006412492599338293,0.013135675340890884,-0.0016139274230226874,2.993863582611084,1.0056266784667969,-9.172197341918945,0,0,32.53868865966797,1,1,1531,191
155.36126000,155361260,0,0.006390959024429321,0.01384738739579916,-0.00144224485848099,2.9943714141845703,1.0052366256713867,-9.171457290649414,0,0,32.53913497924805,1,1,1531,191
155.36983500,155369835,0,0.006345822475850582,0.013139809481799603,-0.001274262205697596,2.9949896335601807,1.0050923824310303,-9.170389175415039,0,0,32.539527893066406,1,1,1531,191
155.37732300,155377323,0,0.006259918678551912,0.011399862356483936,-0.0012178808683529496,2.9954988956451416,1.0051817893981934,-9.169254302978516,0,0,32.539859771728516,1,1,1531,191
155.38558500,155385585,0,0.006220572162419558,0.009467197582125664,-0.0012739262310788035,2.9958112239837646,1.0053178071975708,-9.168325424194336,0,0,32.54020690917969,1,1,1531,191
155.39362400,155393624,0,0.006278480868786573,0.008085645735263824,-0.0014564023585990071,2.9960415363311768,1.0053479671478271,-9.167762756347656,0,0,32.54056167602539,1,1,1531,191
155.40132800,155401328,0,0.0063462876714766026,0.007356571964919567,-0.0016464933287352324,2.996238946914673,1.0052330493927002,-9.167484283447266,0,0,32.54096603393555,1,1,1531,191
155.40932300,155409323,0,0.006443276535719633,0.00707346573472023,-0.0017241998575627804,2.99649977684021,1.0050004720687866,-9.167490005493164,0,0,32.54140090942383,1,1,1531,191
155.41784300,155417843,0,0.006578695494681597,0.007220754399895668,-0.0017764741787686944,2.996918201446533,1.0046460628509521,-9.167792320251465,0,0,32.541934967041016,1,1,1531,191
155.42564600,155425646,0,0.006637149024754763,0.007817585952579975,-0.0017709393287077546,2.9973058700561523,1.0041916370391846,-9.168145179748535,0,0,32.54247283935547,1,1,1531,191
155.43326700,155433267,0,0.006546827033162117,0.008758164942264557,-0.0016747331246733665,2.9974210262298584,1.003761887550354,-9.168384552001953,0,0,32.54300308227539,1,1,1531,191
155.44157800,155441578,0,0.006323274224996567,0.009851263836026192,-0.001682305010035634,2.997375011444092,1.0035561323165894,-9.16856861114502,0,0,32.543434143066406,1,1,1531,191
155.44936900,155449369,0,0.006150204688310623,0.010799702256917953,-0.001883922959677875,2.9973843097686768,1.0037157535552979,-9.168750762939453,0,0,32.5439567565918,1,1,1531,191
155.45743600,155457436,0,0.00613525090739131,0.011210031807422638,-0.002108683343976736,2.997443914413452,1.0042026042938232,-9.168668746948242,0,0,32.544395446777344,1,1,1531,191
155.46561100,155465611,0,0.006191459950059652,0.010882405564188957,-0.0022104564122855663,2.997563600540161,1.004788875579834,-9.168067932128906,0,0,32.544857025146484,1,1,1531,191
155.47331700,155473317,0,0.006322754081338644,0.010011471807956696,-0.002208736026659608,2.997957944869995,1.0052603483200073,-9.167205810546875,0,0,32.54529571533203,1,1,1531,191
155.48125900,155481259,0,0.006452758796513081,0.009070799686014652,-0.0021212026476860046,2.9987266063690186,1.0055421590805054,-9.16651439666748,0,0,32.54564666748047,1,1,1531,191
155.48987600,155489876,0,0.006507108453661203,0.008490611799061298,-0.0019771424122154713,2.999593496322632,1.005705714225769,-9.1661376953125,0,0,32.546058654785156,1,1,1531,191
155.49771100,155497711,0,0.006582886446267366,0.00832068920135498,-0.0017865017289295793,3.0003249645233154,1.0058447122573853,-9.165937423706055,0,0,32.54645538330078,1,1,1531,191
155.50563000,155505630,0,0.006564284209161997,0.008301208727061749,-0.0015906179323792458,3.0009968280792236,1.0059682130813599,-9.165759086608887,0,0,32.54686737060547,1,1,1531,191
155.51472000,155514720,0,0.006333143915981054,0.007937679998576641,-0.0015095977578312159,3.0016961097717285,1.0061177015304565,-9.165701866149902,0,0,32.54728317260742,1,1,1531,191
155.52171500,155521715,0,0.006263934541493654,0.006963304243981838,-0.0015486398478969932,3.0023345947265625,1.0063244104385376,-9.165982246398926,0,0,32.54768753051758,1,1,1531,191
155.52965500,155529655,0,0.006492024287581444,0.005899773444980383,-0.0015783602138981223,3.0027575492858887,1.006499171257019,-9.166590690612793,0,0,32.5480842590332,1,1,1531,191
155.53770500,155537705,0,0.006670947652310133,0.005624254699796438,-0.0015544233610853553,3.002903461456299,1.0065062046051025,-9.16732120513916,0,0,32.54841995239258,1,1,1531,191
155.54531800,155545318,0,0.006758274510502815,0.0067659830674529076,-0.0016064251540228724,3.00276517868042,1.0061872005462646,-9.168150901794434,0,0,32.54885482788086,1,1,1531,191
155.55344900,155553449,0,0.006868739612400532,0.00939399003982544,-0.001770335715264082,3.0023293495178223,1.0055147409439087,-9.169300079345703,0,0,32.54927444458008,1,1,1531,191
155.56180800,155561808,0,0.006902050226926804,0.012747841887176037,-0.0019825315102934837,3.0016896724700928,1.0047518014907837,-9.17072868347168,0,0,32.549659729003906,1,1,1531,191
155.56975100,155569751,0,0.0068603199906647205,0.01551864668726921,-0.0022120936773717403,3.0009896755218506,1.0042206048965454,-9.172093391418457,0,0,32.550132751464844,1,1,1531,191
155.57792000,155577920,0,0.006847776006907225,0.01644502952694893,-0.002331850817427039,3.0002777576446533,1.003989338874817,-9.173274040222168,0,0,32.550533294677734,1,1,1531,191
155.58579000,155585790,0,0.0068592787720263,0.015094567090272903,-0.0023070210590958595,2.9995787143707275,1.0039355754852295,-9.174328804016113,0,0,32.55091857910156,1,1,1531,191
155.59341700,155593417,0,0.006852819584310055,0.012146802619099617,-0.0021678658667951822,2.998944044113159,1.0040241479873657,-9.175189018249512,0,0,32.5512809753418,1,1,1531,191
155.60141600,155601416,0,0.006848775781691074,0.008667117916047573,-0.0018213738221675158,2.998307704925537,1.0042835474014282,-9.175848007202148,0,0,32.551597595214844,1,1,1531,191
155.60957600,155609576,0,0.006863645743578672,0.005556224845349789,-0.0013647755840793252,2.997593402862549,1.0046782493591309,-9.176470756530762,0,0,32.551883697509766,1,1,1531,191
155.61740400,155617404,0,0.006798502989113331,0.003323610406368971,-0.001095030689612031,2.9968972206115723,1.0050849914550781,-9.177173614501953,0,0,32.55225372314453,1,1,1531,191
155.62568200,155625682,0,0.006564033217728138,0.0020311695989221334,-0.0011081657139584422,2.996250629425049,1.0053956508636475,-9.17790412902832,0,0,32.55252456665039,1,1,1531,191
155.63377200,155633772,0,0.006274699699133635,0.0017957340460270643,-0.0012722251703962684,2.995572090148926,1.005537986755371,-9.178482055664062,0,0,32.55276107788086,1,1,1531,191
155.64130100,155641301,0,0.006111206021159887,0.0029386859387159348,-0.001459004357457161,2.9947824478149414,1.005433201789856,-9.1788330078125,0,0,32.553104400634766,1,1,1531,191
155.64931100,155649311,0,0.00607649702578783,0.005424592178314924,-0.001650269259698689,2.9937925338745117,1.0051034688949585,-9.179112434387207,0,0,32.553497314453125,1,1,1531,191
155.65785100,155657851,0,0.006063308101147413,0.008796763606369495,-0.0018033920787274837,2.9926702976226807,1.004675269126892,-9.179412841796875,0,0,32.5538330078125,1,1,1531,191
155.66545000,155665450,0,0.006054202560335398,0.012442050501704216,-0.0018930172082036734,2.9916515350341797,1.0042567253112793,-9.17972183227539,0,0,32.55419921875,1,1,1531,191
155.67327300,155673273,0,0.006226181518286467,0.015507281757891178,-0.001958158565685153,2.990861177444458,1.0038824081420898,-9.180093765258789,0,0,32.55457305908203,1,1,1531,191
155.68164600,155681646,0,0.006642483174800873,0.017067819833755493,-0.001928911660797894,2.990182638168335,1.0035830736160278,-9.18049430847168,0,0,32.554874420166016,1,1,1531,191
155.68941500,155689415,0,0.007057359907776117,0.01673174276947975,-0.0017994181253015995,2.98958420753479,1.0034313201904297,-9.180671691894531,0,0,32.55520248413086,1,1,1531,191
155.69727600,155697276,0,0.007231575902551413,0.014913995750248432,-0.0016600358067080379,2.9892475605010986,1.0033862590789795,-9.180462837219238,0,0,32.55549240112305,1,1,1531,191
155.70579700,155705797,0,0.007166353054344654,0.012428315356373787,-0.0015939236618578434,2.9892590045928955,1.0032811164855957,-9.17980670928955,0,0,32.55591583251953,1,1,1531,191
155.71332700,155713327,0,0.006965057924389839,0.009832893498241901,-0.0016263724537566304,2.9895424842834473,1.003077507019043,-9.178604125976562,0,0,32.55628967285156,1,1,1531,191
155.72183200,155721832,0,0.006739950738847256,0.007317514158785343,-0.0017600343562662601,2.9899845123291016,1.0028842687606812,-9.177048683166504,0,0,32.55662536621094,1,1,1531,191
155.72961100,155729611,0,0.006502746604382992,0.004925893619656563,-0.0018776492215692997,2.9905614852905273,1.0027904510498047,-9.175436973571777,0,0,32.55693435668945,1,1,1531,191
155.73732800,155737328,0,0.006253074388951063,0.0029993609059602022,-0.001747853122651577,2.9913582801818848,1.002803087234497,-9.173949241638184,0,0,32.557247161865234,1,1,1531,191
155.74542000,155745420,0,0.006061378866434097,0.002147152554243803,-0.0015202488284558058,2.9923999309539795,1.002867341041565,-9.172662734985352,0,0,32.55745315551758,1,1,1531,191
155.75361300,155753613,0,0.005934550426900387,0.0026347290258854628,-0.001460411585867405,2.9934959411621094,1.0029102563858032,-9.171646118164062,0,0,32.55759048461914,1,1,1531,191
155.76130200,155761302,0,0.005993965081870556,0.004421045072376728,-0.001563099562190473,2.994361639022827,1.0029239654541016,-9.170954704284668,0,0,32.5577278137207,1,1,1531,191
155.76941300,155769413,0,0.006134536117315292,0.007277417462319136,-0.0017342987703159451,2.994903087615967,1.0028048753738403,-9.170473098754883,0,0,32.557926177978516,1,1,1531,191
155.77766500,155777665,0,0.006147598382085562,0.010556955821812153,-0.0018238492775708437,2.9952707290649414,1.0023672580718994,-9.170073509216309,0,0,32.55807113647461,1,1,1531,191
155.78528200,155785282,0,0.00618732301518321,0.013320354744791985,-0.0018137581646442413,2.995638608932495,1.0017328262329102,-9.16957950592041,0,0,32.55820846557617,1,1,1531,191
155.79330300,155793303,0,0.006371653638780117,0.014876700937747955,-0.0018227811669930816,2.9960615634918213,1.0011131763458252,-9.169013977050781,0,0,32.558372497558594,1,1,1531,191
155.80180400,155801804,0,0.006604596506804228,0.014925659634172916,-0.001829231041483581,2.996542453765869,1.000536322593689,-9.168704986572266,0,0,32.558589935302734,1,1,1531,191
155.80940000,155809400,0,0.006816063076257706,0.013586482033133507,-0.0017149244667962193,2.9970643520355225,1.0000979900360107,-9.168756484985352,0,0,32.55878829956055,1,1,1531,191
155.81774700,155817747,0,0.0069479141384363174,0.01137145608663559,-0.0015950012020766735,2.9975740909576416,0.9998631477355957,-9.168950080871582,0,0,32.55902099609375,1,1,1531,191
155.82583600,155825836,0,0.007003988139331341,0.008847338147461414,-0.0016716914251446724,2.997974395751953,0.9997168183326721,-9.169073104858398,0,0,32.5591926574707,1,1,1531,191
155.83343500,155833435,0,0.007114723790436983,0.006485714577138424,-0.0018295771442353725,2.998215675354004,0.9996359944343567,-9.169179916381836,0,0,32.559349060058594,1,1,1531,191
155.84126300,155841263,0,0.007245971821248531,0.004808839410543442,-0.001855581533163786,2.9984145164489746,0.9998034238815308,-9.16944408416748,0,0,32.55955123901367,1,1,1531,191
155.85006100,155850061,0,0.007276815827935934,0.004422066267579794,-0.0017092057969421148,2.9986369609832764,1.0004521608352661,-9.1698579788208,0,0,32.559715270996094,1,1,1531,191
155.85759700,155857597,0,0.007290781941264868,0.005585085600614548,-0.0014421821106225252,2.9988291263580322,1.001602292060852,-9.170177459716797,0,0,32.559852600097656,1,1,1531,191
155.86532800,155865328,0,0.00729401595890522,0.007922954857349396,-0.0012926036724820733,2.99887752532959,1.0029699802398682,-9.170068740844727,0,0,32.559974670410156,1,1,1531,191
155.87359000,155873590,0,0.0071401107124984264,0.010708332061767578,-0.0015176167944446206,2.9987239837646484,1.0041708946228027,-9.169473648071289,0,0,32.56013870239258,1,1,1531,191
155.88130500,155881305,0,0.006991984788328409,0.013163786381483078,-0.001929504331201315,2.99851655960083,1.0049700736999512,-9.168722152709961,0,0,32.5603141784668,1,1,1531,191
155.88957600,155889576,0,0.006959743332117796,0.014502153731882572,-0.002164861187338829,2.99830961227417,1.0053935050964355,-9.168120384216309,0,0,32.56047058105469,1,1,1531,191
155.89768400,155897684,0,0.0068838875740766525,0.014232824556529522,-0.002155744470655918,2.9979939460754395,1.0054365396499634,-9.167655944824219,0,0,32.560665130615234,1,1,1531,191
155.90574200,155905742,0,0.00669065210968256,0.0124446926638484,-0.002044770633801818,2.9975593090057373,1.0050393342971802,-9.167227745056152,0,0,32.56078338623047,1,1,1531,191
155.91357600,155913576,0,0.006445803213864565,0.009788262657821178,-0.0018510848749428988,2.99711012840271,1.0043553113937378,-9.166865348815918,0,0,32.56085205078125,1,1,1531,191
155.92185800,155921858,0,0.0062241689302027225,0.007148606702685356,-0.0015869501512497663,2.996748447418213,1.003560185432434,-9.166696548461914,0,0,32.56093978881836,1,1,1531,191
155.92975700,155929757,0,0.005992735270410776,0.005100923590362072,-0.0014103358844295144,2.996403932571411,1.00277578830719,-9.166828155517578,0,0,32.56101608276367,1,1,1531,191
155.93764600,155937646,0,0.005756780039519072,0.0039341384544968605,-0.001400086679495871,2.9959757328033447,1.002120018005371,-9.167160034179688,0,0,32.561134338378906,1,1,1531,191
155.94579100,155945791,0,0.005688305012881756,0.0038431219290941954,-0.0015139044262468815,2.9956154823303223,1.0016496181488037,-9.167585372924805,0,0,32.56133270263672,1,1,1531,191
155.95327900,155953279,0,0.005877156741917133,0.004773095715790987,-0.0016433036653324962,2.9954891204833984,1.0013537406921387,-9.168107986450195,0,0,32.56158447265625,1,1,1531,191
155.96143800,155961438,0,0.006144641432911158,0.006500918883830309,-0.001763401203788817,2.995556116104126,1.0012046098709106,-9.16855525970459,0,0,32.561859130859375,1,1,1531,191
155.96960300,155969603,0,0.006318814121186733,0.008729266002774239,-0.0019333953969180584,2.9955837726593018,1.0011882781982422,-9.16882610321045,0,0,32.56208801269531,1,1,1531,191
155.97729900,155977299,0,0.006358493585139513,0.010968521237373352,-0.0020984190050512552,2.9953556060791016,1.0011646747589111,-9.168974876403809,0,0,32.56236267089844,1,1,1531,191
155.98528400,155985284,0,0.006313947960734367,0.0128049710765481,-0.002160480013117194,2.9948041439056396,1.00098717212677,-9.168851852416992,0,0,32.56268310546875,1,1,1531,191
155.99389800,155993898,0,0.0062616667710244656,0.014105429872870445,-0.0020702038891613483,2.9939489364624023,1.0006906986236572,-9.168293952941895,0,0,32.5629997253418,1,1,1531,191
156.00171800,156001718,0,0.006328938063234091,0.014721397310495377,-0.0018788899760693312,2.9929354190826416,1.0004802942276,-9.167295455932617,0,0,32.56322479248047,1,1,1531,191
156.01064000,156010640,0,0.0064216661266982555,0.014307872392237186,-0.0017183121526613832,2.991899251937866,1.0004661083221436,-9.165959358215332,0,0,32.563385009765625,1,1,1531,191
156.01800400,156018004,0,0.006400570273399353,0.012776494026184082,-0.0016283965669572353,2.990987539291382,1.0004465579986572,-9.16446304321289,0,0,32.56358337402344,1,1,1531,191
156.02677800,156026778,0,0.006370045244693756,0.010541580617427826,-0.0015576607547700405,2.990335702896118,1.0002975463867188,-9.16305923461914,0,0,32.56381607055664,1,1,1531,191
156.03469300,156034693,0,0.006317948456853628,0.00814348179847002,-0.0014371548313647509,2.9899580478668213,1.0001636743545532,-9.161921501159668,0,0,32.56406021118164,1,1,1531,191
156.04279600,156042796,0,0.006236145738512278,0.006030835211277008,-0.0012754074996337295,2.9897525310516357,1.0001094341278076,-9.16091537475586,0,0,32.56422424316406,1,1,1531,191
156.05041800,156050418,0,0.006170851644128561,0.004541633650660515,-0.001162380096502602,2.9895899295806885,1.0000020265579224,-9.160037994384766,0,0,32.56437683105469,1,1,1531,191
156.05843900,156058439,0,0.006137573625892401,0.0038304601330310106,-0.0011409150902181864,2.989436388015747,0.9997872114181519,-9.159493446350098,0,0,32.56450271606445,1,1,1531,191
156.06666400,156066664,0,0.0061769550666213036,0.004077882505953312,-0.0012397782411426306,2.9892709255218506,0.9995308518409729,-9.159187316894531,0,0,32.564697265625,1,1,1531,191
156.07430400,156074304,0,0.0062204524874687195,0.00548877939581871,-0.0015503190224990249,2.989086866378784,0.9992550015449524,-9.159019470214844,0,0,32.56485366821289,1,1,1531,191
156.08230600,156082306,0,0.006170373409986496,0.007821793667972088,-0.00199878984130919,2.9888291358947754,0.9989627599716187,-9.159069061279297,0,0,32.565025329589844,1,1,1531,191
156.09088900,156090889,0,0.006126838736236095,0.010310391895473003,-0.0023080443497747183,2.988466501235962,0.998687207698822,-9.159319877624512,0,0,32.56533432006836,1,1,1531,191
156.09829500,156098295,0,0.006206722930073738,0.012099561281502247,-0.0023194104433059692,2.988074541091919,0.9984605312347412,-9.159675598144531,0,0,32.565696716308594,1,1,1531,191
156.10627400,156106274,0,0.00643696915358305,0.012825246900320053,-0.0021082337480038404,2.9876415729522705,0.9983108639717102,-9.160088539123535,0,0,32.566017150878906,1,1,1531,191
156.11468900,156114689,0,0.0066644879989326,0.012551333755254745,-0.0018894863314926624,2.987123727798462,0.9981679320335388,-9.160484313964844,0,0,32.566261291503906,1,1,1531,191
156.12275200,156122752,0,0.00668142456561327,0.011541569605469704,-0.0017482548719272017,2.986647129058838,0.9978830218315125,-9.160626411437988,0,0,32.5663948059082,1,1,1529,191
156.13029600,156130296,0,0.0064947460778057575,0.01014544628560543,-0.0016084100352600217,2.986354351043701,0.9975274801254272,-9.16043758392334,0,0,32.56651306152344,1,1,1529,191
156.13863900,156138639,0,0.006293921265751123,0.008778427727520466,-0.0013275679666548967,2.9862475395202637,0.9972978830337524,-9.160091400146484,0,0,32.566619873046875,1,1,1529,191
156.14625800,156146258,0,0.006256001070141792,0.007846210151910782,-0.0009903964819386601,2.9863197803497314,0.9972594976425171,-9.159651756286621,0,0,32.56675720214844,1,1,1529,191
156.15444200,156154442,0,0.0062971049919724464,0.007428300566971302,-0.000917022000066936,2.986494541168213,0.997344434261322,-9.159285545349121,0,0,32.566810607910156,1,1,1529,191
156.16304800,156163048,0,0.006209715269505978,0.00752093642950058,-0.0011095344088971615,2.986694097518921,0.9973733425140381,-9.159281730651855,0,0,32.56679916381836,1,1,1529,191
156.17025000,156170250,0,0.006064436864107847,0.008060540072619915,-0.0013412475818768144,2.986922025680542,0.9972354769706726,-9.159760475158691,0,0,32.566707611083984,1,1,1529,191
156.17827400,156178274,0,0.006074635777622461,0.00871281884610653,-0.0013623194536194205,2.987090826034546,0.9969993829727173,-9.160552024841309,0,0,32.56666564941406,1,1,1529,191
156.18660500,156186605,0,0.006123205181211233,0.009315204806625843,-0.0011618421413004398,2.987152338027954,0.9967397451400757,-9.161298751831055,0,0,32.566688537597656,1,1,1529,191
156.19431000,156194310,0,0.006158951669931412,0.009962820447981358,-0.001010518055409193,2.987229108810425,0.996471107006073,-9.161931991577148,0,0,32.56678771972656,1,1,1529,191
156.20241400,156202414,0,0.006331919226795435,0.010676302947103977,-0.0009859397541731596,2.987441301345825,0.9962486624717712,-9.1626615524292,0,0,32.566810607910156,1,1,1529,191
156.21068000,156210680,0,0.0065195090137422085,0.011262279935181141,-0.0010721791768446565,2.987773895263672,0.9961380362510681,-9.163516998291016,0,0,32.56668472290039,1,1,1529,191
156.21882400,156218824,0,0.0065140314400196075,0.011316604912281036,-0.0012933706166222692,2.9882349967956543,0.9961264729499817,-9.164286613464355,0,0,32.56657791137695,1,1,1529,191
156.22645700,156226457,0,0.006469829939305782,0.010607944801449776,-0.001600297400727868,2.988905668258667,0.9962185621261597,-9.164944648742676,0,0,32.56653594970703,1,1,1529,191
156.23511300,156235113,0,0.00663952250033617,0.009231140837073326,-0.0018828129395842552,2.9897353649139404,0.9964430928230286,-9.165675163269043,0,0,32.566497802734375,1,1,1529,191
156.24272300,156242723,0,0.007017515134066343,0.0075308578088879585,-0.002049590228125453,2.9905529022216797,0.9967405200004578,-9.16655445098877,0,0,32.56645965576172,1,1,1529,191
156.25063300,156250633,0,0.0072704185731709,0.005921421572566032,-0.0021247761324048042,2.991257667541504,0.9970974922180176,-9.167600631713867,0,0,32.5664176940918,1,1,1529,191
156.25863300,156258633,0,0.007077130023390055,0.0047586713917553425,-0.002150307409465313,2.991826295852661,0.9975754618644714,-9.168685913085938,0,0,32.566383361816406,1,1,1529,191
156.26631700,156266317,0,0.006565683521330357,0.004460363183170557,-0.0021566394716501236,2.992211103439331,0.9981078505516052,-9.169529914855957,0,0,32.566444396972656,1,1,1529,191
156.27430200,156274302,0,0.006039888598024845,0.005238279700279236,-0.0021953380201011896,2.992342948913574,0.9985655546188354,-9.169967651367188,0,0,32.56652069091797,1,1,1529,191
156.28268100,156282681,0,0.00575928995385766,0.0069351401180028915,-0.0021621440537273884,2.992189645767212,0.9989215135574341,-9.170158386230469,0,0,32.56660079956055,1,1,1529,191
156.29031000,156290310,0,0.005780751351267099,0.009242551401257515,-0.00206458056345582,2.99177622795105,0.9992661476135254,-9.170439720153809,0,0,32.566768646240234,1,1,1529,191
156.29829800,156298298,0,0.005984490737318993,0.011781610548496246,-0.002014902886003256,2.991187572479248,0.9996980428695679,-9.170685768127441,0,0,32.56697082519531,1,1,1529,191
156.30669900,156306699,0,0.006349135190248489,0.014045513235032558,-0.0019223487470299006,2.9906280040740967,1.0001685619354248,-9.170598030090332,0,0,32.567142486572266,1,1,1529,191
156.31442200,156314422,0,0.006791071034967899,0.015550853684544563,-0.0018181264167651534,2.9902048110961914,1.000604510307312,-9.170230865478516,0,0,32.56734848022461,1,1,1529,191
156.32272400,156322724,0,0.006985305808484554,0.015929868444800377,-0.0017522122943773866,2.989884614944458,1.00112783908844,-9.169713020324707,0,0,32.56755828857422,1,1,1529,191
156.33061700,156330617,0,0.006771850399672985,0.014822413213551044,-0.0017193298554047942,2.9896280765533447,1.001792073249817,-9.169044494628906,0,0,32.56775665283203,1,1,1529,191
156.33830000,156338300,0,0.0063629173673689365,0.012308521196246147,-0.0017510086763650179,2.9893319606781006,1.002467393875122,-9.168180465698242,0,0,32.56797409057617,1,1,1529,191
156.34653300,156346533,0,0.0060755182057619095,0.00909916777163744,-0.0018190271221101284,2.988905906677246,1.0031824111938477,-9.167165756225586,0,0,32.56813049316406,1,1,1529,191
156.35467600,156354676,0,0.006072934251278639,0.005842192098498344,-0.0018768570153042674,2.9883310794830322,1.0040040016174316,-9.166172981262207,0,0,32.56825256347656,1,1,1529,191
156.36229600,156362296,0,0.00631881644949317,0.003095477120950818,-0.001915686298161745,2.987703561782837,1.0047633647918701,-9.165289878845215,0,0,32.56846618652344,1,1,1529,191
156.37024200,156370242,0,0.006540796719491482,0.0016249518375843763,-0.0019197161309421062,2.987192153930664,1.0052921772003174,-9.164521217346191,0,0,32.568687438964844,1,1,1529,191
156.37889000,156378890,0,0.006561436224728823,0.001821266021579504,-0.001832023379392922,2.9868266582489014,1.005674958229065,-9.163946151733398,0,0,32.568912506103516,1,1,1529,191
156.38627300,156386273,0,0.0065753585658967495,0.0035126463044434786,-0.001710616983473301,2.986560106277466,1.0059361457824707,-9.163668632507324,0,0,32.569122314453125,1,1,1529,191
156.39427400,156394274,0,0.006625041831284761,0.006297498010098934,-0.0016562032978981733,2.986433744430542,1.0060008764266968,-9.163662910461426,0,0,32.569278717041016,1,1,1529,191
156.40262600,156402626,0,0.006576203275471926,0.00957577209919691,-0.0017284314380958676,2.986506462097168,1.0059242248535156,-9.163667678833008,0,0,32.56944274902344,1,1,1529,191
156.41045600,156410456,0,0.00648090522736311,0.012671656906604767,-0.0018868936458602548,2.9867451190948486,1.0056287050247192,-9.163546562194824,0,0,32.56964111328125,1,1,1529,191
156.41981200,156419812,0,0.006448980886489153,0.014862895011901855,-0.001982918009161949,2.9869866371154785,1.0050135850906372,-9.1633882522583,0,0,32.56977844238281,1,1,1529,191
156.42659800,156426598,0,0.006410000380128622,0.015683265402913094,-0.001994275487959385,2.9871573448181152,1.004310131072998,-9.163026809692383,0,0,32.569915771484375,1,1,1529,191
156.43429500,156434295,0,0.006352603435516357,0.015163592994213104,-0.00203412096016109,2.9873569011688232,1.003799557685852,-9.162252426147461,0,0,32.57012176513672,1,1,1529,191
156.44288500,156442885,0,0.006411504000425339,0.01342908013612032,-0.00208443496376276,2.9876937866210938,1.0034061670303345,-9.1611967086792,0,0,32.57033157348633,1,1,1529,191
156.45029100,156450291,0,0.006690494250506163,0.010883177630603313,-0.002050581853836775,2.988232135772705,1.0029336214065552,-9.160040855407715,0,0,32.570533752441406,1,1,1529,191
156.45829300,156458293,0,0.007051553577184677,0.008249116130173206,-0.0019725868478417397,2.9888784885406494,1.0024584531784058,-9.158919334411621,0,0,32.570762634277344,1,1,1529,191
156.46662800,156466628,0,0.007254892960190773,0.006203049328178167,-0.0018449720228090882,2.9894793033599854,1.0021642446517944,-9.157962799072266,0,0,32.57095718383789,1,1,1529,191
156.47445500,156474455,0,0.007263610605150461,0.005162231624126434,-0.0016021088231354952,2.9900498390197754,1.0020689964294434,-9.157224655151367,0,0,32.57117462158203,1,1,1529,191
156.48226000,156482260,0,0.007128180004656315,0.005251956172287464,-0.0013969938736408949,2.990622043609619,1.0020583868026733,-9.156774520874023,0,0,32.571434020996094,1,1,1529,191
156.49089200,156490892,0,0.006999380886554718,0.0063401940278708935,-0.001386413350701332,2.9910354614257812,1.0020804405212402,-9.15666389465332,0,0,32.57169723510742,1,1,1529,191
156.49870000,156498700,0,0.006981929764151573,0.007906814105808735,-0.0014782649232074618,2.991211414337158,1.0021214485168457,-9.156956672668457,0,0,32.57194519042969,1,1,1529,191
156.50679000,156506790,0,0.00699948612600565,0.009423460811376572,-0.0015567567897960544,2.9913477897644043,1.0021740198135376,-9.157551765441895,0,0,32.57221984863281,1,1,1529,191
156.51481600,156514816,0,0.00699378689751029,0.01063552126288414,-0.001651811064220965,2.991485357284546,1.0023276805877686,-9.158159255981445,0,0,32.57255935668945,1,1,1529,191
156.52267700,156522677,0,0.006945902016013861,0.011469567194581032,-0.0018057003617286682,2.9914886951446533,1.0026999711990356,-9.158759117126465,0,0,32.57291030883789,1,1,1529,191
156.53072400,156530724,0,0.006833168677985668,0.011914261616766453,-0.0018613453721627593,2.991393566131592,1.0034154653549194,-9.159326553344727,0,0,32.57329177856445,1,1,1529,191
156.53875600,156538756,0,0.006746671628206968,0.011717825196683407,-0.0017851508455350995,2.9913077354431152,1.0044559240341187,-9.159741401672363,0,0,32.57367706298828,1,1,1529,191
156.54626000,156546260,0,0.0067185708321630955,0.010640434920787811,-0.0017563988221809268,2.9912264347076416,1.0056155920028687,-9.160210609436035,0,0,32.574092864990234,1,1,1529,191
156.55427900,156554279,0,0.006671893410384655,0.009072992019355297,-0.0016961375949904323,2.990996837615967,1.006776213645935,-9.16098403930664,0,0,32.574554443359375,1,1,1529,191
156.56288800,156562888,0,0.006578550674021244,0.007651922758668661,-0.00151970109436661,2.990595579147339,1.007920742034912,-9.161934852600098,0,0,32.57506561279297,1,1,1529,191
156.57071700,156570717,0,0.006480555050075054,0.006838918197900057,-0.0014227920910343528,2.9901926517486572,1.008997917175293,-9.162897109985352,0,0,32.57564926147461,1,1,1529,191
156.57873800,156578738,0,0.006447570398449898,0.006836737506091595,-0.0014770685229450464,2.98984694480896,1.0099762678146362,-9.163795471191406,0,0,32.576316833496094,1,1,1529,191
156.58709900,156587099,0,0.006501229479908943,0.007450365461409092,-0.0016241567209362984,2.9895598888397217,1.0108174085617065,-9.164397239685059,0,0,32.577056884765625,1,1,1529,191
156.59427800,156594278,0,0.006569773890078068,0.008288860321044922,-0.00183251837734133,2.989356756210327,1.0114003419876099,-9.164605140686035,0,0,32.57779312133789,1,1,1529,191
156.60241600,156602416,0,0.006644146982580423,0.009078060276806355,-0.002005739836022258,2.9892780780792236,1.0116515159606934,-9.16456127166748,0,0,32.57847213745117,1,1,1529,191
156.61063100,156610631,0,0.006693718954920769,0.009772656485438347,-0.002052635420113802,2.989413261413574,1.011694312095642,-9.164436340332031,0,0,32.57917404174805,1,1,1529,191
156.61870500,156618705,0,0.006534690037369728,0.01041104644536972,-0.001932653016410768,2.989643096923828,1.011576771736145,-9.164446830749512,0,0,32.57989501953125,1,1,1529,191
156.62657300,156626573,0,0.006183774676173925,0.01106598973274231,-0.001780410180799663,2.9896864891052246,1.0112112760543823,-9.1647367477417,0,0,32.58062744140625,1,1,1529,191
156.63464300,156634643,0,0.0059243557043373585,0.011654697358608246,-0.0017963298596441746,2.9895741939544678,1.010684609413147,-9.16537094116211,0,0,32.58136749267578,1,1,1529,191
156.64225800,156642258,0,0.005980442278087139,0.011872053146362305,-0.0019135877955704927,2.989560127258301,1.009993076324463,-9.166223526000977,0,0,32.58202362060547,1,1,1529,191
156.65025400,156650254,0,0.006241048686206341,0.011361829936504364,-0.0019431367982178926,2.9896657466888428,1.0090622901916504,-9.167040824890137,0,0,32.582740783691406,1,1,1529,191
156.65865200,156658652,0,0.006455294322222471,0.010080802254378796,-0.0019278234103694558,2.9896905422210693,1.0080347061157227,-9.16783332824707,0,0,32.58352279663086,1,1,1529,191
156.66651300,156666513,0,0.006528034806251526,0.008509441278874874,-0.001981580164283514,2.9895083904266357,1.0070103406906128,-9.168837547302246,0,0,32.58427429199219,1,1,1529,191
156.67431500,156674315,0,0.006547332741320133,0.007296999450773001,-0.0020427098497748375,2.9891953468322754,1.0060070753097534,-9.170266151428223,0,0,32.58507537841797,1,1,1529,191
156.68267900,156682679,0,0.0065726893953979015,0.006907339673489332,-0.0020914850756525993,2.988908052444458,1.0050941705703735,-9.171989440917969,0,0,32.58586883544922,1,1,1529,191
156.69029400,156690294,0,0.006585768889635801,0.0072452351450920105,-0.0020636199042201042,2.9886972904205322,1.0043624639511108,-9.173568725585938,0,0,32.586647033691406,1,1,1529,191
156.69831600,156698316,0,0.006624023430049419,0.007689458318054676,-0.0018246944528073072,2.988473415374756,1.0039008855819702,-9.174838066101074,0,0,32.5874137878418,1,1,1529,191
156.70670200,156706702,0,0.006688598543405533,0.007897771894931793,-0.001539542805403471,2.9882426261901855,1.0036749839782715,-9.175893783569336,0,0,32.58817672729492,1,1,1529,191
156.71441100,156714411,0,0.006714298389852047,0.008121367543935776,-0.0013238388346508145,2.9881410598754883,1.0035098791122437,-9.176680564880371,0,0,32.588958740234375,1,1,1529,191
156.72271900,156722719,0,0.006725349463522434,0.008707882836461067,-0.0011418226640671492,2.9882194995880127,1.0032777786254883,-9.177055358886719,0,0,32.589786529541016,1,1,1529,191
156.73097400,156730974,0,0.006777938921004534,0.009721877984702587,-0.0011804767418652773,2.9884135723114014,1.0030409097671509,-9.177000999450684,0,0,32.5905647277832,1,1,1529,191
156.73828100,156738281,0,0.006809606216847897,0.011082496494054794,-0.0014551045605912805,2.9886481761932373,1.0029571056365967,-9.176597595214844,0,0,32.59132385253906,1,1,1529,191
156.74628900,156746289,0,0.006799039896577597,0.01249038428068161,-0.0017100805416703224,2.98881459236145,1.0030637979507446,-9.17598819732666,0,0,32.592124938964844,1,1,1529,191
156.75462800,156754628,0,0.006798447575420141,0.013249603100121021,-0.0018920490983873606,2.988800287246704,1.0032434463500977,-9.175298690795898,0,0,32.59288787841797,1,1,1529,191
156.76226300,156762263,0,0.006793825421482325,0.012941420078277588,-0.001996782375499606,2.98869252204895,1.003386378288269,-9.174703598022461,0,0,32.59352111816406,1,1,1529,191
156.77029400,156770294,0,0.0068139489740133286,0.0117844482883811,-0.001966184237971902,2.988731861114502,1.003387451171875,-9.174497604370117,0,0,32.594268798828125,1,1,1529,191
156.77872200,156778722,0,0.006999691482633352,0.010272465646266937,-0.0019025399815291166,2.9890518188476562,1.0029938220977783,-9.174724578857422,0,0,32.594913482666016,1,1,1529,191
156.78625900,156786259,0,0.007133045699447393,0.008773300796747208,-0.001824087230488658,2.989487648010254,1.0021867752075195,-9.175036430358887,0,0,32.59556579589844,1,1,1529,191
156.79430700,156794307,0,0.006948932074010372,0.007541595958173275,-0.001708629890345037,2.9897828102111816,1.001380443572998,-9.175252914428711,0,0,32.59627151489258,1,1,1529,191
156.80320500,156803205,0,0.006650929804891348,0.006710789632052183,-0.0016572547610849142,2.98984956741333,1.0007867813110352,-9.17554759979248,0,0,32.59690475463867,1,1,1529,191
156.81025900,156810259,0,0.006481104530394077,0.0062192510813474655,-0.0017052199691534042,2.9896950721740723,1.000359058380127,-9.176097869873047,0,0,32.59749221801758,1,1,1529,191
156.81877000,156818770,0,0.006501678843051195,0.006258213426917791,-0.001842366997152567,2.9894092082977295,1.000235915184021,-9.17690658569336,0,0,32.59801483154297,1,1,1529,191
156.82673000,156826730,0,0.0066656069830060005,0.007061314303427935,-0.0020333302672952414,2.989144802093506,1.0005366802215576,-9.177690505981445,0,0,32.59844970703125,1,1,1529,191
156.83424100,156834241,0,0.006857492960989475,0.008365794084966183,-0.002106082858517766,2.9890451431274414,1.0011329650878906,-9.178252220153809,0,0,32.59885787963867,1,1,1529,191
156.84227200,156842272,0,0.006962067447602749,0.009645967744290829,-0.0019329870119690895,2.989159345626831,1.0018397569656372,-9.178814888000488,0,0,32.59940719604492,1,1,1529,191
156.85066600,156850666,0,0.006952349562197924,0.010641852393746376,-0.0016652945196256042,2.989466905593872,1.0025321245193481,-9.179469108581543,0,0,32.59986114501953,1,1,1529,191
156.85854000,156858540,0,0.006854243576526642,0.011415905319154263,-0.0015516080893576145,2.989938974380493,1.003073811531067,-9.180057525634766,0,0,32.60029602050781,1,1,1529,191
156.86643500,156866435,0,0.006760207004845142,0.011806486174464226,-0.0016166643472388387,2.9905171394348145,1.0034223794937134,-9.180521965026855,0,0,32.60076904296875,1,1,1529,191
156.87480900,156874809,0,0.006733892951160669,0.011403553187847137,-0.0016570863081142306,2.991295337677002,1.0036616325378418,-9.180770874023438,0,0,32.601219177246094,1,1,1529,191
156.88231400,156882314,0,0.006759965792298317,0.01022510789334774,-0.0015250188298523426,2.9923510551452637,1.0038230419158936,-9.180639266967773,0,0,32.60163116455078,1,1,1529,191
156.89057500,156890575,0,0.006709016859531403,0.008644013665616512,-0.0012686296831816435,2.9935662746429443,1.0039057731628418,-9.180014610290527,0,0,32.602046966552734,1,1,1529,191
156.89888700,156898887,0,0.006537000648677349,0.0070898206904530525,-0.0010073998710140586,2.994777202606201,1.0038788318634033,-9.179048538208008,0,0,32.60242462158203,1,1,1529,191
156.90664500,156906645,0,0.006331712007522583,0.005957922898232937,-0.0007850356050767004,2.9958832263946533,1.0037410259246826,-9.178024291992188,0,0,32.60274124145508,1,1,1529,191
156.91467000,156914670,0,0.006147424690425396,0.0055542285554111,-0.0006693204049952328,2.996866464614868,1.0035691261291504,-9.177058219909668,0,0,32.60307693481445,1,1,1529,191
156.92293600,156922936,0,0.006136825308203697,0.006271297577768564,-0.0007548355497419834,2.9977238178253174,1.0034066438674927,-9.17605209350586,0,0,32.6033821105957,1,1,1529,191
156.93068500,156930685,0,0.006236642133444548,0.008135608397424221,-0.0009802889544516802,2.9984776973724365,1.0031485557556152,-9.174823760986328,0,0,32.603721618652344,1,1,1529,191
156.93840000,156938400,0,0.006316051818430424,0.010530414991080761,-0.0011997880646958947,2.999093770980835,1.002587080001831,-9.17343521118164,0,0,32.604034423828125,1,1,1529,191
156.94693900,156946939,0,0.006358205806463957,0.012712805531919003,-0.0013189570745453238,2.999567747116089,1.001741647720337,-9.172126770019531,0,0,32.6042594909668,1,1,1529,191
156.95432700,156954327,0,0.006373800337314606,0.014133445918560028,-0.0013988896971568465,2.9999444484710693,1.0007938146591187,-9.171009063720703,0,0,32.60447692871094,1,1,1529,191
156.96231800,156962318,0,0.006390985567122698,0.014582761563360691,-0.0015682971570640802,3.0003228187561035,0.9998869299888611,-9.170135498046875,0,0,32.60460662841797,1,1,1529,191
156.97071100,156970711,0,0.006421352736651897,0.013973193243145943,-0.00184248061850667,3.0008506774902344,0.9992108345031738,-9.169350624084473,0,0,32.60477828979492,1,1,1529,191
156.97830100,156978301,0,0.0065339417196810246,0.01213962770998478,-0.0020580836571753025,3.001499891281128,0.998784065246582,-9.168338775634766,0,0,32.604957580566406,1,1,1529,191
156.98642600,156986426,0,0.006610873155295849,0.00933884084224701,-0.0019580223597586155,3.002131462097168,0.9984996318817139,-9.166951179504395,0,0,32.6052131652832,1,1,1529,191
156.99486500,156994865,0,0.00647607259452343,0.0063132233917713165,-0.0015380654949694872,3.002650499343872,0.9984835982322693,-9.165384292602539,0,0,32.60544967651367,1,1,1529,191
157.00263700,157002637,0,0.00621778191998601,0.003975633531808853,-0.0011809930438175797,3.0028586387634277,0.9988434910774231,-9.16402530670166,0,0,32.60569381713867,1,1,1529,191
157.01070600,157010706,0,0.006048221606761217,0.0031729016918689013,-0.001185710309073329,3.002584934234619,0.9994789361953735,-9.16296672821045,0,0,32.60588073730469,1,1,1529,191
157.01920300,157019203,0,0.0059931715950369835,0.004138121847063303,-0.001368677825666964,3.001981019973755,1.0003858804702759,-9.162165641784668,0,0,32.606056213378906,1,1,1529,191
157.02674100,157026741,0,0.00595028605312109,0.006277973297983408,-0.0014716212172061205,3.00117826461792,1.0015863180160522,-9.161550521850586,0,0,32.60630798339844,1,1,1529,191
157.03458900,157034589,0,0.005889733787626028,0.00872996635735035,-0.001514371600933373,3.0001401901245117,1.0029200315475464,-9.161064147949219,0,0,32.606544494628906,1,1,1529,191
157.04265200,157042652,0,0.005879154894500971,0.010811425745487213,-0.0015543588669970632,2.998967409133911,1.0042555332183838,-9.16057014465332,0,0,32.60678482055664,1,1,1529,191
157.05031900,157050319,0,0.00595999276265502,0.012139932252466679,-0.0015577414305880666,2.997786283493042,1.0055503845214844,-9.15958309173584,0,0,32.606937408447266,1,1,1529,191
157.05832700,157058327,0,0.006093013100326061,0.012532644905149937,-0.0015530999517068267,2.996514320373535,1.006706714630127,-9.158003807067871,0,0,32.60711669921875,1,1,1529,191
157.06669200,157066692,0,0.00636629480868578,0.012030849233269691,-0.001664241193793714,2.9950640201568604,1.0076818466186523,-9.156384468078613,0,0,32.607322692871094,1,1,1529,191
157.07428800,157074288,0,0.006697508972138166,0.011148657649755478,-0.0018892769003286958,2.993485450744629,1.0084314346313477,-9.155165672302246,0,0,32.60753631591797,1,1,1529,191
157.08231100,157082311,0,0.0067671192809939384,0.010336439125239849,-0.002038354752585292,2.9918606281280518,1.0088316202163696,-9.154480934143066,0,0,32.60773468017578,1,1,1529,191
157.09069600,157090696,0,0.00659802183508873,0.009557598270475864,-0.001990821911022067,2.9902098178863525,1.0089120864868164,-9.15430736541748,0,0,32.60794448852539,1,1,1529,191
157.09830700,157098307,0,0.006344787310808897,0.008661624044179916,-0.0018378433305770159,2.98846173286438,1.0087417364120483,-9.154607772827148,0,0,32.60808563232422,1,1,1529,191
157.10631100,157106311,0,0.0060608829371631145,0.007698382250964642,-0.0017208653734996915,2.9865376949310303,1.008344292640686,-9.155226707458496,0,0,32.60822296142578,1,1,1529,190
157.11526000,157115260,0,0.00585273839533329,0.006942220497876406,-0.00158143718726933,2.984438896179199,1.0078567266464233,-9.155853271484375,0,0,32.6083984375,1,1,1529,190
157.12271300,157122713,0,0.005788649432361126,0.006761037744581699,-0.001375052728690207,2.982311248779297,1.0075035095214844,-9.156438827514648,0,0,32.608551025390625,1,1,1529,190
157.13045000,157130450,0,0.005827479064464569,0.007300723344087601,-0.0012598985340446234,2.9804091453552246,1.0074830055236816,-9.157159805297852,0,0,32.608699798583984,1,1,1528,190
157.13866400,157138664,0,0.005942469462752342,0.00840698555111885,-0.0013224019203335047,2.978776216506958,1.0078775882720947,-9.157962799072266,0,0,32.608863830566406,1,1,1528,190
157.14627500,157146275,0,0.006094484124332666,0.009870459325611591,-0.0014784808736294508,2.977238655090332,1.0085355043411255,-9.158588409423828,0,0,32.60907745361328,1,1,1528,190
157.15430000,157154300,0,0.00615629693493247,0.01133435033261776,-0.0015842849388718605,2.9758262634277344,1.0092180967330933,-9.159032821655273,0,0,32.609214782714844,1,1,1528,190
157.16281500,157162815,0,0.0061724367551505566,0.01232617162168026,-0.001608125283382833,2.974663019180298,1.0098917484283447,-9.159542083740234,0,0,32.609352111816406,1,1,1528,190
157.17032500,157170325,0,0.006266188807785511,0.012730545364320278,-0.0016331502702087164,2.97367787361145,1.0105297565460205,-9.160258293151855,0,0,32.609554290771484,1,1,1528,190
157.17850900,157178509,0,0.006352385506033897,0.012571348808705807,-0.0017956524388864636,2.972815990447998,1.0109981298446655,-9.161162376403809,0,0,32.60972595214844,1,1,1528,190
157.18669400,157186694,0,0.006312347948551178,0.011681263335049152,-0.001967109041288495,2.9722578525543213,1.0112484693527222,-9.162288665771484,0,0,32.60987854003906,1,1,1528,190
157.19426900,157194269,0,0.006262393668293953,0.010098394937813282,-0.001829146989621222,2.972123861312866,1.011412501335144,-9.16362190246582,0,0,32.6099739074707,1,1,1528,190
157.20226900,157202269,0,0.006322041619569063,0.008166342042386532,-0.001493152230978012,2.9722890853881836,1.0116322040557861,-9.164936065673828,0,0,32.61005783081055,1,1,1528,190
157.21066800,157210668,0,0.006480712443590164,0.00649938965216279,-0.0011579495621845126,2.9726951122283936,1.0118516683578491,-9.1660795211792,0,0,32.61008071899414,1,1,1528,190
157.21863200,157218632,0,0.006624494679272175,0.005713596474379301,-0.000899624777957797,2.973452568054199,1.0118693113327026,-9.1670503616333,0,0,32.610084533691406,1,1,1528,190
157.22658700,157226587,0,0.00668333237990737,0.005991409067064524,-0.0008912862394936383,2.9745843410491943,1.0114673376083374,-9.167863845825195,0,0,32.61013412475586,1,1,1528,190
157.23487600,157234876,0,0.006741643883287907,0.007242116145789623,-0.0010674515506252646,2.9757814407348633,1.0105295181274414,-9.16842269897461,0,0,32.61009216308594,1,1,1528,190
157.24266100,157242661,0,0.006860822439193726,0.009138294495642185,-0.001286006299778819,2.9768545627593994,1.0091354846954346,-9.168606758117676,0,0,32.609954833984375,1,1,1528,190
157.25066700,157250667,0,0.006950433366000652,0.010989014990627766,-0.0014925120631232858,2.9779868125915527,1.0075387954711914,-9.16858959197998,0,0,32.609928131103516,1,1,1528,190
157.25875900,157258759,0,0.006852984894067049,0.01230907253921032,-0.0015909544890746474,2.979234457015991,1.005953311920166,-9.168722152709961,0,0,32.610023498535156,1,1,1528,190
157.26625300,157266253,0,0.006658382248133421,0.012933512218296528,-0.0015846763271838427,2.9803261756896973,1.0044441223144531,-9.169010162353516,0,0,32.61012268066406,1,1,1528,190
157.27441300,157274413,0,0.006505434401333332,0.012774481438100338,-0.0015606603119522333,2.9810891151428223,1.0030502080917358,-9.169269561767578,0,0,32.610206604003906,1,1,1528,190
157.28268300,157282683,0,0.00637528533115983,0.01206902414560318,-0.0016026169760152698,2.9817819595336914,1.0018336772918701,-9.169487953186035,0,0,32.61028289794922,1,1,1528,190
157.29028000,157290280,0,0.006237260065972805,0.011090376414358616,-0.0016789091750979424,2.9826748371124268,1.0007826089859009,-9.169689178466797,0,0,32.6103630065918,1,1,1528,190
157.29841300,157298413,0,0.006054993718862534,0.009872469119727612,-0.0016830493696033955,2.9836854934692383,0.9998759031295776,-9.170072555541992,0,0,32.610443115234375,1,1,1528,190
157.30713000,157307130,0,0.005790485069155693,0.008465115912258625,-0.0015795232029631734,2.9846413135528564,0.9992113709449768,-9.170851707458496,0,0,32.61053466796875,1,1,1528,190
157.31442000,157314420,0,0.005684439558535814,0.00717361643910408,-0.0014647952048107982,2.985502004623413,0.9989027976989746,-9.171821594238281,0,0,32.61061477661133,1,1,1528,190
157.32272800,157322728,0,0.005917275790125132,0.006368459668010473,-0.0014333885628730059,2.9862160682678223,0.9988403916358948,-9.172615051269531,0,0,32.61080551147461,1,1,1528,190
157.33065000,157330650,0,0.006311357021331787,0.0061685265973210335,-0.0014960282715037465,2.9867732524871826,0.9987433552742004,-9.173064231872559,0,0,32.61104202270508,1,1,1528,190
157.33829700,157338297,0,0.006665817461907864,0.006530065555125475,-0.0016755954129621387,2.9873199462890625,0.9985358119010925,-9.173094749450684,0,0,32.611328125,1,1,1528,190
157.34629900,157346299,0,0.006829239893704653,0.00751972571015358,-0.0018931872909888625,2.9879379272460938,0.9983137249946594,-9.172720909118652,0,0,32.611602783203125,1,1,1528,190
157.35469900,157354699,0,0.006751811597496271,0.008998253382742405,-0.0019622286781668663,2.9884965419769287,0.9980981945991516,-9.172155380249023,0,0,32.61186599731445,1,1,1528,190
157.36231200,157362312,0,0.006532373372465372,0.010394592769443989,-0.0018324479460716248,2.9888904094696045,0.9978418946266174,-9.17164421081543,0,0,32.612064361572266,1,1,1528,190
157.37032600,157370326,0,0.0064260768704116344,0.011174332350492477,-0.0016424186760559678,2.989157199859619,0.997636079788208,-9.171262741088867,0,0,32.61228561401367,1,1,1528,190
157.37866000,157378660,0,0.006588832475244999,0.011190195567905903,-0.0015676228795200586,2.9892935752868652,0.9975969195365906,-9.171142578125,0,0,32.61256790161133,1,1,1528,190
157.38625100,157386251,0,0.006875553634017706,0.010691089555621147,-0.0016283297445625067,2.989318609237671,0.9975470304489136,-9.171460151672363,0,0,32.61288833618164,1,1,1528,190
157.39428000,157394280,0,0.0071508451364934444,0.010023204609751701,-0.0017566753085702658,2.9892969131469727,0.9973445534706116,-9.17227840423584,0,0,32.61320877075195,1,1,1528,190
157.40262100,157402621,0,0.0073767732828855515,0.009494860656559467,-0.001940319431014359,2.989220380783081,0.9971107840538025,-9.173538208007812,0,0,32.613548278808594,1,1,1528,190
157.41031700,157410317,0,0.0073052081279456615,0.009218915365636349,-0.0020756821613758802,2.9890637397766113,0.9969439506530762,-9.174930572509766,0,0,32.61384201049805,1,1,1528,190
157.41880000,157418800,0,0.00704072043299675,0.009036162868142128,-0.0019959828350692987,2.988816738128662,0.9967359304428101,-9.176257133483887,0,0,32.61421203613281,1,1,1528,190
157.42671100,157426711,0,0.006980265490710735,0.008745545521378517,-0.0017183953896164894,2.988410711288452,0.996450662612915,-9.177587509155273,0,0,32.6146240234375,1,1,1528,190
157.43444200,157434442,0,0.0070220716297626495,0.008271876722574234,-0.0015027286717668176,2.9877994060516357,0.9963188171386719,-9.178750038146973,0,0,32.61503982543945,1,1,1528,190
157.44225200,157442252,0,0.006953536998480558,0.007899295538663864,-0.001393406535498798,2.987131357192993,0.9964152574539185,-9.179553985595703,0,0,32.615482330322266,1,1,1528,190
157.45141600,157451416,0,0.006838499568402767,0.008068890310823917,-0.0013233876088634133,2.986510753631592,0.996577262878418,-9.18028450012207,0,0,32.61594009399414,1,1,1528,190
157.45831000,157458310,0,0.00672437809407711,0.008873320184648037,-0.001481762737967074,2.985828161239624,0.9967913627624512,-9.181236267089844,0,0,32.61640548706055,1,1,1528,190
157.46632800,157466328,0,0.006546841934323311,0.010039392858743668,-0.0019080666825175285,2.9850995540618896,0.9971021413803101,-9.18237590789795,0,0,32.61687469482422,1,1,1528,190
157.47466700,157474667,0,0.0063451374880969524,0.010886932723224163,-0.0023067472502589226,2.98447322845459,0.9974116086959839,-9.183464050292969,0,0,32.61735534667969,1,1,1528,190
157.48225000,157482250,0,0.006234847474843264,0.010844361037015915,-0.002423988189548254,2.9839532375335693,0.9976800680160522,-9.184321403503418,0,0,32.61785888671875,1,1,1528,190
157.49074000,157490740,0,0.006216756999492645,0.010104530490934849,-0.0021639717742800713,2.9835643768310547,0.9978750944137573,-9.18487548828125,0,0,32.61841583251953,1,1,1528,190
157.49889400,157498894,0,0.006225676275789738,0.009187701158225536,-0.0015562099870294333,2.9833436012268066,0.9980180263519287,-9.185028076171875,0,0,32.61890411376953,1,1,1528,190
157.50672400,157506724,0,0.006328147370368242,0.008394140750169754,-0.001021782518364489,2.9832539558410645,0.9981958270072937,-9.184891700744629,0,0,32.61957550048828,1,1,1528,190
157.51472400,157514724,0,0.006528808269649744,0.007997579872608185,-0.0009154156432487071,2.983278274536133,0.998390257358551,-9.184762954711914,0,0,32.62017059326172,1,1,1528,190
157.52292200,157522922,0,0.006661428604274988,0.008275358937680721,-0.0011027080472558737,2.9833240509033203,0.9986663460731506,-9.184794425964355,0,0,32.6207160949707,1,1,1528,190
157.53067000,157530670,0,0.006672426592558622,0.009022964164614677,-0.001283345278352499,2.983222484588623,0.9990769028663635,-9.184802055358887,0,0,32.621299743652344,1,1,1528,190
157.53831700,157538317,0,0.006713118404150009,0.009755955077707767,-0.0013141926610842347,2.982837677001953,0.9996541738510132,-9.184523582458496,0,0,32.62196350097656,1,1,1528,190
157.54669300,157546693,0,0.0067392862401902676,0.01016202662140131,-0.0012481053126975894,2.982224225997925,1.0005406141281128,-9.183836936950684,0,0,32.622684478759766,1,1,1528,190
157.55426700,157554267,0,0.006575595121830702,0.010207842104136944,-0.001149037154391408,2.9816441535949707,1.0017732381820679,-9.182816505432129,0,0,32.6234016418457,1,1,1528,190
157.56264300,157562643,0,0.006347209215164185,0.01003795862197876,-0.0010778899304568768,2.981247663497925,1.003239393234253,-9.181877136230469,0,0,32.624088287353516,1,1,1528,190
157.57094300,157570943,0,0.006317759398370981,0.00989510491490364,-0.0010956870391964912,2.980963945388794,1.0047869682312012,-9.181356430053711,0,0,32.624717712402344,1,1,1528,190
157.57873000,157578730,0,0.0065322862938046455,0.009757828898727894,-0.0012058836873620749,2.9808053970336914,1.0062344074249268,-9.18114185333252,0,0,32.62535095214844,1,1,1528,190
157.58663500,157586635,0,0.006897552404552698,0.009371095336973667,-0.0013359473086893559,2.9808218479156494,1.0074445009231567,-9.180900573730469,0,0,32.6259880065918,1,1,1528,190
157.59497800,157594978,0,0.00725131668150425,0.008992965333163738,-0.0014836580958217382,2.9808754920959473,1.0083965063095093,-9.180489540100098,0,0,32.626590728759766,1,1,1528,190
157.60221800,157602218,0,0.007333466317504644,0.009169592522084713,-0.001736330334097147,2.9807870388031006,1.0090802907943726,-9.180221557617188,0,0,32.62718963623047,1,1,1528,190
157.61025100,157610251,0,0.007161034736782312,0.00982445478439331,-0.0019696757663041353,2.980483055114746,1.0095405578613281,-9.180400848388672,0,0,32.627662658691406,1,1,1528,190
157.61893900,157618939,0,0.006932268850505352,0.010424353182315826,-0.0020091796759516,2.9800240993499756,1.0099246501922607,-9.18077278137207,0,0,32.62826156616211,1,1,1528,190
157.62674900,157626749,0,0.006737489253282547,0.01070544682443142,-0.001998227322474122,2.9795260429382324,1.0102367401123047,-9.180890083312988,0,0,32.62880325317383,1,1,1528,190
157.63425200,157634252,0,0.006564413662999868,0.010577118024230003,-0.002069717040285468,2.9789390563964844,1.0103235244750977,-9.180584907531738,0,0,32.62931442260742,1,1,1528,190
157.64264500,157642645,0,0.006419168319553137,0.009961223229765892,-0.0020064658019691706,2.978348970413208,1.0101184844970703,-9.179986000061035,0,0,32.62982177734375,1,1,1528,190
157.65027100,157650271,0,0.006381611339747906,0.00888061709702015,-0.001665786374360323,2.9780588150024414,1.0097849369049072,-9.179287910461426,0,0,32.63036346435547,1,1,1528,190
157.65828200,157658282,0,0.006441611796617508,0.007665167562663555,-0.0011920923134312034,2.978053569793701,1.009503960609436,-9.178580284118652,0,0,32.63089370727539,1,1,1528,190
157.66666500,157666665,0,0.006519541144371033,0.007003861013799906,-0.0008913938654586673,2.978170394897461,1.009229302406311,-9.177818298339844,0,0,32.63145065307617,1,1,1528,190
157.67426000,157674260,0,0.006543203257024288,0.007370151113718748,-0.000976681592874229,2.9784083366394043,1.0088980197906494,-9.176847457885742,0,0,32.63203048706055,1,1,1528,190
157.68230300,157682303,0,0.006411288864910603,0.008528247475624084,-0.0012048146454617381,2.978792190551758,1.0085688829421997,-9.175681114196777,0,0,32.632591247558594,1,1,1528,190
157.69071000,157690710,0,0.006153790280222893,0.009856613352894783,-0.0013348187785595655,2.979323625564575,1.0083982944488525,-9.174635887145996,0,0,32.633087158203125,1,1,1528,190
157.69832000,157698320,0,0.006085091736167669,0.01092080119997263,-0.001533372444100678,2.979947328567505,1.0085266828536987,-9.174006462097168,0,0,32.63356399536133,1,1,1528,190
157.70631700,157706317,0,0.006392456591129303,0.01148463785648346,-0.0018794096540659666,2.980544328689575,1.0089033842086792,-9.173646926879883,0,0,32.634056091308594,1,1,1528,190
157.71474400,157714744,0,0.0067147002555429935,0.011338277719914913,-0.002090976806357503,2.981142044067383,1.0093132257461548,-9.173234939575195,0,0,32.63454055786133,1,1,1528,190
157.72280300,157722803,0,0.006843573413789272,0.010580765083432198,-0.001980857690796256,2.981876850128174,1.0095453262329102,-9.172823905944824,0,0,32.635066986083984,1,1,1528,190
157.73032000,157730320,0,0.006983840372413397,0.009754869155585766,-0.0017868768190965056,2.982792854309082,1.0094963312149048,-9.172530174255371,0,0,32.63563919067383,1,1,1528,190
157.73890300,157738903,0,0.007034392561763525,0.009252510033547878,-0.001707499730400741,2.983900547027588,1.0090875625610352,-9.17223072052002,0,0,32.63618087768555,1,1,1528,190
157.74630000,157746300,0,0.007000182755291462,0.00902378000319004,-0.0016212024493142962,2.985187292098999,1.0082608461380005,-9.171964645385742,0,0,32.636722564697266,1,1,1528,190
157.75431800,157754318,0,0.00706498371437192,0.008826304227113724,-0.0016044143121689558,2.986497640609741,1.0071710348129272,-9.171908378601074,0,0,32.6372184753418,1,1,1528,190
157.76319100,157763191,0,0.007180836517363787,0.00849830824881792,-0.0017816757317632437,2.9877140522003174,1.0061460733413696,-9.172117233276367,0,0,32.63777542114258,1,1,1528,190
157.77025800,157770258,0,0.00722163263708353,0.008164118975400925,-0.0020304068457335234,2.9888174533843994,1.0053231716156006,-9.17264175415039,0,0,32.63835525512695,1,1,1528,190
157.77827800,157778278,0,0.0071442318148911,0.008097474463284016,-0.0022465395741164684,2.9897758960723877,1.00462007522583,-9.173383712768555,0,0,32.63900375366211,1,1,1528,190
157.78663600,157786636,0,0.007128823548555374,0.008372480049729347,-0.002275969600304961,2.9906671047210693,1.004036784172058,-9.17403507232666,0,0,32.6396598815918,1,1,1528,190
157.79445600,157794456,0,0.007244899403303862,0.008782360702753067,-0.0020413498859852552,2.991520643234253,1.0036606788635254,-9.174461364746094,0,0,32.640350341796875,1,1,1528,190
157.80229900,157802299,0,0.007353854365646839,0.0091205183416605,-0.001736834179610014,2.992175340652466,1.003480315208435,-9.174761772155762,0,0,32.641075134277344,1,1,1528,190
157.81063000,157810630,0,0.007373143453150988,0.009435130283236504,-0.0014881589449942112,2.9925832748413086,1.0033425092697144,-9.174972534179688,0,0,32.64180374145508,1,1,1528,190
157.81867800,157818678,0,0.0072228810749948025,0.009761122055351734,-0.0012588708195835352,2.992886543273926,1.0030543804168701,-9.175313949584961,0,0,32.642433166503906,1,1,1528,190
157.82653700,157826537,0,0.006954161915928125,0.00995874498039484,-0.0010538139613345265,2.993176221847534,1.0026708841323853,-9.176060676574707,0,0,32.64329147338867,1,1,1528,190
157.83468700,157834687,0,0.006795820314437151,0.009925120510160923,-0.0009447832126170397,2.993504762649536,1.002403736114502,-9.177038192749023,0,0,32.64402770996094,1,1,1528,190
157.84227900,157842279,0,0.0066824969835579395,0.009691891260445118,-0.0010139013174921274,2.9939606189727783,1.002221703529358,-9.17808723449707,0,0,32.64474105834961,1,1,1528,190
157.85152700,157851527,0,0.006490625906735659,0.009356861934065819,-0.0011498365784063935,2.994516372680664,1.0018999576568604,-9.179269790649414,0,0,32.64517593383789,1,1,1528,190
157.85970000,157859700,0,0.006415088195353746,0.008802041411399841,-0.0011701888870447874,2.9950902462005615,1.001348853111267,-9.180485725402832,0,0,32.64570999145508,1,1,1528,190
157.86729200,157867292,0,0.00658530555665493,0.008091882802546024,-0.0011108422186225653,2.995654582977295,1.0007573366165161,-9.181563377380371,0,0,32.64640808105469,1,1,1528,190
157.87529400,157875294,0,0.006859239656478167,0.007681022863835096,-0.001175896730273962,2.996222972869873,1.0002816915512085,-9.182381629943848,0,0,32.64714813232422,1,1,1528,190
157.88389500,157883895,0,0.007048914209008217,0.007940219715237617,-0.0013449093094095588,2.996786594390869,0.9998899102210999,-9.182867050170898,0,0,32.647926330566406,1,1,1528,190
157.89152600,157891526,0,0.0070281499065458775,0.008933469653129578,-0.0014226404018700123,2.99737548828125,0.9996213316917419,-9.18322467803955,0,0,32.64873123168945,1,1,1528,190
157.89974900,157899749,0,0.006838679779320955,0.010249054059386253,-0.0014923552516847849,2.998070001602173,0.9995566010475159,-9.183788299560547,0,0,32.64950180053711,1,1,1528,190
157.90779900,157907799,0,0.006667507812380791,0.011284188367426395,-0.0016674378421157598,2.998828172683716,0.9996137619018555,-9.184557914733887,0,0,32.65017318725586,1,1,1528,190
157.91567500,157915675,0,0.006631824653595686,0.011692947708070278,-0.0018598954193294048,2.9996135234832764,0.9995899200439453,-9.185300827026367,0,0,32.6507682800293,1,1,1528,190
157.92370300,157923703,0,0.0067135002464056015,0.011402415111660957,-0.0019941094797104597,3.0003838539123535,0.9993021488189697,-9.185954093933105,0,0,32.651283264160156,1,1,1528,190
157.93184000,157931840,0,0.006757033988833427,0.010668378323316574,-0.002077914774417877,3.0009119510650635,0.998717188835144,-9.186655044555664,0,0,32.6517448425293,1,1,1528,190
157.93925600,157939256,0,0.006680546794086695,0.00990615040063858,-0.0020768456161022186,3.001054286956787,0.9979110956192017,-9.187344551086426,0,0,32.6522216796875,1,1,1528,190
157.94751800,157947518,0,0.006555447820574045,0.009291405789554119,-0.0020061617251485586,3.001025915145874,0.9969687461853027,-9.187665939331055,0,0,32.65277862548828,1,1,1528,190
157.95568600,157955686,0,0.00649192975834012,0.008785740472376347,-0.0018731513991951942,3.0010855197906494,0.9960931539535522,-9.18741226196289,0,0,32.65340805053711,1,1,1528,190
157.96327400,157963274,0,0.006538194604218006,0.008252405561506748,-0.0016545671969652176,3.001220226287842,0.9955225586891174,-9.186700820922852,0,0,32.65404510498047,1,1,1528,190
157.97128900,157971289,0,0.006653231102973223,0.007682299241423607,-0.0015139426104724407,3.0012569427490234,0.9952486753463745,-9.185456275939941,0,0,32.654624938964844,1,1,1528,190
157.97962300,157979623,0,0.00670939777046442,0.007274763658642769,-0.0015349166933447123,3.0010826587677,0.9951861500740051,-9.183550834655762,0,0,32.65513610839844,1,1,1528,190
157.98778600,157987786,0,0.006608216557651758,0.0072927153669297695,-0.0015857083490118384,3.0006840229034424,0.9953672289848328,-9.181519508361816,0,0,32.655609130859375,1,1,1528,190
157.99568800,157995688,0,0.006423488259315491,0.007993234321475029,-0.0015688870334997773,3.0001368522644043,0.9956293106079102,-9.179859161376953,0,0,32.65608215332031,1,1,1528,190
158.00391100,158003911,0,0.006359582766890526,0.009295973926782608,-0.001561241690069437,2.9995176792144775,0.9957501292228699,-9.178606986999512,0,0,32.65655517578125,1,1,1528,190
158.01174400,158011744,0,0.006523535121232271,0.010634676553308964,-0.00166060880292207,2.998791217803955,0.9957882165908813,-9.177831649780273,0,0,32.657039642333984,1,1,1528,190
158.01979000,158019790,0,0.006776736583560705,0.011455453932285309,-0.001839396427385509,2.997950792312622,0.9958299994468689,-9.177370071411133,0,0,32.65753936767578,1,1,1528,190
158.02804000,158028040,0,0.006953199859708548,0.011484986171126366,-0.0019645518623292446,2.996954917907715,0.9958891272544861,-9.176974296569824,0,0,32.65800857543945,1,1,1528,190
158.03529200,158035292,0,0.007035373710095882,0.010790521278977394,-0.001883382792584598,2.9957351684570312,0.995893657207489,-9.176660537719727,0,0,32.658447265625,1,1,1528,190
158.04327100,158043271,0,0.00709869246929884,0.00979500450193882,-0.0016590030863881111,2.994446277618408,0.9956989288330078,-9.176342964172363,0,0,32.65886306762695,1,1,1528,190
158.05170800,158051708,0,0.007171648554503918,0.008931993506848812,-0.0015822274144738913,2.993352174758911,0.9953826665878296,-9.175851821899414,0,0,32.659305572509766,1,1,1528,190
158.05932600,158059326,0,0.007154344115406275,0.008453804068267345,-0.0017311222618445754,2.992563486099243,0.9951481819152832,-9.175405502319336,0,0,32.65976333618164,1,1,1528,190
158.06732600,158067326,0,0.007027093321084976,0.00834510289132595,-0.0018962780013680458,2.9919395446777344,0.9950396418571472,-9.175292015075684,0,0,32.660240173339844,1,1,1528,190
158.07618700,158076187,0,0.006969556212425232,0.008497265167534351,-0.0019000417087227106,2.9913408756256104,0.9950345754623413,-9.175470352172852,0,0,32.660770416259766,1,1,1528,190
158.08325500,158083255,0,0.007074333261698484,0.008823172189295292,-0.0016739066923037171,2.9908287525177,0.9951146245002747,-9.175931930541992,0,0,32.6612548828125,1,1,1528,190
158.09127500,158091275,0,0.007238571997731924,0.009233228862285614,-0.0014239981537684798,2.9904885292053223,0.9952358603477478,-9.176758766174316,0,0,32.66183090209961,1,1,1528,190
158.09966200,158099662,0,0.007293779402971268,0.00967636052519083,-0.0013369038933888078,2.9903764724731445,0.9954800009727478,-9.178143501281738,0,0,32.6624755859375,1,1,1528,190
158.10726900,158107269,0,0.007136788684874773,0.01014771033078432,-0.0013244003057479858,2.9905123710632324,0.9960244297981262,-9.180166244506836,0,0,32.66307830810547,1,1,1528,190
158.11540800,158115408,0,0.0068364436738193035,0.010612765327095985,-0.001355279004201293,2.990785837173462,0.9968762397766113,-9.182356834411621,0,0,32.66384506225586,1,1,1528,190
158.12392400,158123924,0,0.006618594750761986,0.010940388776361942,-0.0013968149432912469,2.99109148979187,0.9978803396224976,-9.184313774108887,0,0,32.664581298828125,1,1,1528,190
158.13155900,158131559,0,0.006592283491045237,0.011033671908080578,-0.0014829450519755483,2.991421699523926,0.9989078640937805,-9.186022758483887,0,0,32.66535186767578,1,1,1526,190
158.13930000,158139300,0,0.0066795446909964085,0.010877002030611038,-0.0017264200141653419,2.9917211532592773,0.9998990297317505,-9.187468528747559,0,0,32.66615676879883,1,1,1526,190
158.14767800,158147678,0,0.006759357172995806,0.010434354655444622,-0.0019836495630443096,2.9918947219848633,1.0007703304290771,-9.188565254211426,0,0,32.666969299316406,1,1,1526,190
158.15529400,158155294,0,0.006849485915154219,0.009686999954283237,-0.0020466488786041737,2.9918031692504883,1.001456618309021,-9.18917179107666,0,0,32.667720794677734,1,1,1526,190
158.16326500,158163265,0,0.0068537211045622826,0.008653615601360798,-0.0019013240234926343,2.9914004802703857,1.001954436302185,-9.189265251159668,0,0,32.66843032836914,1,1,1526,190
158.17181200,158171812,0,0.006542081944644451,0.007439956068992615,-0.001712503144517541,2.990814447402954,1.0022952556610107,-9.188973426818848,0,0,32.66908264160156,1,1,1526,190
158.17940400,158179404,0,0.006259152665734291,0.006541438866406679,-0.0016035956796258688,2.9901247024536133,1.002587914466858,-9.188323020935059,0,0,32.669677734375,1,1,1526,190
158.18740900,158187409,0,0.006279366090893745,0.006477066315710545,-0.0015394848305732012,2.9894156455993652,1.0028293132781982,-9.18729019165039,0,0,32.67021560668945,1,1,1526,190
158.19571800,158195718,0,0.006381469778716564,0.007323976140469313,-0.0014601307921111584,2.9887642860412598,1.0028616189956665,-9.186043739318848,0,0,32.670745849609375,1,1,1526,190
158.20345400,158203454,0,0.006349267903715372,0.008774438872933388,-0.0014196883421391249,2.98819899559021,1.0026347637176514,-9.184940338134766,0,0,32.67124938964844,1,1,1526,190
158.21127700,158211277,0,0.006242711562663317,0.01032514963299036,-0.001566254417411983,2.9877376556396484,1.0021835565567017,-9.184223175048828,0,0,32.671730041503906,1,1,1526,190
158.21994100,158219941,0,0.00640125572681427,0.01147490181028843,-0.0017890711314976215,2.987276554107666,1.0014994144439697,-9.183926582336426,0,0,32.67219161987305,1,1,1526,190
158.22750300,158227503,0,0.006784313358366489,0.011993749998509884,-0.001886731362901628,2.9866950511932373,1.0006349086761475,-9.18380355834961,0,0,32.672607421875,1,1,1526,190
158.23575400,158235754,0,0.006955174263566732,0.0120110884308815,-0.0018725859699770808,2.9860293865203857,0.9997838735580444,-9.183477401733398,0,0,32.673038482666016,1,1,1526,190
158.24377700,158243777,0,0.006848991848528385,0.01166702713817358,-0.001831247704103589,2.9854559898376465,0.9991110563278198,-9.183005332946777,0,0,32.673484802246094,1,1,1526,190
158.25162100,158251621,0,0.006778135895729065,0.01098642311990261,-0.0017803716473281384,2.9851417541503906,0.9986021518707275,-9.182625770568848,0,0,32.673946380615234,1,1,1526,190
158.25950300,158259503,0,0.006833027116954327,0.010006162337958813,-0.0017298976890742779,2.9851484298706055,0.9981648921966553,-9.18226146697998,0,0,32.67438888549805,1,1,1526,190
158.26788300,158267883,0,0.0069275833666324615,0.008885367773473263,-0.0017345414962619543,2.9853832721710205,0.9978452324867249,-9.181689262390137,0,0,32.67487335205078,1,1,1526,190
158.27526200,158275262,0,0.007006641943007708,0.00795508362352848,-0.0017277721781283617,2.985675573348999,0.9977929592132568,-9.18084716796875,0,0,32.675392150878906,1,1,1526,190
158.28326600,158283266,0,0.007042194716632366,0.007552550174295902,-0.0016672732308506966,2.9860455989837646,0.9980311989784241,-9.1798734664917,0,0,32.675926208496094,1,1,1526,190
158.29165500,158291655,0,0.007024907972663641,0.007831001654267311,-0.0016245078295469284,2.986659526824951,0.998473584651947,-9.1788911819458,0,0,32.676483154296875,1,1,1526,190
158.29927600,158299276,0,0.006955766584724188,0.008640951476991177,-0.0016254300717264414,2.987516403198242,0.9990549683570862,-9.178057670593262,0,0,32.67708206176758,1,1,1526,190
158.30729600,158307296,0,0.006915779784321785,0.009531065821647644,-0.0017206068150699139,2.9885194301605225,0.9997325539588928,-9.177416801452637,0,0,32.677711486816406,1,1,1526,190
158.31587600,158315876,0,0.006889919750392437,0.010094815865159035,-0.0018571092514321208,2.9896483421325684,1.0003719329833984,-9.17678451538086,0,0,32.67832946777344,1,1,1526,190
158.32377100,158323771,0,0.006792331580072641,0.010241714306175709,-0.0019344661850482225,2.9908645153045654,1.0008829832077026,-9.176216125488281,0,0,32.678916931152344,1,1,1526,190
158.33136800,158331368,0,0.006714209448546171,0.01013160590082407,-0.0019838730804622173,2.992050886154175,1.0013610124588013,-9.175947189331055,0,0,32.679561614990234,1,1,1526,190
158.33966900,158339669,0,0.006681045051664114,0.009982053190469742,-0.001966694602742791,2.9930810928344727,1.0019172430038452,-9.176051139831543,0,0,32.680240631103516,1,1,1526,190
158.34744000,158347440,0,0.006608000956475735,0.009929477237164974,-0.0019002084154635668,2.99394154548645,1.0025262832641602,-9.176604270935059,0,0,32.680904388427734,1,1,1526,190
158.35526400,158355264,0,0.006587062496691942,0.009939979761838913,-0.0019223002018406987,2.994645357131958,1.0031590461730957,-9.177591323852539,0,0,32.6815299987793,1,1,1526,190
158.36362300,158363623,0,0.006720088887959719,0.009814519435167313,-0.001968103926628828,2.9951884746551514,1.0039288997650146,-9.178767204284668,0,0,32.68210220336914,1,1,1526,190
158.37136900,158371369,0,0.006994591560214758,0.009393160231411457,-0.001810071524232626,2.9955992698669434,1.0047755241394043,-9.179879188537598,0,0,32.68266296386719,1,1,1526,190
158.37931400,158379314,0,0.007276653312146664,0.008750202134251595,-0.0014956516679376364,2.9958038330078125,1.0054837465286255,-9.180818557739258,0,0,32.683265686035156,1,1,1526,190
158.38767500,158387675,0,0.0072796763852238655,0.008099934086203575,-0.0012701725354418159,2.995631694793701,1.0060813426971436,-9.181769371032715,0,0,32.68391418457031,1,1,1526,190
158.39530200,158395302,0,0.0069691394455730915,0.0076619703322649,-0.001266202423721552,2.9950926303863525,1.0066603422164917,-9.182868003845215,0,0,32.68455505371094,1,1,1526,190
158.40331100,158403311,0,0.006645867135375738,0.007577233482152224,-0.001475646742619574,2.9944264888763428,1.0071591138839722,-9.183862686157227,0,0,32.68517303466797,1,1,1526,190
158.41216500,158412165,0,0.006466558203101158,0.007790939416736364,-0.001714502228423953,2.9937615394592285,1.0076799392700195,-9.18446159362793,0,0,32.6858024597168,1,1,1526,190
158.41969000,158419690,0,0.006410905160009861,0.008279964327812195,-0.0018463293090462685,2.9930765628814697,1.008378028869629,-9.184595108032227,0,0,32.686424255371094,1,1,1526,190
158.42755000,158427550,0,0.006413617637008429,0.00899838749319315,-0.0018822748679667711,2.992436647415161,1.009008765220642,-9.184430122375488,0,0,32.68704605102539,1,1,1526,190
158.43565800,158435658,0,0.006448941770941019,0.009708314202725887,-0.0019272667123004794,2.9919238090515137,1.0092730522155762,-9.184174537658691,0,0,32.68770217895508,1,1,1526,190
158.44325100,158443251,0,0.0065313586965203285,0.010335824452340603,-0.002023720648139715,2.9915709495544434,1.0092300176620483,-9.1837739944458,0,0,32.688411712646484,1,1,1526,190
158.45141500,158451415,0,0.006587659008800983,0.010996769182384014,-0.0019996268674731255,2.991415500640869,1.0090440511703491,-9.183150291442871,0,0,32.68914031982422,1,1,1526,190
158.45984400,158459844,0,0.0065932683646678925,0.01165616326034069,-0.0019134158501401544,2.991323232650757,1.008793592453003,-9.182509422302246,0,0,32.68986129760742,1,1,1526,190
158.46725800,158467258,0,0.006609578151255846,0.0121140256524086,-0.0019996282644569874,2.991096258163452,1.008526086807251,-9.1820650100708,0,0,32.6905632019043,1,1,1526,190
158.47531300,158475313,0,0.0066516040824353695,0.012049597688019276,-0.0021121639292687178,2.99076771736145,1.0082165002822876,-9.181885719299316,0,0,32.69117736816406,1,1,1526,190
158.48367100,158483671,0,0.00662649143487215,0.011273137293756008,-0.00198819930665195,2.9905025959014893,1.007739543914795,-9.182086944580078,0,0,32.69171905517578,1,1,1526,190
158.49173200,158491732,0,0.0065707070752978325,0.009968595579266548,-0.001584129291586578,2.990473508834839,1.0070103406906128,-9.182607650756836,0,0,32.692283630371094,1,1,1526,190
158.49975000,158499750,0,0.006625588983297348,0.008398797363042831,-0.0010956940241158009,2.9906489849090576,1.00606369972229,-9.183279991149902,0,0,32.6928596496582,1,1,1526,190
158.50796200,158507962,0,0.006755865179002285,0.006877855397760868,-0.0008637327118776739,2.9907994270324707,1.0050535202026367,-9.184186935424805,0,0,32.693511962890625,1,1,1526,190
158.51565400,158515654,0,0.006784077268093824,0.005889730993658304,-0.0009178775944747031,2.990809917449951,1.0041186809539795,-9.18538761138916,0,0,32.694210052490234,1,1,1526,190
158.52373000,158523730,0,0.006626764312386513,0.005977671127766371,-0.0010549133876338601,2.9907331466674805,1.0032750368118286,-9.186728477478027,0,0,32.69491195678711,1,1,1526,190
158.53187400,158531874,0,0.006489289924502373,0.007378577254712582,-0.0012009611818939447,2.9906740188598633,1.0025266408920288,-9.187925338745117,0,0,32.695613861083984,1,1,1526,190
158.53924200,158539242,0,0.006614306941628456,0.009725680574774742,-0.00131382723338902,2.9907844066619873,1.001928448677063,-9.188858032226562,0,0,32.696346282958984,1,1,1526,190
158.54724400,158547244,0,0.006844768766313791,0.012184472754597664,-0.0014008049620315433,2.991283893585205,1.001557469367981,-9.189675331115723,0,0,32.697044372558594,1,1,1526,190
158.55563000,158555630,0,0.006943714804947376,0.013932687230408192,-0.0015558680752292275,2.992262363433838,1.0013965368270874,-9.190374374389648,0,0,32.697750091552734,1,1,1526,190
158.56369600,158563696,0,0.006927819922566414,0.014513456262648106,-0.0017512168269604445,2.993495464324951,1.0013829469680786,-9.19079875946045,0,0,32.698463439941406,1,1,1526,190
158.57165200,158571652,0,0.006808008998632431,0.013783570379018784,-0.0018299082294106483,2.9945995807647705,1.0014410018920898,-9.190912246704102,0,0,32.69910430908203,1,1,1526,190
158.57989200,158579892,0,0.006606848910450935,0.011946805752813816,-0.0017377811018377542,2.99517822265625,1.0014690160751343,-9.190831184387207,0,0,32.69974136352539,1,1,1526,190
158.58777900,158587779,0,0.006455740891396999,0.009598190896213055,-0.001511919661425054,2.994964122772217,1.0014489889144897,-9.190715789794922,0,0,32.70039749145508,1,1,1526,190
158.59525700,158595257,0,0.006431706715375185,0.00740764569491148,-0.0012188863474875689,2.994175910949707,1.0013130903244019,-9.190546035766602,0,0,32.701080322265625,1,1,1526,190
158.60391700,158603917,0,0.006434188224375248,0.005780723411589861,-0.0010389556409791112,2.9932963848114014,1.0008971691131592,-9.190292358398438,0,0,32.7017936706543,1,1,1526,190
158.61136700,158611367,0,0.0064726294949650764,0.004932820796966553,-0.0011045743012800813,2.992526054382324,1.000205636024475,-9.190010070800781,0,0,32.702484130859375,1,1,1526,190
158.61982500,158619825,0,0.006541939917951822,0.004884697962552309,-0.001317197922617197,2.991872549057007,0.9993372559547424,-9.189752578735352,0,0,32.70317459106445,1,1,1526,190
158.62773800,158627738,0,0.00656468141824007,0.00556891830638051,-0.0015301302773877978,2.9913699626922607,0.998297393321991,-9.189643859863281,0,0,32.70387649536133,1,1,1526,190
158.63532600,158635326,0,0.006696701515465975,0.007024015765637159,-0.00168078753631562,2.990955114364624,0.9971970319747925,-9.189699172973633,0,0,32.704593658447266,1,1,1526,190
158.64325800,158643258,0,0.00701042590662837,0.009155303239822388,-0.001817301963455975,2.9905712604522705,0.9962714910507202,-9.189749717712402,0,0,32.70535659790039,1,1,1526,190
158.65171000,158651710,0,0.0072714644484221935,0.01156555861234665,-0.0019384762272238731,2.9902896881103516,0.9956300258636475,-9.18958854675293,0,0,32.7060661315918,1,1,1526,190
158.65931000,158659310,0,0.007342718541622162,0.013770334422588348,-0.0019465243676677346,2.9901022911071777,0.9952549338340759,-9.189064025878906,0,0,32.70682144165039,1,1,1526,190
158.66729900,158667299,0,0.007256032899022102,0.015286515466868877,-0.0019802034366875887,2.9898767471313477,0.9952113032341003,-9.188287734985352,0,0,32.707584381103516,1,1,1526,190
158.67563300,158675633,0,0.007157745771110058,0.01575401797890663,-0.0022185950074344873,2.989483118057251,0.9955865740776062,-9.187531471252441,0,0,32.708343505859375,1,1,1526,190
158.68343400,158683434,0,0.007256467826664448,0.015007044188678265,-0.002399478806182742,2.9888620376586914,0.996315598487854,-9.18701457977295,0,0,32.7091064453125,1,1,1526,190
158.69126100,158691261,0,0.007355095818638802,0.013147921301424503,-0.0022739567793905735,2.9881486892700195,0.9973339438438416,-9.187066078186035,0,0,32.7098503112793,1,1,1526,190
158.69965600,158699656,0,0.007260075304657221,0.010755079798400402,-0.00204969709739089,2.9876163005828857,0.9985721707344055,-9.18772029876709,0,0,32.710575103759766,1,1,1526,190
158.70725700,158707257,0,0.007098199799656868,0.00829458050429821,-0.0017643405590206385,2.987384557723999,0.999916672706604,-9.188562393188477,0,0,32.711326599121094,1,1,1526,190
158.71541700,158715417,0,0.0069151511415839195,0.005914715584367514,-0.001331388484686613,2.9874823093414307,1.001359462738037,-9.189315795898438,0,0,32.71200942993164,1,1,1526,190
158.72457900,158724579,0,0.006659886334091425,0.004046027082949877,-0.0009537269361317158,2.9879541397094727,1.0027737617492676,-9.190013885498047,0,0,32.712650299072266,1,1,1526,190
158.73130200,158731302,0,0.0063964067958295345,0.003467397065833211,-0.0008892562473192811,2.9886844158172607,1.0039708614349365,-9.190937042236328,0,0,32.71331024169922,1,1,1526,190
158.73927300,158739273,0,0.006246798671782017,0.004554617218673229,-0.0010588796576485038,2.989457130432129,1.0050679445266724,-9.19222640991211,0,0,32.713932037353516,1,1,1526,190
158.74788500,158747885,0,0.006251077633351088,0.006801051087677479,-0.0011672251857817173,2.990142345428467,1.0062705278396606,-9.193610191345215,0,0,32.714473724365234,1,1,1526,190
158.75552400,158755524,0,0.006361992564052343,0.009351329877972603,-0.0012725783744826913,2.9907302856445312,1.0074223279953003,-9.194694519042969,0,0,32.71501159667969,1,1,1526,190
158.76332800,158763328,0,0.006473368499428034,0.011553209275007248,-0.0015185574302449822,2.9912593364715576,1.0082709789276123,-9.195212364196777,0,0,32.71549987792969,1,1,1526,190
158.77167500,158771675,0,0.006573567632585764,0.012997900135815144,-0.0018548365915194154,2.991680383682251,1.0088545083999634,-9.19533920288086,0,0,32.71593475341797,1,1,1526,190
158.77936800,158779368,0,0.006736339535564184,0.013644149526953697,-0.0021949298679828644,2.991868019104004,1.009339690208435,-9.195440292358398,0,0,32.71638870239258,1,1,1526,190
158.78728500,158787285,0,0.00703625800088048,0.013744221068918705,-0.0024251469876617193,2.991730213165283,1.0099085569381714,-9.195536613464355,0,0,32.716766357421875,1,1,1526,190
158.79559900,158795599,0,0.0073438785038888454,0.013367013074457645,-0.0025248979218304157,2.991281032562256,1.0106279850006104,-9.195474624633789,0,0,32.71714401245117,1,1,1526,190
158.80332400,158803324,0,0.007475636433809996,0.012384668923914433,-0.0024678988847881556,2.9907195568084717,1.011438250541687,-9.195091247558594,0,0,32.71744155883789,1,1,1526,190
158.81141800,158811418,0,0.0074906316585838795,0.010761220939457417,-0.002173091284930706,2.9903526306152344,1.0121694803237915,-9.194392204284668,0,0,32.71771240234375,1,1,1526,190
158.81985700,158819857,0,0.007477365434169769,0.008694438263773918,-0.0016746491892263293,2.9903202056884766,1.0125709772109985,-9.193538665771484,0,0,32.71796798706055,1,1,1526,190
158.82757900,158827579,0,0.007556584198027849,0.006549579557031393,-0.0011652088724076748,2.990588426589966,1.0126961469650269,-9.192623138427734,0,0,32.71818542480469,1,1,1526,190
158.83528200,158835282,0,0.007815305143594742,0.004788699559867382,-0.0008729545515961945,2.9911136627197266,1.0128260850906372,-9.19178581237793,0,0,32.718406677246094,1,1,1526,190
158.84361900,158843619,0,0.007941611111164093,0.00397501140832901,-0.0008653500699438155,2.9917941093444824,1.0130009651184082,-9.191195487976074,0,0,32.718597412109375,1,1,1526,190
158.85153500,158851535,0,0.007684416603296995,0.004622641019523144,-0.0010652635246515274,2.9925143718719482,1.0130901336669922,-9.190876960754395,0,0,32.718772888183594,1,1,1526,190
158.85953400,158859534,0,0.007236278150230646,0.006740400101989508,-0.0013366437051445246,2.993267774581909,1.0130786895751953,-9.19076156616211,0,0,32.71896743774414,1,1,1526,190
158.86758000,158867580,0,0.006879392080008984,0.009605301544070244,-0.0016371255042031407,2.993995428085327,1.0129706859588623,-9.190767288208008,0,0,32.71918869018555,1,1,1526,190
158.87530900,158875309,0,0.006685576867312193,0.012281516566872597,-0.001873837667517364,2.9945123195648193,1.012768268585205,-9.19066333770752,0,0,32.71940994262695,1,1,1526,190
158.88336700,158883367,0,0.006568222306668758,0.014257949776947498,-0.001981222303584218,2.99477219581604,1.0125296115875244,-9.190213203430176,0,0,32.71966552734375,1,1,1526,190
158.89185200,158891852,0,0.006504765711724758,0.015317180193960667,-0.0020400017965584993,2.9948647022247314,1.0122168064117432,-9.18942642211914,0,0,32.71990203857422,1,1,1526,190
158.89979300,158899793,0,0.006421347614377737,0.015337727963924408,-0.002054740907624364,2.9948766231536865,1.0118153095245361,-9.188495635986328,0,0,32.72016525268555,1,1,1526,190
158.90777400,158907774,0,0.006274696905165911,0.014345659874379635,-0.002021687338128686,2.9949240684509277,1.011387586593628,-9.187657356262207,0,0,32.72045135498047,1,1,1526,190
158.91591400,158915914,0,0.006146708503365517,0.01232213992625475,-0.0019260665867477655,2.9950106143951416,1.0109633207321167,-9.187007904052734,0,0,32.720787048339844,1,1,1526,190
158.92373500,158923735,0,0.006160279735922813,0.009335137903690338,-0.001743721659295261,2.9950482845306396,1.0105286836624146,-9.18652629852295,0,0,32.72110366821289,1,1,1526,190
158.93159400,158931594,0,0.006357183679938316,0.005893899127840996,-0.001503204577602446,2.9950830936431885,1.0100454092025757,-9.186012268066406,0,0,32.721370697021484,1,1,1526,190
158.93966800,158939668,0,0.006540138274431229,0.0030049821361899376,-0.0013157302746549249,2.9951603412628174,1.0094693899154663,-9.185218811035156,0,0,32.72163391113281,1,1,1526,190
158.94726800,158947268,0,0.006578038912266493,0.0016485520172864199,-0.0012911141384392977,2.995255947113037,1.008815884590149,-9.1841402053833,0,0,32.72197723388672,1,1,1526,190
158.95527800,158955278,0,0.006611968390643597,0.002182560507208109,-0.001401142799295485,2.9953196048736572,1.008225440979004,-9.182779312133789,0,0,32.72233581542969,1,1,1526,190
158.96362400,158963624,0,0.006686186417937279,0.004280319437384605,-0.0015406508464366198,2.99526047706604,1.007759928703308,-9.181131362915039,0,0,32.722740173339844,1,1,1526,190
158.97147100,158971471,0,0.006792479660362005,0.0073472196236252785,-0.0016742167063057423,2.9950551986694336,1.0073410272598267,-9.179129600524902,0,0,32.723182678222656,1,1,1526,190
