timestamp,TimeUS,I,GyrX,GyrY,GyrZ,AccX,AccY,AccZ,EG,EA,T,GH,AH,GHz,AHz
5.26953700,5269537,0,0.0008849099976941943,0.0003023596073035151,0.0014482735423371196,6.168892860412598,0.26283833384513855,-7.594194412231445,0,0,35.330474853515625,1,1,8000,1000
5.44201600,5442016,0,0.0011699018068611622,0.0018851864151656628,0.00015252313460223377,6.187000751495361,0.2507624626159668,-7.5632524490356445,0,0,35.37019348144531,1,1,8000,1000
5.44451300,5444513,0,0.0011873181210830808,0.0016430391697213054,-0.00020164735906291753,6.190778732299805,0.25484728813171387,-7.561063289642334,0,0,35.37078094482422,1,1,8000,1000
5.44698200,5446982,0,0.0011558723635971546,0.0015774888452142477,-0.0001934203610289842,6.191969871520996,0.25764286518096924,-7.560112953186035,0,0,35.37115478515625,1,1,8000,1000
5.47697800,5476978,0,0.00012005187454633415,0.000497333356179297,-0.00041744104237295687,6.191535949707031,0.25740846991539,-7.584344387054443,0,0,35.376441955566406,1,1,8000,1000
5.47952100,5479521,0,0.0003509464440867305,0.00035678211133927107,-0.00015820948465261608,6.1935906410217285,0.25638455152511597,-7.587532997131348,0,0,35.3769645690918,1,1,8000,1000
5.48201500,5482015,0,0.0004082320665474981,0.0003490499220788479,0.00010557407949818298,6.194299221038818,0.2543463110923767,-7.5903778076171875,0,0,35.377315521240234,1,1,8000,1000
5.48451400,5484514,0,0.00034581642830744386,0.00033166102366521955,0.0004685501626227051,6.194094181060791,0.2520178258419037,-7.591901779174805,0,0,35.37783432006836,1,1,8000,1000
5.51199800,5511998,0,0.001073396415449679,0.0020460837986320257,0.00018228846602141857,6.201666831970215,0.24642086029052734,-7.564125061035156,0,0,35.3828125,1,1,8000,1000
5.51450800,5514508,0,0.0009410089696757495,0.0015323262196034193,0.0006356397061608732,6.196878910064697,0.24738703668117523,-7.563695430755615,0,0,35.383365631103516,1,1,8000,1000
5.51697600,5516976,0,0.0008869032026268542,0.001118235755711794,0.0008330590790137649,6.191603660583496,0.24813421070575714,-7.5634613037109375,0,0,35.38372802734375,1,1,8000,1000
5.51950600,5519506,0,0.0008663923945277929,0.00019141305529046804,0.00086774374358356,6.185642242431641,0.2487037628889084,-7.560124397277832,0,0,35.384281158447266,1,1,8000,1000
5.54449100,5544491,0,-0.001592751475982368,-0.005579528398811817,0.0007009601686149836,6.192193031311035,0.2596159875392914,-7.565196990966797,0,0,35.388858795166016,1,1,8000,1000
5.54699200,5546992,0,-0.0016751819057390094,-0.005504819098860025,0.0005547302425839007,6.18894100189209,0.25740694999694824,-7.568997859954834,0,0,35.38923263549805,1,1,8000,1000
5.54952900,5549529,0,-0.001496615819633007,-0.005127862095832825,6.850284989923239e-05,6.1864728927612305,0.2558533251285553,-7.57765531539917,0,0,35.389808654785156,1,1,8000,1000
5.55199800,5551998,0,-0.0012439851416274905,-0.004777178633958101,-0.0003667991841211915,6.184665679931641,0.25675076246261597,-7.584216117858887,0,0,35.39019775390625,1,1,8000,1000
5.57697200,5576972,0,0.00027434181538410485,0.0027602280024439096,-0.0005190611118450761,6.1964898109436035,0.2576545476913452,-7.569994926452637,0,0,35.39557647705078,1,1,8000,1000
5.57951200,5579512,0,0.0005439621745608747,0.003563375910744071,-0.00018491505761630833,6.192741394042969,0.2575989365577698,-7.569703102111816,0,0,35.39616394042969,1,1,8000,1000
5.58200200,5582002,0,0.0007980583468452096,0.003844870487228036,5.56232625967823e-05,6.188054084777832,0.25868839025497437,-7.569114685058594,0,0,35.39655303955078,1,1,8000,1000
5.58451600,5584516,0,0.000978904659859836,0.004029765259474516,0.0003081322065554559,6.1819610595703125,0.26124483346939087,-7.5685014724731445,0,0,35.39713668823242,1,1,8000,1000
5.60953700,5609537,0,0.001305741025134921,0.003780365688726306,0.002287839539349079,6.174574375152588,0.2434486448764801,-7.6014323234558105,0,0,35.40205764770508,1,1,8000,1000
5.61198900,5611989,0,0.0013162047835066915,0.0036306160036474466,0.0020358716137707233,6.176174640655518,0.24311049282550812,-7.601526737213135,0,0,35.402442932128906,1,1,8000,1000
5.61449900,5614499,0,0.0014330919366329908,0.0033909871708601713,0.0013358381111174822,6.178149700164795,0.2453911453485489,-7.5997796058654785,0,0,35.403011322021484,1,1,8000,1000
5.61699100,5616991,0,0.0014463282423093915,0.003206930821761489,0.0008682162151671946,6.17894172668457,0.2475108951330185,-7.600213527679443,0,0,35.40338134765625,1,1,8000,1000
5.64203100,5642031,0,8.486553997499868e-05,0.0007965536788105965,-0.00038498599315062165,6.195003986358643,0.2460576593875885,-7.575065612792969,0,0,35.40790557861328,1,1,8000,1000
5.64450700,5644507,0,9.44288622122258e-05,0.00028163340175524354,-0.0005538988043554127,6.193794250488281,0.2480572909116745,-7.580760955810547,0,0,35.408409118652344,1,1,8000,1000
5.64698900,5646989,0,-1.5004865417722613e-05,-6.221483636181802e-05,-0.0004975225892849267,6.192473888397217,0.24844643473625183,-7.586390972137451,0,0,35.40874481201172,1,1,8000,1000
5.64953400,5649534,0,-0.00018598540918901563,-0.0005274091963656247,-0.00033404043642804027,6.191513538360596,0.25004151463508606,-7.595520496368408,0,0,35.409244537353516,1,1,8000,1000
5.65199000,5651990,0,-0.00034720668918453157,-0.0007692346698604524,-0.00022708838514517993,6.191120147705078,0.2526906132698059,-7.596597671508789,0,0,35.409584045410156,1,1,8000,1000
5.67697600,5676976,0,0.0005186061025597155,-0.0028753343503922224,-0.0007384174386970699,6.18463134765625,0.2661352753639221,-7.580940246582031,0,0,35.413917541503906,1,1,8000,1000
5.67950500,5679505,0,0.0006014247192069888,-0.003356454661116004,-0.0006796015077270567,6.185828685760498,0.269074022769928,-7.583652496337891,0,0,35.414424896240234,1,1,8000,1000
5.68201800,5682018,0,0.0006409831694327295,-0.0036049322225153446,-0.0004418221942614764,6.186048984527588,0.2706049978733063,-7.584371089935303,0,0,35.414756774902344,1,1,8000,1000
5.68450600,5684506,0,0.0005489413742907345,-0.0038806248921900988,-0.00015595991862937808,6.18503999710083,0.27146467566490173,-7.58078145980835,0,0,35.415252685546875,1,1,8000,1000
5.68697200,5686972,0,0.0003691285673994571,-0.004043255001306534,9.74962858890649e-06,6.183750629425049,0.27004697918891907,-7.578408241271973,0,0,35.41557312011719,1,1,8000,1000
5.75450300,5754503,0,2.5639152227086015e-05,0.003032117150723934,0.0012095796409994364,6.190471172332764,0.2637172341346741,-7.574969291687012,0,0,35.425907135009766,1,1,7998,999
5.75697900,5756979,0,1.3058966032986064e-05,0.0025617049541324377,0.0015579845057800412,6.190408706665039,0.263665109872818,-7.575665473937988,0,0,35.42618179321289,1,1,7998,999
5.75949700,5759497,0,0.0002550198114477098,0.0018053004750981927,0.0020452830940485,6.189476013183594,0.26322469115257263,-7.577246189117432,0,0,35.426605224609375,1,1,7998,999
5.76202000,5762020,0,0.0002726374950725585,0.0013587475987151265,0.002248164964839816,6.1883745193481445,0.26151078939437866,-7.580059051513672,0,0,35.42689514160156,1,1,7998,999
5.76449500,5764495,0,1.7854605175671168e-05,0.0008845176780596375,0.002318228594958782,6.186270713806152,0.25753769278526306,-7.582015514373779,0,0,35.42733383178711,1,1,7998,999
5.76804500,5768045,0,-0.00012730630987789482,0.0006431135116145015,0.0023221683222800493,6.185053825378418,0.2565622925758362,-7.582309722900391,0,0,35.42761993408203,1,1,7998,999
5.76990200,5769902,0,-0.00015451625222340226,0.0005393949686549604,0.0022564539685845375,6.182713508605957,0.2573855221271515,-7.58366584777832,0,0,35.42803955078125,1,1,7998,999
5.79451100,5794511,0,0.0008344681700691581,0.0037909429520368576,-0.0010334260296076536,6.183924198150635,0.24677704274654388,-7.577382564544678,0,0,35.43147659301758,1,1,7998,999
5.79697800,5796978,0,0.0006871108198538423,0.0034769887570291758,-0.0010857165325433016,6.181675910949707,0.24626699090003967,-7.5763139724731445,0,0,35.43172836303711,1,1,7998,999
5.79949900,5799499,0,0.0004402525373734534,0.002769672544673085,-0.001090438337996602,6.181070327758789,0.24405339360237122,-7.576898574829102,0,0,35.432106018066406,1,1,7998,999
5.80202900,5802029,0,0.0004591552715282887,0.0021137387957423925,-0.0009950607782229781,6.181615829467773,0.24323733150959015,-7.579187393188477,0,0,35.43235778808594,1,1,7998,999
5.80448800,5804488,0,0.0006384587613865733,0.0010199585231021047,-0.0006313190679065883,6.180325508117676,0.24163228273391724,-7.584029197692871,0,0,35.43273162841797,1,1,7998,999
5.80698900,5806989,0,0.0006146104424260557,0.00023371422139462084,-0.0003648504498414695,6.1809186935424805,0.24049514532089233,-7.587841510772705,0,0,35.432979583740234,1,1,7998,999
5.80951800,5809518,0,0.0002481474366504699,-0.0010117827914655209,0.0001597569789737463,6.182949542999268,0.24178756773471832,-7.590303897857666,0,0,35.43336868286133,1,1,7998,999
5.81199200,5811992,0,-0.00018371461192145944,-0.0017260395688936114,0.00048232878907583654,6.185030937194824,0.24329420924186707,-7.590217590332031,0,0,35.433631896972656,1,1,7998,999
5.82957000,5829570,0,-0.002154950052499771,-0.0051552909426391125,-0.00014069047756493092,6.19936466217041,0.25637882947921753,-7.586246967315674,0,0,35.43587875366211,1,1,7998,999
5.83197800,5831978,0,-0.00213595200330019,-0.005082649178802967,-0.00037607140257023275,6.1985578536987305,0.25716039538383484,-7.584351539611816,0,0,35.436126708984375,1,1,7998,999
5.83450700,5834507,0,-0.0019506362732499838,-0.004879648797214031,-0.0004969017463736236,6.1962456703186035,0.2588745951652527,-7.5798020362854,0,0,35.43648910522461,1,1,7998,999
5.83697400,5836974,0,-0.0017053009942173958,-0.00468255952000618,-0.000535215251147747,6.195505142211914,0.2608826756477356,-7.576130390167236,0,0,35.43672561645508,1,1,7998,999
5.83950400,5839504,0,-0.0012380453990772367,-0.004202139098197222,-0.0005771000869572163,6.195587635040283,0.2642943859100342,-7.5733962059021,0,0,35.43708419799805,1,1,7998,999
5.84202100,5842021,0,-0.0009679718059487641,-0.0038416751194745302,-0.0005671018152497709,6.196752071380615,0.2659338116645813,-7.57292366027832,0,0,35.43732452392578,1,1,7998,999
5.84449900,5844499,0,-0.0005153687670826912,-0.0033581331372261047,-0.0003090200771111995,6.198155403137207,0.2645699083805084,-7.571088790893555,0,0,35.43769073486328,1,1,7998,999
5.84698500,5846985,0,-0.0001528831635368988,-0.0031522633507847786,-0.00013779436994809657,6.197920322418213,0.2629297375679016,-7.572134971618652,0,0,35.43794250488281,1,1,7998,999
5.84955000,5849550,0,0.0003216309705749154,-0.0028615582268685102,6.872805533930659e-05,6.196005821228027,0.2608024477958679,-7.5741167068481445,0,0,35.43832778930664,1,1,7998,999
5.87200200,5872002,0,3.489943264867179e-05,-0.0006863573216833174,0.002016285201534629,6.169013023376465,0.2361375391483307,-7.57466983795166,0,0,35.44105911254883,1,1,7998,999
5.87451900,5874519,0,0.0003714277409017086,6.784478614463296e-07,0.0017991993809118867,6.165164947509766,0.23680877685546875,-7.571308135986328,0,0,35.441429138183594,1,1,7998,999
5.87693200,5876932,0,0.0007964405813254416,0.00048655361752025783,0.0017028299625962973,6.164651870727539,0.23758117854595184,-7.565530776977539,0,0,35.44167709350586,1,1,7998,999
5.87951800,5879518,0,0.0013656096998602152,0.001415349543094635,0.0016134235775098205,6.169185161590576,0.2403484433889389,-7.559659957885742,0,0,35.44206619262695,1,1,7998,999
5.88200400,5882004,0,0.0014823487726971507,0.002114665461704135,0.001511473674327135,6.174541473388672,0.24339446425437927,-7.56186580657959,0,0,35.44232177734375,1,1,7998,999
5.88452000,5884520,0,0.001470923307351768,0.003169555915519595,0.0012350204633548856,6.184236526489258,0.24720382690429688,-7.571001052856445,0,0,35.44269943237305,1,1,7998,999
5.88697700,5886977,0,0.0013555461773648858,0.0037316835951060057,0.0009235118632204831,6.190319538116455,0.24751757085323334,-7.577461242675781,0,0,35.44296646118164,1,1,7998,999
5.88955500,5889555,0,0.0012279313523322344,0.004481838084757328,0.00022147269919514656,6.197820663452148,0.2466581165790558,-7.584035873413086,0,0,35.44337463378906,1,1,7998,999
5.89197800,5891978,0,0.001245266990736127,0.004940311890095472,-0.00017271081742364913,6.200856685638428,0.24666696786880493,-7.588387489318848,0,0,35.44365310668945,1,1,7998,999
5.89451700,5894517,0,0.0012941613094881177,0.0052825757302343845,-0.000616134493611753,6.201143741607666,0.24810804426670074,-7.594931602478027,0,0,35.4440803527832,1,1,7998,999
5.89696500,5896965,0,0.0012774324277415872,0.0053533148020505905,-0.0009225751273334026,6.200461387634277,0.24833451211452484,-7.596402168273926,0,0,35.444374084472656,1,1,7998,999
5.91196400,5911964,0,0.001109767472371459,0.0049485815688967705,-0.0016074668383225799,6.189651012420654,0.255859375,-7.568240165710449,0,0,35.44647979736328,1,1,7998,999
5.91450000,5914500,0,0.0007018831674940884,0.004522505681961775,-0.0013564062537625432,6.189340114593506,0.2581522762775421,-7.563207626342773,0,0,35.44690704345703,1,1,7998,999
5.91699200,5916992,0,0.0005049581523053348,0.004146879073232412,-0.0011517130769789219,6.189167499542236,0.2596089243888855,-7.56541633605957,0,0,35.447200775146484,1,1,7998,999
5.91950100,5919501,0,0.0004380799946375191,0.0034713696222752333,-0.0009472023230046034,6.187390327453613,0.26205894351005554,-7.572977542877197,0,0,35.44764709472656,1,1,7998,999
5.92216200,5922162,0,0.00040279675158672035,0.0031311907805502415,-0.0008537287940271199,6.186200141906738,0.26339441537857056,-7.578131675720215,0,0,35.44794845581055,1,1,7998,999
5.92450900,5924509,0,0.00025990698486566544,0.0027998248115181923,-0.0007646045414730906,6.185219764709473,0.2650121748447418,-7.581297874450684,0,0,35.448402404785156,1,1,7998,999
5.92697300,5926973,0,9.299250814365223e-05,0.0025459821335971355,-0.0006684656254947186,6.184141159057617,0.2665042281150818,-7.582457065582275,0,0,35.44870376586914,1,1,7998,999
5.92955200,5929552,0,-0.00014589770580641925,0.0023055607452988625,-0.0006207218975760043,6.1832709312438965,0.26472824811935425,-7.584980487823486,0,0,35.44916915893555,1,1,7998,999
5.93197600,5931976,0,-0.0002307020768057555,0.002089726971462369,-0.0007542294915765524,6.18355131149292,0.2623196244239807,-7.58796501159668,0,0,35.449623107910156,1,1,7998,999
5.93451200,5934512,0,-0.00029052546597085893,0.001785180764272809,-0.0010902059730142355,6.184642791748047,0.2592158615589142,-7.591292858123779,0,0,35.45008087158203,1,1,7998,999
5.93697700,5936977,0,-0.0002266939845867455,0.0016783138271421194,-0.0013904579682275653,6.18567419052124,0.25825172662734985,-7.588653087615967,0,0,35.45038986206055,1,1,7998,999
5.95446700,5954467,0,0.0005005810526199639,-0.002439438831061125,-0.0002479342801962048,6.180664539337158,0.25691667199134827,-7.57420539855957,0,0,35.45319747924805,1,1,7998,999
5.95699200,5956992,0,0.0007386336801573634,-0.003060804447159171,9.549395326757804e-05,6.180637836456299,0.2564507722854614,-7.5764689445495605,0,0,35.4535026550293,1,1,7998,999
5.95948700,5959487,0,0.0008859451045282185,-0.003965334035456181,0.0007691272185184062,6.1834492683410645,0.2545534670352936,-7.578122138977051,0,0,35.45395278930664,1,1,7998,999
5.96203500,5962035,0,0.0008396724588237703,-0.0046796491369605064,0.0011903538834303617,6.187139511108398,0.2525063455104828,-7.579365253448486,0,0,35.45425796508789,1,1,7998,999
5.96447200,5964472,0,0.0007172244368121028,-0.005902188830077648,0.0016785424668341875,6.1921844482421875,0.25214889645576477,-7.580886363983154,0,0,35.45470428466797,1,1,7998,999
5.96810800,5968108,0,0.0005942469579167664,-0.0067254905588924885,0.0018871601205319166,6.194221019744873,0.25362640619277954,-7.580349445343018,0,0,35.45500946044922,1,1,7998,999
5.97023400,5970234,0,0.00019898712344001979,-0.007730078883469105,0.0021821786649525166,6.192135334014893,0.2590634226799011,-7.576502323150635,0,0,35.45561218261719,1,1,7998,999
5.97293700,5972937,0,-3.573136200429872e-05,-0.007991963066160679,0.002282069530338049,6.189045429229736,0.25957730412483215,-7.576180934906006,0,0,35.45591354370117,1,1,7998,999
5.97523500,5975235,0,-0.00023831364524085075,-0.007918022572994232,0.0024570098612457514,6.186737060546875,0.2589011788368225,-7.575622081756592,0,0,35.45637130737305,1,1,7998,999
5.97788500,5977885,0,-0.0002368979767197743,-0.00755396019667387,0.0024848293978720903,6.18624210357666,0.2597072720527649,-7.572760105133057,0,0,35.4566764831543,1,1,7998,999
5.98023900,5980239,0,-0.00011600686411838979,-0.006593354977667332,0.0021722163073718548,6.184149265289307,0.25958192348480225,-7.568267345428467,0,0,35.45712661743164,1,1,7998,999
6.00522300,6005223,0,0.00048235151916742325,0.0028258487582206726,-0.0029028814751654863,6.176983833312988,0.261203408241272,-7.587426662445068,0,0,35.46104049682617,1,1,7998,999
6.00789000,6007890,0,0.0005782517255283892,0.003002159297466278,-0.0026945960707962513,6.177190780639648,0.2598154544830322,-7.586766719818115,0,0,35.46135711669922,1,1,7998,999
6.01022300,6010223,0,0.0007412738050334156,0.003043204313144088,-0.002345267217606306,6.177881717681885,0.256069153547287,-7.585330009460449,0,0,35.46182632446289,1,1,7998,999
6.01290200,6012902,0,0.0007316436967812479,0.002988827181980014,-0.0020117750391364098,6.178439617156982,0.2539199888706207,-7.586416721343994,0,0,35.46214294433594,1,1,7998,999
6.01522300,6015223,0,0.0005033849156461656,0.002769855549558997,-0.0014354279264807701,6.178380489349365,0.2520778179168701,-7.585988521575928,0,0,35.462623596191406,1,1,7998,999
6.01789500,6017895,0,0.00027811271138489246,0.0024972257670015097,-0.0009697754285298288,6.178079605102539,0.252185195684433,-7.584352970123291,0,0,35.46294403076172,1,1,7998,999
6.02022200,6020222,0,-4.7376826842082664e-05,0.0019461580086499453,-0.00015837383398320526,6.177414894104004,0.2551405131816864,-7.58022928237915,0,0,35.46342468261719,1,1,7998,999
6.02308300,6023083,0,-0.00014340657799039036,0.0015464442549273372,0.0002934568328782916,6.177234172821045,0.2578793466091156,-7.57741641998291,0,0,35.46375274658203,1,1,7998,999
6.02524100,6025241,0,-0.00013858493184670806,0.0008879707311280072,0.0008549423655495048,6.176931381225586,0.2607772946357727,-7.5761213302612305,0,0,35.464256286621094,1,1,7998,999
6.02788100,6027881,0,-0.0001884138910099864,0.0004785798955708742,0.0011639110743999481,6.175629615783691,0.26092299818992615,-7.574357032775879,0,0,35.46459197998047,1,1,7998,999
6.03025500,6030255,0,-0.00017721432959660888,-0.0002701214689295739,0.0016304217278957367,6.174492835998535,0.2603195011615753,-7.569525241851807,0,0,35.465087890625,1,1,7998,999
6.05521400,6055214,0,0.0009685928816907108,0.0028481357730925083,-0.0008365540998056531,6.198213577270508,0.26030540466308594,-7.57762336730957,0,0,35.46917724609375,1,1,7998,999
6.05790800,6057908,0,0.0010151268215849996,0.0033720226492732763,-0.0010500424541532993,6.198520183563232,0.25974932312965393,-7.575579643249512,0,0,35.46949768066406,1,1,7998,999
6.06024000,6060240,0,0.0009674838511273265,0.0041098264046013355,-0.001091814017854631,6.19630241394043,0.2589360177516937,-7.576457977294922,0,0,35.46998596191406,1,1,7998,999
6.06294600,6062946,0,0.0009086629725061357,0.004547363147139549,-0.0010325659532099962,6.193952560424805,0.2567409873008728,-7.579590320587158,0,0,35.470314025878906,1,1,7998,999
6.06523900,6065239,0,0.0008159360149875283,0.005113398656249046,-0.0008333364385180175,6.190856456756592,0.25513067841529846,-7.586677074432373,0,0,35.470802307128906,1,1,7998,999
6.06902600,6069026,0,0.0008579757413826883,0.005518885795027018,-0.0006115189753472805,6.189452171325684,0.25618118047714233,-7.589961528778076,0,0,35.471126556396484,1,1,7998,999
6.09082200,6090822,0,0.0005671162507496774,0.0055097551085054874,0.0004915317986160517,6.186728477478027,0.2592850923538208,-7.5739216804504395,0,0,35.47480392456055,1,1,7998,999
6.09318800,6093188,0,0.0003450893273111433,0.004789197351783514,0.0003087773802690208,6.186404705047607,0.26003265380859375,-7.5731329917907715,0,0,35.47526550292969,1,1,7998,999
6.09582200,6095822,0,0.0003316156507935375,0.004295819904655218,9.458054410060868e-05,6.183807849884033,0.26033225655555725,-7.572699069976807,0,0,35.47556686401367,1,1,7998,999
6.09818100,6098181,0,0.0005070942570455372,0.0036377368960529566,-0.00031866252538748085,6.178200721740723,0.26068371534347534,-7.5725202560424805,0,0,35.47601318359375,1,1,7998,999
6.10082200,6100822,0,0.0006638697814196348,0.00316242640838027,-0.0006452565430663526,6.174995422363281,0.26032373309135437,-7.572375774383545,0,0,35.4763069152832,1,1,7998,999
6.10323100,6103231,0,0.000798215507529676,0.002628358080983162,-0.0009669136488810182,6.172067165374756,0.25892868638038635,-7.571976661682129,0,0,35.47675323486328,1,1,7998,999
6.10589100,6105891,0,0.0008377917110919952,0.0018725180998444557,-0.0012117607984691858,6.1724019050598145,0.25877270102500916,-7.570856094360352,0,0,35.47705078125,1,1,7998,999
6.12818300,6128183,0,-0.0016791220987215638,-0.010394788347184658,0.0010094009339809418,6.190386772155762,0.24564921855926514,-7.559986591339111,0,0,35.48069381713867,1,1,7998,999
6.13082000,6130820,0,-0.0019732024520635605,-0.01113152876496315,0.001048352336511016,6.193110466003418,0.2447752207517624,-7.558039665222168,0,0,35.48112106323242,1,1,7998,999
6.13319900,6133199,0,-0.0021547568030655384,-0.011417383328080177,0.001109127071686089,6.195836544036865,0.24685420095920563,-7.557669162750244,0,0,35.481571197509766,1,1,7998,999
6.13583200,6135832,0,-0.0023328904062509537,-0.011621419340372086,0.0011154375970363617,6.196903228759766,0.2499634027481079,-7.5600481033325195,0,0,35.481876373291016,1,1,7998,999
6.13819200,6138192,0,-0.0022396789863705635,-0.011666993610560894,0.000983790960162878,6.197604179382324,0.2537355422973633,-7.564472675323486,0,0,35.482337951660156,1,1,7998,999
6.14082000,6140820,0,-0.002161963377147913,-0.01141190156340599,0.0008260545437224209,6.196967601776123,0.2562154233455658,-7.567916393280029,0,0,35.48263931274414,1,1,7998,999
6.14323600,6143236,0,-0.0019241658737882972,-0.010677547194063663,0.0004534306062851101,6.193723201751709,0.2596132755279541,-7.5754313468933105,0,0,35.48308181762695,1,1,7998,999
6.14585100,6145851,0,-0.001662205788306892,-0.009924082085490227,0.0002745598030742258,6.190244674682617,0.26047858595848083,-7.57866907119751,0,0,35.48338317871094,1,1,7998,999
6.16585400,6165854,0,0.0012648770352825522,-0.0013262234861031175,-0.002252032980322838,6.168796062469482,0.25713253021240234,-7.594635963439941,0,0,35.4865837097168,1,1,7998,999
6.16925300,6169253,0,0.0010728160850703716,-0.00032653441303409636,-0.0023804204538464546,6.174572944641113,0.2567574679851532,-7.597395896911621,0,0,35.487064361572266,1,1,7998,999
6.17099500,6170995,0,0.001017414964735508,0.00022632925538346171,-0.002125005004927516,6.178435325622559,0.2562447190284729,-7.598759651184082,0,0,35.48738098144531,1,1,7998,999
6.17319500,6173195,0,0.0008009261218830943,0.000991499051451683,-0.0016092698788270354,6.184642791748047,0.2534353733062744,-7.599334716796875,0,0,35.487850189208984,1,1,7998,999
6.17583000,6175830,0,0.0006462926976382732,0.0014351691352203488,-0.0012643011286854744,6.18707275390625,0.2511155903339386,-7.596217155456543,0,0,35.4881591796875,1,1,7998,999
6.17817800,6178178,0,0.0004268923366907984,0.0021575854625552893,-0.0008313494618050754,6.1867241859436035,0.2503659725189209,-7.593809127807617,0,0,35.488624572753906,1,1,7998,999
6.18082100,6180821,0,0.00032088145962916315,0.002560877474024892,-0.000510733516421169,6.186030387878418,0.2507375478744507,-7.5922770500183105,0,0,35.488929748535156,1,1,7998,999
6.18323100,6183231,0,0.00024421667330898345,0.003135022707283497,-1.3974347893963568e-05,6.185901641845703,0.24948568642139435,-7.5861735343933105,0,0,35.4893798828125,1,1,7998,999
6.18585200,6185852,0,0.00019836022693198174,0.0036414945498108864,0.00035982963163405657,6.186620235443115,0.24818457663059235,-7.583790302276611,0,0,35.48967361450195,1,1,7998,999
6.21584000,6215840,0,0.0019242778653278947,0.01249056775122881,0.00015814400103408843,6.187427997589111,0.24587419629096985,-7.567037105560303,0,0,35.494140625,1,1,7998,999
6.21816700,6218167,0,0.0022194504272192717,0.012300998903810978,0.0003374496300239116,6.183497905731201,0.2383590191602707,-7.559014320373535,0,0,35.49459457397461,1,1,7998,999
6.22083900,6220839,0,0.002396122319623828,0.011987158097326756,0.0004447985265869647,6.181041240692139,0.23520642518997192,-7.556221008300781,0,0,35.49489212036133,1,1,7998,999
6.22352800,6223528,0,0.002464307937771082,0.011175447143614292,0.0005239265155978501,6.179837703704834,0.2340947687625885,-7.555601596832275,0,0,35.4953498840332,1,1,7998,999
6.22680800,6226808,0,0.002480580471456051,0.010419024154543877,0.0006197293987497687,6.18117618560791,0.2353188544511795,-7.5575361251831055,0,0,35.49565505981445,1,1,7998,999
6.22892100,6228921,0,0.002287994371727109,0.008976994082331657,0.0008646168280392885,6.185144901275635,0.23855650424957275,-7.564087867736816,0,0,35.49612045288086,1,1,7998,999
6.25644100,6256441,0,-0.0017989928601309657,-0.010248781181871891,-0.00017331073468085378,6.20044469833374,0.23866407573223114,-7.579145908355713,0,0,35.500701904296875,1,1,7998,999
6.25894400,6258944,0,-0.0021029640920460224,-0.011501339264214039,-0.00031296603265218437,6.2038679122924805,0.2392732799053192,-7.581839084625244,0,0,35.501129150390625,1,1,7998,999
6.26143800,6261438,0,-0.0025656591169536114,-0.013255073688924313,-0.0006129932007752359,6.204267501831055,0.24063096940517426,-7.5832648277282715,0,0,35.50141906738281,1,1,7998,999
6.26399200,6263992,0,-0.0027362436521798372,-0.014202584512531757,-0.0007023542420938611,6.203999042510986,0.24474218487739563,-7.583700180053711,0,0,35.501853942871094,1,1,7998,999
6.26753900,6267539,0,-0.002696526935324073,-0.015204105526208878,-0.0007445293595083058,6.202483177185059,0.2483939826488495,-7.583827018737793,0,0,35.50214767456055,1,1,7998,999
6.29450400,6294504,0,-0.0013039350742474198,-0.002494845073670149,-0.001394473249092698,6.175735950469971,0.2692289352416992,-7.593233108520508,0,0,35.5067024230957,1,1,7998,999
6.29705400,6297054,0,-0.0010517369955778122,-0.00088070472702384,-0.0011991444043815136,6.173330307006836,0.27082523703575134,-7.590409755706787,0,0,35.50703048706055,1,1,7998,999
6.29951200,6299512,0,-0.0007566447020508349,0.0013444354990497231,-0.000956008501816541,6.171877861022949,0.2716982364654541,-7.5878119468688965,0,0,35.50752639770508,1,1,7998,999
6.30205700,6302057,0,-0.0005574609967879951,0.002733486006036401,-0.0008885543211363256,6.172330856323242,0.27218836545944214,-7.587705135345459,0,0,35.50784683227539,1,1,7998,999
6.30454200,6304542,0,-2.2148376956465654e-05,0.004888365976512432,-0.0009345316211692989,6.1745171546936035,0.27428388595581055,-7.587249279022217,0,0,35.508338928222656,1,1,7998,999
6.30704100,6307041,0,0.0006021717563271523,0.006218037102371454,-0.0009583941427990794,6.176629066467285,0.2744677662849426,-7.5898308753967285,0,0,35.5086669921875,1,1,7998,999
6.33205400,6332054,0,0.0015727371210232377,0.009791144169867039,0.001373189385049045,6.184990406036377,0.26458224654197693,-7.564482688903809,0,0,35.512508392333984,1,1,7998,999
6.33448600,6334486,0,0.0017643404426053166,0.009346932172775269,0.001355942920781672,6.185230731964111,0.26382920145988464,-7.561069488525391,0,0,35.512935638427734,1,1,7998,999
6.33704600,6337046,0,0.001917135901749134,0.008977876976132393,0.0013866672525182366,6.187049865722656,0.262314110994339,-7.560137748718262,0,0,35.513221740722656,1,1,7998,999
6.33948000,6339480,0,0.002080561826005578,0.00839796382933855,0.0014142242725938559,6.189319610595703,0.26101216673851013,-7.561853885650635,0,0,35.51366424560547,1,1,7998,999
6.34204800,6342048,0,0.0021727122366428375,0.008042098954319954,0.0014187422348186374,6.189688205718994,0.2611368000507355,-7.563498497009277,0,0,35.51396179199219,1,1,7998,999
6.34453200,6344532,0,0.002065033884719014,0.007302841171622276,0.001276528462767601,6.190206050872803,0.25968223810195923,-7.562509059906006,0,0,35.51439666748047,1,1,7998,999
6.37705500,6377055,0,-0.0016827125800773501,-0.005986899137496948,-0.0014031705213710666,6.1912102699279785,0.25678402185440063,-7.5767130851745605,0,0,35.51870346069336,1,1,7998,999
6.37950300,6379503,0,-0.0018613290740177035,-0.007072797045111656,-0.001414817408658564,6.190145969390869,0.25875213742256165,-7.576690196990967,0,0,35.51909637451172,1,1,7998,999
6.38205300,6382053,0,-0.0018266555853188038,-0.007654983550310135,-0.0014937925152480602,6.189228534698486,0.2604478597640991,-7.574527263641357,0,0,35.51934814453125,1,1,7998,999
6.38453900,6384539,0,-0.0016426155343651772,-0.008106314577162266,-0.0014690386597067118,6.185627460479736,0.262540340423584,-7.568602561950684,0,0,35.51972579956055,1,1,7998,999
6.38706100,6387061,0,-0.0015135379508137703,-0.008262313902378082,-0.0013768288772553205,6.184031009674072,0.2633838653564453,-7.564774990081787,0,0,35.51997756958008,1,1,7998,999
6.40953100,6409531,0,-0.0005891768378205597,-0.003512804629281163,-0.0008742319769226015,6.177618980407715,0.25750982761383057,-7.581613063812256,0,0,35.52283477783203,1,1,7998,999
6.41206100,6412061,0,-0.000256631727097556,-0.0031126178801059723,-0.0004975302726961672,6.178246021270752,0.2613460421562195,-7.586575031280518,0,0,35.5230827331543,1,1,7998,999
6.44461000,6444610,0,0.0012690313160419464,0.004132135771214962,0.0022256283555179834,6.189272403717041,0.24936367571353912,-7.605630874633789,0,0,35.52722930908203,1,1,7998,999
6.44705700,6447057,0,0.0013225303264334798,0.004285047762095928,0.0021612539421766996,6.18884801864624,0.24443332850933075,-7.599521636962891,0,0,35.52748489379883,1,1,7998,999
6.47950700,6479507,0,-0.0005126800970174372,0.00486328499391675,-0.0016764713218435645,6.1812310218811035,0.24645520746707916,-7.5691657066345215,0,0,35.5317497253418,1,1,7998,999
6.48206300,6482063,0,-0.0005461361724883318,0.004399575293064117,-0.0016722094733268023,6.177915096282959,0.24148589372634888,-7.567336082458496,0,0,35.531959533691406,1,1,7998,999
6.63705800,6637058,0,0.00049416976980865,0.0003321587573736906,0.0004963724641129375,6.18855094909668,0.2431155890226364,-7.599774360656738,0,0,35.54732131958008,1,1,7998,999
6.63947900,6639479,0,0.000618051621131599,0.001422288827598095,0.0002738325856626034,6.186621189117432,0.23482844233512878,-7.603264808654785,0,0,35.547584533691406,1,1,7998,999
6.64203800,6642038,0,0.0006025820039212704,0.002243479248136282,0.00013009243411943316,6.186427593231201,0.23078404366970062,-7.604018688201904,0,0,35.54775619506836,1,1,7998,999
6.66809800,6668098,0,0.0008165101171471179,0.006818847730755806,-0.002638007514178753,6.182716369628906,0.2539885342121124,-7.5890631675720215,0,0,35.549774169921875,1,1,7998,999
6.66953600,6669536,0,0.0003547091910149902,0.006096252705901861,-0.0023768339306116104,6.182312965393066,0.25573641061782837,-7.579864025115967,0,0,35.55000305175781,1,1,7998,999
6.67204200,6672042,0,5.78559520363342e-05,0.005488520488142967,-0.0020946243312209845,6.181492328643799,0.2582141160964966,-7.575500965118408,0,0,35.55015563964844,1,1,7998,999
6.67451500,6674515,0,-0.00017719452443998307,0.004415989387780428,-0.0017438122304156423,6.181949138641357,0.26099514961242676,-7.573076248168945,0,0,35.55038833618164,1,1,7998,999
6.67702600,6677026,0,-0.00019215242355130613,0.0036260150372982025,-0.0015488797798752785,6.183321475982666,0.2621194124221802,-7.57406759262085,0,0,35.550540924072266,1,1,7998,999
6.67948500,6679485,0,-9.094119013752788e-05,0.0024077987764030695,-0.0010992255993187428,6.184316635131836,0.2615317404270172,-7.577015399932861,0,0,35.55076599121094,1,1,7998,999
6.71947600,6719476,0,-0.0007600705721415579,-0.005836011841893196,0.000556380779016763,6.185883522033691,0.25558874011039734,-7.573993682861328,0,0,35.553550720214844,1,1,7997,999
6.72203700,6722037,0,-0.0008361485088244081,-0.005534134339541197,0.0003902031166944653,6.1854119300842285,0.25771191716194153,-7.574086666107178,0,0,35.55370330810547,1,1,7997,999
6.72472400,6724724,0,-0.000897554331459105,-0.005056991241872311,0.0002975603856611997,6.182763576507568,0.26025256514549255,-7.5730977058410645,0,0,35.553924560546875,1,1,7997,999
6.72703700,6727037,0,-0.0008722135098651052,-0.004763859324157238,0.0003188958507962525,6.1804094314575195,0.26170438528060913,-7.57239294052124,0,0,35.554073333740234,1,1,7997,999
6.72950600,6729506,0,-0.0009089134400710464,-0.004353292752057314,0.00037112008430995047,6.179108142852783,0.26408496499061584,-7.572864532470703,0,0,35.554290771484375,1,1,7997,999
6.73201700,6732017,0,-0.0010298400884494185,-0.004132721573114395,0.00037415281985886395,6.1786298751831055,0.2651645541191101,-7.57540225982666,0,0,35.554439544677734,1,1,7997,999
6.74953800,6749538,0,-0.0010973229072988033,-0.000500963069498539,-0.0009452773374505341,6.183660984039307,0.251507431268692,-7.592764377593994,0,0,35.55583190917969,1,1,7997,999
6.75203900,6752039,0,-0.0009652885491959751,0.0001784646010491997,-0.0010518223280087113,6.183360576629639,0.2509724795818329,-7.590611457824707,0,0,35.55598068237305,1,1,7997,999
6.75447000,6754470,0,-0.0006065031047910452,0.0012591129634529352,-0.0010409994283691049,6.181700229644775,0.24827802181243896,-7.592010974884033,0,0,35.55619812011719,1,1,7997,999
6.75704500,6757045,0,-0.000324476306559518,0.001881633885204792,-0.0010311551159247756,6.180521488189697,0.24558532238006592,-7.5925116539001465,0,0,35.55635452270508,1,1,7997,999
6.75947100,6759471,0,5.531369606615044e-05,0.0026112359482795,-0.0008807810954749584,6.179208278656006,0.24109391868114471,-7.592183589935303,0,0,35.55658721923828,1,1,7997,999
6.76204300,6762043,0,0.00022533095034305006,0.003008310217410326,-0.0006333185010589659,6.177650451660156,0.237132728099823,-7.5914998054504395,0,0,35.55674362182617,1,1,7997,999
6.78204300,6782043,0,0.00259142997674644,0.007178543601185083,0.000985363614745438,6.180438041687012,0.2512531876564026,-7.571262836456299,0,0,35.558284759521484,1,1,7997,999
6.78452700,6784527,0,0.0026396638713777065,0.007937517948448658,0.0009758973028510809,6.179653644561768,0.2548081576824188,-7.568756103515625,0,0,35.55851745605469,1,1,7997,999
6.78704300,6787043,0,0.0025368782225996256,0.008369614370167255,0.0008511117193847895,6.178893566131592,0.2555733919143677,-7.565749168395996,0,0,35.558677673339844,1,1,7997,999
6.78952300,6789523,0,0.0022291208151727915,0.008874027989804745,0.0007695790263824165,6.178365230560303,0.25529131293296814,-7.561201572418213,0,0,35.558921813964844,1,1,7997,999
6.79201800,6792018,0,0.0019440187606960535,0.008972221054136753,0.0007259893463924527,6.178067684173584,0.25555548071861267,-7.561391353607178,0,0,35.559078216552734,1,1,7997,999
6.79448800,6794488,0,0.0016170450253412127,0.008704607374966145,0.0004329796356614679,6.175793647766113,0.2568407356739044,-7.563100337982178,0,0,35.5593147277832,1,1,7997,999
6.81215400,6812154,0,0.0010849098907783628,0.003489783965051174,-0.0005450278404168785,6.1891961097717285,0.2453966587781906,-7.558754920959473,0,0,35.5609245300293,1,1,7997,999
6.81447200,6814472,0,0.0007889146800152957,0.002626551780849695,-0.0005925490404479206,6.1869025230407715,0.2445606291294098,-7.561629772186279,0,0,35.56121063232422,1,1,7997,999
6.81703600,6817036,0,0.00047976901987567544,0.001875834190286696,-0.000584501656703651,6.186784267425537,0.24479448795318604,-7.565973281860352,0,0,35.561485290527344,1,1,7997,999
6.81946900,6819469,0,7.619887037435547e-05,0.0005887308507226408,-0.0006448435597121716,6.189144134521484,0.24356672167778015,-7.574856758117676,0,0,35.56174850463867,1,1,7997,999
6.82204200,6822042,0,-0.0001366481592413038,-0.00027947340277023613,-0.0007597164367325604,6.190836429595947,0.2425951510667801,-7.580653667449951,0,0,35.56192398071289,1,1,7997,999
6.82472000,6824720,0,-0.00046088738599792123,-0.001550266519188881,-0.000837417901493609,6.193548679351807,0.24468159675598145,-7.589682579040527,0,0,35.562191009521484,1,1,7997,999
6.84452600,6844526,0,-0.0010508897248655558,-0.005114858038723469,-0.0009078019647859037,6.193656921386719,0.26131346821784973,-7.584461212158203,0,0,35.563846588134766,1,1,7997,999
6.84702300,6847023,0,-0.0009183150832541287,-0.005374109372496605,-0.000655361101962626,6.191679000854492,0.26349976658821106,-7.586522579193115,0,0,35.564002990722656,1,1,7997,999
6.84953700,6849537,0,-0.0007305687759071589,-0.005777838174253702,-0.0004543130344245583,6.189332485198975,0.2659797966480255,-7.588787078857422,0,0,35.564239501953125,1,1,7997,999
6.85202300,6852023,0,-0.0005375880864448845,-0.006127995904535055,-0.000312503834720701,6.187740802764893,0.2677362859249115,-7.590161323547363,0,0,35.56439208984375,1,1,7997,999
6.85448000,6854480,0,-0.000290889001917094,-0.0064847455359995365,-5.936122306593461e-06,6.184837818145752,0.26862478256225586,-7.592686653137207,0,0,35.56461715698242,1,1,7997,999
6.85704200,6857042,0,-0.00021896380349062383,-0.006609627977013588,7.084335084073246e-05,6.182729244232178,0.26815730333328247,-7.5946221351623535,0,0,35.56476974487305,1,1,7997,999
6.87703900,6877039,0,-0.0012144193751737475,-0.005108263809233904,0.0015349446330219507,6.189422130584717,0.24588850140571594,-7.591917514801025,0,0,35.566062927246094,1,1,7997,999
6.87948400,6879484,0,-0.0014564944431185722,-0.004182348493486643,0.0018954469123855233,6.18979024887085,0.24616371095180511,-7.593282699584961,0,0,35.56625747680664,1,1,7997,999
6.88203500,6882035,0,-0.0015025634784251451,-0.0035394662991166115,0.001973577309399843,6.188675880432129,0.24649670720100403,-7.592807292938232,0,0,35.56639099121094,1,1,7997,999
6.88453000,6884530,0,-0.0012418254045769572,-0.0025585719849914312,0.0019844230264425278,6.187259197235107,0.24584375321865082,-7.593494892120361,0,0,35.56658172607422,1,1,7997,999
6.88704500,6887045,0,-0.00095042196335271,-0.0018314814660698175,0.0019812113605439663,6.187675952911377,0.2460077852010727,-7.59294319152832,0,0,35.566707611083984,1,1,7997,999
6.88952800,6889528,0,-0.0006090993992984295,-0.0005990370991639793,0.0019264697330072522,6.189659595489502,0.24504370987415314,-7.59002161026001,0,0,35.56688690185547,1,1,7997,999
6.90952400,6909524,0,0.0005031588952988386,0.007502845488488674,-0.0011032095644623041,6.182679653167725,0.24918727576732635,-7.578341484069824,0,0,35.5681266784668,1,1,7997,999
6.91204100,6912041,0,0.0006407719920389354,0.007758437655866146,-0.0011709328973665833,6.180278301239014,0.2488349825143814,-7.578925132751465,0,0,35.56824493408203,1,1,7997,999
6.91448600,6914486,0,0.0009146429947577417,0.007909546606242657,-0.001121892360970378,6.177560329437256,0.24619731307029724,-7.582102298736572,0,0,35.56842041015625,1,1,7997,999
6.91704200,6917042,0,0.0010608056327328086,0.007840667851269245,-0.0010954849421977997,6.176093578338623,0.24370230734348297,-7.5847859382629395,0,0,35.568546295166016,1,1,7997,999
6.91948500,6919485,0,0.0011373835150152445,0.007404559291899204,-0.0010795366251841187,6.174809455871582,0.24215491116046906,-7.587158679962158,0,0,35.56874084472656,1,1,7997,999
6.92204200,6922042,0,0.0010967263951897621,0.00701775262132287,-0.0009330237517133355,6.175052165985107,0.24208170175552368,-7.588720798492432,0,0,35.56886672973633,1,1,7997,999
6.93948600,6939486,0,5.769090785179287e-05,0.001718092244118452,0.0003840098506771028,6.181987762451172,0.2549285888671875,-7.581591606140137,0,0,35.56996536254883,1,1,7997,999
6.94203200,6942032,0,-6.769979518139735e-05,0.0010808813385665417,0.00022495799930766225,6.185876846313477,0.25569427013397217,-7.578779220581055,0,0,35.57008361816406,1,1,7997,999
6.94453500,6944535,0,-0.0001083324386854656,0.00034032706753350794,0.00017212516104336828,6.193153381347656,0.25901398062705994,-7.5727858543396,0,0,35.57025909423828,1,1,7997,999
6.94703100,6947031,0,-4.77226021757815e-05,-2.2312666260404512e-05,0.00017325193039141595,6.197842597961426,0.2609771490097046,-7.569999694824219,0,0,35.57036590576172,1,1,7997,999
6.94953200,6949532,0,7.83393406891264e-05,-0.000142314747790806,0.0001413184654666111,6.202980995178223,0.2643275856971741,-7.5689568519592285,0,0,35.570533752441406,1,1,7997,999
6.95208400,6952084,0,0.00017568519979249686,-0.00013764198229182512,0.00022309400083031505,6.205073833465576,0.2672370970249176,-7.569864749908447,0,0,35.570648193359375,1,1,7997,999
6.97703600,6977036,0,0.000536714622285217,-0.0019556719344109297,0.0007527917041443288,6.192612171173096,0.24904288351535797,-7.5712056159973145,0,0,35.572086334228516,1,1,7997,999
6.97947100,6979471,0,0.0006577262538485229,-0.002287316834554076,0.0003440481086727232,6.191213130950928,0.24775972962379456,-7.573295593261719,0,0,35.57224655151367,1,1,7997,999
6.98204000,6982040,0,0.0006067353533580899,-0.0025313931982964277,0.00017736860900186002,6.191482067108154,0.24743111431598663,-7.575671195983887,0,0,35.572349548339844,1,1,7997,999
6.98450800,6984508,0,0.00022820041340310127,-0.002501081908121705,-1.503374551248271e-05,6.190753936767578,0.2477760761976242,-7.580398082733154,0,0,35.57250213623047,1,1,7997,999
6.98703300,6987033,0,-9.521706670057029e-05,-0.0024506701156497,-0.00023569467884954065,6.188931941986084,0.24686932563781738,-7.584928035736084,0,0,35.57259750366211,1,1,7997,999
6.98952500,6989525,0,-0.0004561328387353569,-0.0023506474681198597,-0.0004429635009728372,6.186830043792725,0.24456787109375,-7.587170124053955,0,0,35.57273864746094,1,1,7997,999
7.00703600,7007036,0,-0.0006455274415202439,-0.0006438787677325308,-0.0016635050997138023,6.17642879486084,0.24973422288894653,-7.588906288146973,0,0,35.5734748840332,1,1,7997,999
7.00951200,7009512,0,-0.0007184772402979434,-0.0001672695652814582,-0.002090374007821083,6.178860664367676,0.2529818117618561,-7.586194038391113,0,0,35.573604583740234,1,1,7997,999
7.01202100,7012021,0,-0.0008402922539971769,2.01494312932482e-05,-0.002276235492900014,6.181692123413086,0.25387129187583923,-7.58363676071167,0,0,35.57373046875,1,1,7997,999
7.01448300,7014483,0,-0.0009302223334088922,0.00014305529475677758,-0.002274991013109684,6.185046672821045,0.25433120131492615,-7.578128814697266,0,0,35.573856353759766,1,1,7997,999
7.01702200,7017022,0,-0.0008856398053467274,0.00019379884179215878,-0.002105723600834608,6.186569690704346,0.2546451985836029,-7.57674503326416,0,0,35.573936462402344,1,1,7997,999
7.01947900,7019479,0,-0.0007488047122024,0.00018601161718834192,-0.0018351852195337415,6.189080715179443,0.2543100118637085,-7.575108051300049,0,0,35.57407760620117,1,1,7997,999
7.03948700,7039487,0,-0.0001786493230611086,-0.0013341126032173634,0.0007744518225081265,6.188044548034668,0.25907909870147705,-7.561930179595947,0,0,35.57490539550781,1,1,7997,999
7.04204200,7042042,0,1.761281623657851e-06,-0.0014065838186070323,0.0010061010252684355,6.189375400543213,0.2598186135292053,-7.567351818084717,0,0,35.57497787475586,1,1,7997,999
7.04452900,7044529,0,0.00022988456476014107,-0.0013058118056505919,0.0012188549153506756,6.191782474517822,0.2587435841560364,-7.577341556549072,0,0,35.57506561279297,1,1,7997,999
7.04703700,7047037,0,0.00046841712901368737,-0.0011985220480710268,0.0012474610703065991,6.19344425201416,0.25770601630210876,-7.582159042358398,0,0,35.57511901855469,1,1,7997,999
7.04953300,7049533,0,0.0008656263817101717,-0.0009105302160605788,0.0011930186301469803,6.193665027618408,0.25270548462867737,-7.583918571472168,0,0,35.575199127197266,1,1,7997,999
7.05204000,7052040,0,0.0010954068275168538,-0.000597282953094691,0.0010571479797363281,6.191405773162842,0.24914546310901642,-7.582292079925537,0,0,35.575252532958984,1,1,7997,999
7.08703200,7087032,0,-0.00044518636423163116,0.002583905356004834,4.894664016319439e-06,6.180559158325195,0.2758500874042511,-7.587820529937744,0,0,35.57614517211914,1,1,7997,999
7.08952300,7089523,0,-0.0005952469073235989,0.0022945967502892017,0.0002683593484107405,6.179905891418457,0.2696930468082428,-7.584917068481445,0,0,35.57621765136719,1,1,7997,999
7.09203400,7092034,0,-0.0007607677835039794,0.0021573808044195175,0.00032222529989667237,6.178006649017334,0.265310138463974,-7.584168434143066,0,0,35.576263427734375,1,1,7997,999
7.09447400,7094474,0,-0.0009480338776484132,0.0019634475465863943,0.00020581392163876444,6.174740314483643,0.26223644614219666,-7.583248138427734,0,0,35.576316833496094,1,1,7997,999
7.09703200,7097032,0,-0.0010546226985752583,0.001896267174743116,0.00014802246005274355,6.1732401847839355,0.2608066201210022,-7.581504821777344,0,0,35.57634353637695,1,1,7997,999
7.09949000,7099490,0,-0.0010269206250086427,0.0018584640929475427,-7.82482820795849e-05,6.171947479248047,0.2572202980518341,-7.576351165771484,0,0,35.57637405395508,1,1,7997,999
7.11948600,7119486,0,0.000569791707675904,0.0026917632203549147,-0.0020729315001517534,6.189425945281982,0.2529138922691345,-7.572732448577881,0,0,35.57657241821289,1,1,7997,999
7.12202400,7122024,0,0.0007401441689580679,0.002596211154013872,-0.0021080379374325275,6.1895012855529785,0.2552209496498108,-7.573729515075684,0,0,35.576602935791016,1,1,7997,999
7.12471800,7124718,0,0.000993286375887692,0.002361111342906952,-0.0019914498552680016,6.18817138671875,0.2560235857963562,-7.56980562210083,0,0,35.5766487121582,1,1,7997,999
7.12702500,7127025,0,0.0010057847248390317,0.0021430107299238443,-0.0018569149542599916,6.187022686004639,0.25624310970306396,-7.566248416900635,0,0,35.57667922973633,1,1,7997,999
7.12952400,7129524,0,0.0008581791189499199,0.0016981851076707244,-0.001621882664039731,6.186258316040039,0.25803449749946594,-7.563248157501221,0,0,35.57674789428711,1,1,7997,999
7.13204400,7132044,0,0.0008655249257571995,0.0011949448380619287,-0.0013682774733752012,6.185526371002197,0.2588934302330017,-7.562088489532471,0,0,35.57680130004883,1,1,7997,999
7.15208200,7152082,0,0.0006761702243238688,-0.0047121248207986355,0.0023024482652544975,6.182483196258545,0.24807478487491608,-7.58104133605957,0,0,35.57749557495117,1,1,7997,999
7.15449500,7154495,0,0.00045509010669775307,-0.00499768927693367,0.002653935458511114,6.182128429412842,0.2517988979816437,-7.580760955810547,0,0,35.57764434814453,1,1,7997,999
7.15704000,7157040,0,0.0002975823590531945,-0.004982154816389084,0.002728898311033845,6.182407379150391,0.25531110167503357,-7.5825514793396,0,0,35.57771682739258,1,1,7997,999
7.15948200,7159482,0,3.555549483280629e-06,-0.005057043861597776,0.0026671180967241526,6.183472156524658,0.2600667178630829,-7.584865093231201,0,0,35.57782745361328,1,1,7997,999
7.16204200,7162042,0,-0.00022762433218304068,-0.005004328675568104,0.0025724703446030617,6.185482978820801,0.26211610436439514,-7.585319519042969,0,0,35.57790756225586,1,1,7997,999
7.16451300,7164513,0,-0.0005244382191449404,-0.004674712661653757,0.0021230534184724092,6.188286304473877,0.26324737071990967,-7.587602138519287,0,0,35.578033447265625,1,1,7997,999
7.18453100,7184531,0,0.000241521091083996,0.0025927529204636812,-0.0016543121309950948,6.184696674346924,0.25291359424591064,-7.585964679718018,0,0,35.578956604003906,1,1,7997,999
7.18692000,7186920,0,0.0003857657720800489,0.002969858469441533,-0.0018144184723496437,6.185197353363037,0.25218895077705383,-7.584466457366943,0,0,35.57899856567383,1,1,7997,999
7.43652300,7436523,0,0.0026035483460873365,0.0012701021041721106,-0.002990028588101268,5.842155456542969,0.23612642288208008,-7.158474445343018,2,2,35.579532623291016,1,1,7997,999
7.43960900,7439609,0,0.015048383735120296,-0.017033781856298447,-0.0076559861190617085,3.3536128997802734,0.13405905663967133,-4.105803966522217,2,2,35.58235549926758,1,1,7997,999
7.44096500,7440965,0,0.015582013875246048,-0.019516058266162872,-0.007782634347677231,2.4986400604248047,0.0990627110004425,-3.0582921504974365,2,2,35.58373260498047,1,1,7997,999
7.44348300,7443483,0,0.006644458044320345,-0.013512972742319107,-0.005097095854580402,2.198641061782837,0.08705266565084457,-2.6908862590789795,2,2,35.58464431762695,1,1,7997,999
7.44586200,7445862,0,-0.020337440073490143,0.011870373971760273,0.004513875115662813,2.2390146255493164,0.09099160879850388,-2.7405176162719727,2,2,35.58595275878906,1,1,7997,999
7.44851400,7448514,0,-0.04272200167179108,0.03546104580163956,0.013103126548230648,2.5066049098968506,0.10370850563049316,-3.068195104598999,2,2,35.586795806884766,1,1,7997,999
7.45113900,7451139,0,-0.07746569812297821,0.07299033552408218,0.026856420561671257,3.104757070541382,0.1292126476764679,-3.802180290222168,2,2,35.58800506591797,1,1,7997,999
7.45350400,7453504,0,-0.09932848066091537,0.09730227291584015,0.03581513836979866,3.559375286102295,0.14821197092533112,-4.3624067306518555,2,2,35.58877944946289,1,1,7997,999
7.45583500,7455835,0,-0.12867391109466553,0.13098646700382233,0.04763372242450714,4.238699436187744,0.17774905264377594,-5.200024604797363,2,2,35.58987808227539,1,1,7997,999
7.45847000,7458470,0,-0.14586547017097473,0.15080364048480988,0.05415911227464676,4.657873630523682,0.1971060335636139,-5.716014385223389,2,2,35.59058380126953,1,1,7997,999
7.46068000,7460680,0,-0.168009951710701,0.17622260749340057,0.06288132071495056,5.2037553787231445,0.22176553308963776,-6.384730339050293,2,2,35.59158706665039,1,1,7997,999
7.46346100,7463461,0,-0.17975309491157532,0.19016845524311066,0.06754299998283386,5.503543853759766,0.23490414023399353,-6.749232292175293,2,2,35.59222412109375,1,1,7997,999
7.46560900,7465609,0,-0.19218698143959045,0.20590008795261383,0.07337018847465515,5.854247570037842,0.2524106502532959,-7.1767401695251465,2,2,35.593135833740234,1,1,7997,999
7.46845400,7468454,0,-0.1972811371088028,0.2141701728105545,0.07640776038169861,6.027255535125732,0.2615097165107727,-7.385631084442139,2,2,35.593719482421875,1,1,7997,999
7.47066500,7470665,0,-0.2015906572341919,0.22417335212230682,0.07877684384584427,6.209587574005127,0.27003294229507446,-7.60211181640625,2,2,35.59455108642578,1,1,7997,999
7.47314200,7473142,0,-0.20363643765449524,0.22867226600646973,0.0803244337439537,6.286935329437256,0.2736118733882904,-7.693554878234863,3,3,35.59507369995117,1,1,7997,999
7.47587500,7475875,0,-0.2048466056585312,0.2330627590417862,0.08175773918628693,6.3494133949279785,0.2765035331249237,-7.770888328552246,3,3,35.59580993652344,1,1,7997,999
7.47812700,7478127,0,-0.20479978621006012,0.2360643446445465,0.08181916177272797,6.365863800048828,0.2759152948856354,-7.793605804443359,3,3,35.596275329589844,1,1,7997,999
7.48063400,7480634,0,-0.20281633734703064,0.24201472103595734,0.08105148375034332,6.365706920623779,0.2726811170578003,-7.79863977432251,3,3,35.596927642822266,1,1,7997,999
7.48312900,7483129,0,-0.20043395459651947,0.24626752734184265,0.07973790913820267,6.354180812835693,0.270694762468338,-7.789337635040283,3,3,35.59733581542969,1,1,7997,999
7.48563800,7485638,0,-0.1951863020658493,0.251858651638031,0.07738649100065231,6.326697826385498,0.26708099246025085,-7.764098644256592,3,3,35.59791564941406,1,1,7997,999
7.48850600,7488506,0,-0.1927163451910019,0.25516098737716675,0.0753602460026741,6.305901527404785,0.2645018696784973,-7.740628242492676,3,3,35.598270416259766,1,1,7997,999
7.49064000,7490640,0,-0.18984712660312653,0.259774386882782,0.07249193638563156,6.274192810058594,0.2610587775707245,-7.700912952423096,3,3,35.59876251220703,1,1,7997,999
7.49314100,7493141,0,-0.1884530931711197,0.263263076543808,0.07110785692930222,6.2544331550598145,0.2591880261898041,-7.677316188812256,3,3,35.599063873291016,1,1,7997,999
7.49564100,7495641,0,-0.18611420691013336,0.26791486144065857,0.07046209275722504,6.2288007736206055,0.2591719329357147,-7.646965980529785,3,3,35.5994758605957,1,1,7997,999
7.49814900,7498149,0,-0.18410111963748932,0.27034255862236023,0.0706620141863823,6.2153706550598145,0.260221004486084,-7.629458427429199,3,3,35.59973907470703,1,1,7997,999
7.50087100,7500871,0,-0.18089669942855835,0.27428972721099854,0.07041886448860168,6.199704170227051,0.261446475982666,-7.607356548309326,3,3,35.600093841552734,1,1,7997,999
7.50314100,7503141,0,-0.17963993549346924,0.2774781882762909,0.07057978957891464,6.192154884338379,0.26135116815567017,-7.596421718597412,3,3,35.60031509399414,1,1,7997,999
7.50561900,7505619,0,-0.17918214201927185,0.2798832356929779,0.07216556370258331,6.187111854553223,0.26248690485954285,-7.5860443115234375,3,3,35.600616455078125,1,1,7997,999
7.50818400,7508184,0,-0.17928463220596313,0.2809051275253296,0.0738556832075119,6.186429500579834,0.26236000657081604,-7.584125518798828,3,3,35.60079574584961,1,1,7997,999
7.51066600,7510666,0,-0.1797269731760025,0.2823803126811981,0.07663973420858383,6.186297416687012,0.2610180974006653,-7.583616256713867,3,3,35.601043701171875,1,1,7997,999
7.51819100,7518191,0,-0.1832975596189499,0.2810935974121094,0.08149401843547821,6.187748908996582,0.2607244849205017,-7.595376491546631,3,3,35.601524353027344,1,1,7997,999
7.52064700,7520647,0,-0.18477044999599457,0.27937769889831543,0.08228614181280136,6.186239242553711,0.25788477063179016,-7.597750663757324,3,3,35.60173034667969,1,1,7997,999
7.52314100,7523141,0,-0.1851089596748352,0.27790048718452454,0.08248110115528107,6.183753490447998,0.2556331753730774,-7.598230361938477,3,3,35.601810455322266,1,1,7997,999
7.52587400,7525874,0,-0.18631631135940552,0.27606523036956787,0.08087731897830963,6.179471015930176,0.2543744444847107,-7.598979949951172,3,3,35.60190200805664,1,1,7997,999
7.52818500,7528185,0,-0.18673446774482727,0.2752484083175659,0.07913672924041748,6.177206516265869,0.2538008391857147,-7.598540306091309,3,3,35.6019287109375,1,1,7997,999
7.53066800,7530668,0,-0.18679875135421753,0.2742517590522766,0.0777331292629242,6.172967433929443,0.25271734595298767,-7.597980499267578,3,3,35.60194778442383,1,1,7997,999
7.57317400,7573174,0,0.007589578162878752,-0.014491768553853035,-0.00212895218282938,6.169403076171875,0.24896977841854095,-7.569849967956543,4,4,35.59957504272461,1,1,7997,999
7.57590200,7575902,0,0.006270401179790497,-0.012662991881370544,-0.0014851171290501952,6.1731390953063965,0.24777865409851074,-7.57233190536499,4,4,35.59912109375,1,1,7997,999
7.57814000,7578140,0,0.005246305838227272,-0.011241157539188862,-0.0010699451668187976,6.176113128662109,0.2485223114490509,-7.572539806365967,4,4,35.5988883972168,1,1,7997,999
7.58064000,7580640,0,0.003916402813047171,-0.009135624393820763,-0.0007299430435523391,6.182799816131592,0.2514840364456177,-7.5689873695373535,4,4,35.5985221862793,1,1,7997,999
7.58312200,7583122,0,0.0032830832060426474,-0.007705993950366974,-0.0005422764807008207,6.18733024597168,0.2528340220451355,-7.566869735717773,4,4,35.59827423095703,1,1,7997,999
7.58563900,7585639,0,0.00253858370706439,-0.005696724634617567,-0.0002059384569292888,6.190466403961182,0.2522733211517334,-7.563055038452148,4,4,35.597896575927734,1,1,7997,999
7.60819200,7608192,0,-0.00021479772112797946,-0.0008219431038014591,-0.00018967920914292336,6.180582046508789,0.24942535161972046,-7.588915824890137,4,4,35.59478759765625,1,1,7997,999
7.61063300,7610633,0,-0.00016594023327343166,-0.0007760738371871412,-0.00035769943497143686,6.1752495765686035,0.24783474206924438,-7.594851970672607,4,4,35.59431838989258,1,1,7997,999
7.61404000,7614040,0,-7.063806697260588e-05,-0.0007721140282228589,-0.0003467529022600502,6.172377109527588,0.24697086215019226,-7.598382472991943,4,4,35.59401321411133,1,1,7997,999
7.61563800,7615638,0,7.235666271299124e-05,-0.0006991816917434335,-0.00013683662109542638,6.173130035400391,0.2465723156929016,-7.602838039398193,4,4,35.59355926513672,1,1,7997,999
7.61816000,7618160,0,5.9361405874369666e-05,-0.00044222752330824733,-4.426389205036685e-05,6.175436019897461,0.24659594893455505,-7.6028337478637695,4,4,35.593257904052734,1,1,7997,999
7.62061800,7620618,0,-0.00022858755255583674,-0.00016962128574959934,0.00016199231322389096,6.179397106170654,0.24809399247169495,-7.602773666381836,4,4,35.59280776977539,1,1,7997,999
7.64312400,7643124,0,-0.00025047833332791924,0.0025544289965182543,-0.0007578724762424827,6.182840347290039,0.27045080065727234,-7.563405990600586,4,4,35.58937072753906,1,1,7997,999
7.64564200,7645642,0,0.00022812777024228126,0.0031772716902196407,-0.00044094008626416326,6.184658527374268,0.2714023292064667,-7.5618896484375,4,4,35.58887481689453,1,1,7997,999
7.64819700,7648197,0,0.0004627854796126485,0.0034360806457698345,-0.00021988125809002668,6.184377193450928,0.27084657549858093,-7.561802864074707,4,4,35.58854293823242,1,1,7997,999
7.65093300,7650933,0,0.000609987007919699,0.003644786309450865,-6.260897498577833e-05,6.182814598083496,0.2692798376083374,-7.563327312469482,4,4,35.58804702758789,1,1,7997,999
7.65314600,7653146,0,0.0006230672006495297,0.003715336788445711,-1.962528949661646e-05,6.181447505950928,0.2671731412410736,-7.564239501953125,4,4,35.58771896362305,1,1,7997,999
7.65563700,7655637,0,0.0006879357388243079,0.0037571219727396965,-2.1347118206449522e-07,6.17855978012085,0.26390403509140015,-7.56733512878418,4,4,35.58723449707031,1,1,7997,999
7.67814300,7678143,0,0.0007065935642458498,0.0003943750634789467,0.0021230815909802914,6.17919921875,0.2589368522167206,-7.562052249908447,4,4,35.58360290527344,1,1,7997,999
7.68063800,7680638,0,0.00039955799002200365,-0.00015916013217065483,0.002400096273049712,6.1767191886901855,0.2619958221912384,-7.559833526611328,4,4,35.583091735839844,1,1,7997,999
7.68314700,7683147,0,0.00015435727254953235,-0.0005903534474782646,0.002478991635143757,6.1769795417785645,0.2633921802043915,-7.560837268829346,4,4,35.58274841308594,1,1,7997,999
7.68564200,7685642,0,-0.00011763309157686308,-0.001186665496788919,0.002293467754498124,6.178774356842041,0.26423510909080505,-7.567757606506348,4,4,35.582237243652344,1,1,7997,999
7.68853300,7688533,0,-0.0001285823091166094,-0.0014777067117393017,0.0021208622492849827,6.1796698570251465,0.2637230157852173,-7.573721885681152,4,4,35.58189392089844,1,1,7997,999
7.69064100,7690641,0,-8.008869917830452e-05,-0.0017942170379683375,0.0018260559299960732,6.180208206176758,0.2638038396835327,-7.579011917114258,4,4,35.58136749267578,1,1,7997,999
7.71065500,7710655,0,-0.0002239132154500112,-0.00046714721247553825,-0.0015012299409136176,6.193347454071045,0.26487454771995544,-7.58542537689209,4,4,35.57703399658203,1,1,7997,999
7.71408600,7714086,0,-0.00026950129540637136,-0.00016323770978488028,-0.0016483108047395945,6.195563793182373,0.2649301588535309,-7.589742660522461,4,4,35.57670593261719,1,1,7997,999
7.71562000,7715620,0,-0.00040913213160820305,0.00030208774842321873,-0.0017567367758601904,6.198737144470215,0.26560378074645996,-7.594782829284668,4,4,35.576045989990234,1,1,7997,999
7.71815500,7718155,0,-0.0004704091406892985,0.0006214164313860238,-0.0017435182817280293,6.198770999908447,0.2645842134952545,-7.595733165740967,4,4,35.57571029663086,1,1,7997,999
7.72063500,7720635,0,-0.0004711985238827765,0.00114923226647079,-0.0017566620372235775,6.196187496185303,0.26128557324409485,-7.593660831451416,4,4,35.5752067565918,1,1,7997,999
7.72317600,7723176,0,-0.0004953050520271063,0.001390597433783114,-0.0018353761406615376,6.1950178146362305,0.2599317133426666,-7.590763092041016,4,4,35.574729919433594,1,1,7997,999
7.74563800,7745638,0,-0.00010931396536761895,0.0011072116903960705,-0.00011985915625700727,6.180691242218018,0.26265594363212585,-7.570751190185547,4,4,35.5706787109375,1,1,7997,999
7.74818300,7748183,0,0.00012405564484652132,0.0008563864976167679,-1.1101352356490679e-05,6.178232192993164,0.2632487416267395,-7.570631980895996,4,4,35.570396423339844,1,1,7997,999
7.75092800,7750928,0,0.0005712306592613459,0.0001616325171198696,0.00034223878174088895,6.176093101501465,0.2643415033817291,-7.566676139831543,4,4,35.56997299194336,1,1,7997,999
7.75312300,7753123,0,0.0008054850623011589,-0.00038967441651038826,0.0006417896947823465,6.177967071533203,0.2628018856048584,-7.564357757568359,4,4,35.56969451904297,1,1,7997,999
7.75564800,7755648,0,0.0008791005820967257,-0.0013344524195417762,0.0009812405332922935,6.184319496154785,0.25747594237327576,-7.563525676727295,4,4,35.56926727294922,1,1,7997,999
7.75818200,7758182,0,0.0008422821993008256,-0.0019207015866413713,0.0012049006763845682,6.187020778656006,0.25270962715148926,-7.5633134841918945,4,4,35.56897735595703,1,1,7997,999
7.77591800,7775918,0,0.0009460702422074974,-0.004444930702447891,0.0026030531153082848,6.182398796081543,0.24357755482196808,-7.586352825164795,4,4,35.566322326660156,1,1,7997,999
7.77814400,7778144,0,0.0008629283402115107,-0.004429174121469259,0.002618330530822277,6.180135250091553,0.24371491372585297,-7.587821960449219,4,4,35.56605911254883,1,1,7997,999
7.78062400,7780624,0,0.0007357739377766848,-0.004202853888273239,0.0026424897368997335,6.181660175323486,0.2414982169866562,-7.58791971206665,4,4,35.56565475463867,1,1,7997,999
7.78313700,7783137,0,0.0005710339755751193,-0.003997867926955223,0.0025324395392090082,6.185262203216553,0.23981952667236328,-7.587002277374268,4,4,35.56538391113281,1,1,7997,999
7.78564300,7785643,0,0.00011858837387990206,-0.003647662466391921,0.0023531627375632524,6.189999580383301,0.23856864869594574,-7.587073802947998,4,4,35.56497573852539,1,1,7997,999
7.78852600,7788526,0,-0.000133961220853962,-0.0033200851175934076,0.002169463550671935,6.190427303314209,0.23678722977638245,-7.589636325836182,4,4,35.56470489501953,1,1,7997,999
7.80817000,7808170,0,7.584886043332517e-05,0.003593308152630925,-0.0013915053568780422,6.165765285491943,0.2568308711051941,-7.587522983551025,4,4,35.562252044677734,1,1,7997,999
7.81076300,7810763,0,0.00029230304062366486,0.004705077037215233,-0.0018071932718157768,6.169875621795654,0.2607614994049072,-7.580082416534424,4,4,35.561954498291016,1,1,7997,999
7.81403600,7814036,0,0.00022161239758133888,0.005396005231887102,-0.0020144775044173002,6.174493789672852,0.26198896765708923,-7.573633193969727,4,4,35.56177520751953,1,1,7997,999
7.81564100,7815641,0,-5.4333511798176914e-05,0.006233457941561937,-0.0020627158228307962,6.183624267578125,0.26172924041748047,-7.564352989196777,4,4,35.56150817871094,1,1,7997,999
7.81815700,7818157,0,-0.00016747077461332083,0.006494303233921528,-0.0020081428810954094,6.190201282501221,0.2631857097148895,-7.560102939605713,4,4,35.561336517333984,1,1,7997,999
7.82062000,7820620,0,-0.00013292157382238656,0.006606694310903549,-0.0019385373452678323,6.1962409019470215,0.26874956488609314,-7.555333137512207,4,4,35.56108474731445,1,1,7997,999
7.87352100,7873521,0,0.0003547513042576611,-0.002884932328015566,0.00014794059097766876,6.188145160675049,0.2467159777879715,-7.56718111038208,4,4,35.55752944946289,1,1,7997,999
7.87606700,7876067,0,2.0864061298198067e-05,-0.0032442675437778234,0.00015277665806934237,6.19306755065918,0.246295765042305,-7.5693864822387695,4,4,35.557369232177734,1,1,7997,999
7.87812400,7878124,0,-0.0002823254035320133,-0.0034337264951318502,0.0001611634943401441,6.194713592529297,0.24638719856739044,-7.569797039031982,4,4,35.55727767944336,1,1,7997,999
7.88063500,7880635,0,-0.0006999382749199867,-0.0036495602689683437,0.00024540454614907503,6.195300579071045,0.24879905581474304,-7.572818279266357,4,4,35.557159423828125,1,1,7997,999
7.88313600,7883136,0,-0.000821500550955534,-0.003784308210015297,0.0002807955024763942,6.1956353187561035,0.25144025683403015,-7.575728416442871,4,4,35.557098388671875,1,1,7997,999
7.88561900,7885619,0,-0.000976861803792417,-0.003935571759939194,0.00043738618842326105,6.196057319641113,0.25540149211883545,-7.581324577331543,4,4,35.557010650634766,1,1,7997,999
7.90563500,7905635,0,3.392210783204064e-05,-0.0020678762812167406,-0.00039931299397721887,6.173423767089844,0.25967836380004883,-7.59354305267334,4,4,35.556724548339844,1,1,7997,999
7.90823500,7908235,0,0.00018514052499085665,-0.0013667677994817495,-0.0005954747903160751,6.170132160186768,0.25856509804725647,-7.595003128051758,4,4,35.55674743652344,1,1,7997,999
7.91065400,7910654,0,0.00030759404762648046,-0.00021777325309813023,-0.00102423841599375,6.166040420532227,0.26108458638191223,-7.594362258911133,4,4,35.556800842285156,1,1,7997,999
7.91405800,7914058,0,0.0002972703077830374,0.0005246440996415913,-0.0013770931400358677,6.165626525878906,0.2621581256389618,-7.5944437980651855,4,4,35.556846618652344,1,1,7997,999
7.91563300,7915633,0,0.00014681939501315355,0.00150293146725744,-0.0016527778934687376,6.165858745574951,0.26423367857933044,-7.595385551452637,4,4,35.556915283203125,1,1,7997,999
7.91821000,7918210,0,3.4941920148412464e-06,0.002005196176469326,-0.0018125894712284207,6.167213439941406,0.2651340067386627,-7.59419584274292,4,4,35.55695343017578,1,1,7997,999
7.93671600,7936716,0,0.0008953988435678184,0.001505054533481598,-0.00044757884461432695,6.192507743835449,0.26155686378479004,-7.581878662109375,4,4,35.557395935058594,1,1,7997,999
7.93851800,7938518,0,0.0009402247378602624,0.0009662282536737621,-0.00011887192522408441,6.1942362785339355,0.2605215609073639,-7.578003406524658,4,4,35.557464599609375,1,1,7997,999
7.94060900,7940609,0,0.0009697976638562977,0.000260731641901657,0.0005000298260711133,6.194084167480469,0.2600061595439911,-7.571865558624268,4,4,35.55755615234375,1,1,7997,999
7.94314000,7943140,0,0.0009921252494677901,-5.4953983635641634e-05,0.001011576154269278,6.193308353424072,0.25998517870903015,-7.570315361022949,4,4,35.557613372802734,1,1,7997,999
7.94564100,7945641,0,0.000758855720050633,-0.0006018322892487049,0.0016839361051097512,6.191507816314697,0.25868210196495056,-7.572680473327637,4,4,35.55770492553711,1,1,7997,999
7.98562800,7985628,0,0.0010542577365413308,0.003505176631733775,-0.001720526721328497,6.18276309967041,0.2608191668987274,-7.580105781555176,4,4,35.559288024902344,1,1,7997,999
7.98852300,7988523,0,0.0010430844267830253,0.003300208132714033,-0.0015440189745277166,6.183931827545166,0.26238030195236206,-7.575560092926025,4,4,35.559391021728516,1,1,7997,999
7.99062000,7990620,0,0.0009093410335481167,0.0028016723226755857,-0.0012883495073765516,6.185736179351807,0.2655979096889496,-7.572080612182617,4,4,35.559539794921875,1,1,7997,999
7.99313100,7993131,0,0.0007809099042788148,0.002301789354532957,-0.0009059534640982747,6.186967849731445,0.2671549916267395,-7.569668769836426,4,4,35.55964279174805,1,1,7997,999
7.99564200,7995642,0,0.0005517181707546115,0.0016032402636483312,-0.00021974269475322217,6.188714981079102,0.2667902112007141,-7.568006992340088,4,4,35.559814453125,1,1,7997,999
7.99813400,7998134,0,0.000359926198143512,0.0011402670061215758,3.292243854957633e-05,6.189896106719971,0.2643437683582306,-7.569426536560059,4,4,35.559940338134766,1,1,7997,999
8.02063300,8020633,0,-0.00010497564653633162,-0.0013371470849961042,0.00034753666841425,6.196108818054199,0.25314387679100037,-7.583225250244141,4,4,35.561553955078125,1,1,7997,999
8.02314100,8023141,0,-0.00014290626859292388,-0.0013628932647407055,0.00021895700774621218,6.196286201477051,0.25082120299339294,-7.579326152801514,4,4,35.56171417236328,1,1,7997,999
8.02590600,8025906,0,-7.076597830746323e-05,-0.0014560130657628179,8.795747271506116e-05,6.198628902435303,0.24785548448562622,-7.5743632316589355,4,4,35.56196212768555,1,1,7997,999
8.02818700,8028187,0,3.84773884434253e-05,-0.0015518986620008945,-7.451298733940348e-05,6.1995978355407715,0.24702303111553192,-7.571485996246338,4,4,35.56211853027344,1,1,7997,999
8.03088800,8030888,0,0.00018061287119053304,-0.0016778894932940602,-0.00034354496165178716,6.1990861892700195,0.24871112406253815,-7.56859827041626,4,4,35.562355041503906,1,1,7997,999
8.03349200,8033492,0,0.0002492013736627996,-0.0017050692113116384,-0.00036164751509204507,6.198335647583008,0.2506837248802185,-7.567383766174316,4,4,35.56251907348633,1,1,7997,999
8.05564500,8055645,0,-0.000808027689345181,-0.0038918175268918276,0.001101444591768086,6.182303428649902,0.23992076516151428,-7.567636966705322,4,4,35.56447219848633,1,1,7997,999
8.05815100,8058151,0,-0.0007475889869965613,-0.0037573797162622213,0.0012798014795407653,6.180451393127441,0.2409336417913437,-7.5730390548706055,4,4,35.56464385986328,1,1,7997,999
8.06064300,8060643,0,-0.00056071748258546,-0.0033833913039416075,0.0013725857716053724,6.178184986114502,0.2436094731092453,-7.576096534729004,4,4,35.56491470336914,1,1,7997,999
8.06348000,8063480,0,-0.0004956541815772653,-0.002973451977595687,0.0013545227702707052,6.176797866821289,0.24471646547317505,-7.576842308044434,4,4,35.56509017944336,1,1,7997,999
8.06563900,8065639,0,-0.0004684309533331543,-0.002172692446038127,0.0012308114673942327,6.177731037139893,0.2454928159713745,-7.578615188598633,4,4,35.56535339355469,1,1,7997,999
8.08568500,8085685,0,0.0007441163761541247,0.0036844380665570498,-0.0019470513798296452,6.177038192749023,0.2559351921081543,-7.604776859283447,4,4,35.56755065917969,1,1,7997,999
8.08862600,8088626,0,0.0007411787519231439,0.0038611411582678556,-0.002018130850046873,6.176971435546875,0.25596684217453003,-7.603175640106201,4,4,35.567848205566406,1,1,7997,999
8.09063600,8090636,0,0.0006140649202279747,0.00431355694308877,-0.0018585316138342023,6.174105644226074,0.2582515776157379,-7.600205421447754,4,4,35.568363189697266,1,1,7997,999
8.09318800,8093188,0,0.000579552783165127,0.004400786478072405,-0.0017628901405259967,6.172755718231201,0.2613976299762726,-7.598404407501221,4,4,35.56857681274414,1,1,7997,999
8.09561600,8095616,0,0.0004502727824728936,0.004414285998791456,-0.0012390448246151209,6.172181129455566,0.2658763825893402,-7.593925952911377,4,4,35.56901168823242,1,1,7997,999
8.09818700,8098187,0,0.0002592067758087069,0.004352491348981857,-0.0008213277906179428,6.17361307144165,0.268129825592041,-7.589250087738037,4,4,35.56922149658203,1,1,7997,999
8.11563600,8115636,0,0.00042336928891018033,0.002921477658674121,0.0016319064889103174,6.191776752471924,0.234147846698761,-7.566409111022949,4,4,35.570945739746094,1,1,7997,999
8.11815400,8118154,0,0.0006687617860734463,0.002878729719668627,0.001692954101599753,6.190486431121826,0.22781884670257568,-7.567760944366455,4,4,35.57114028930664,1,1,7997,999
8.12063600,8120636,0,0.0010179957607761025,0.002927124733105302,0.0015800670953467488,6.1891326904296875,0.22409313917160034,-7.570046901702881,4,4,35.571441650390625,1,1,7997,999
8.12312700,8123127,0,0.0012582957278937101,0.0029537605587393045,0.0014068563468754292,6.189141750335693,0.2251899540424347,-7.5744524002075195,4,4,35.5716438293457,1,1,7997,999
8.12591000,8125910,0,0.0015192502178251743,0.003148348070681095,0.0009397933608852327,6.191323280334473,0.22934490442276,-7.579521179199219,4,4,35.57194900512695,1,1,7997,999
8.12819100,8128191,0,0.0016021749470382929,0.00336476881057024,0.0006593283615075052,6.194559097290039,0.2316371500492096,-7.582271099090576,4,4,35.5721549987793,1,1,7997,999
8.14828400,8148284,0,0.0019990939181298018,0.0017553906654939055,-0.00014877415378578007,6.182827949523926,0.24893483519554138,-7.5938639640808105,4,4,35.57432556152344,1,1,7997,999
8.15094500,8150945,0,0.0017362229991704226,0.0006830074707977474,0.0001217462558997795,6.186260223388672,0.2552945613861084,-7.594207286834717,4,4,35.57477569580078,1,1,7997,999
8.15313200,8153132,0,0.0015567834489047527,-3.9348080463241786e-05,0.00039549582288600504,6.188326835632324,0.257244348526001,-7.594654083251953,4,4,35.57500076293945,1,1,7997,999
8.15563800,8155638,0,0.0010400295723229647,-0.0011709063546732068,0.0006428879569284618,6.189390182495117,0.2576259970664978,-7.5958404541015625,4,4,35.57533264160156,1,1,7997,999
8.15813400,8158134,0,0.0005562451551668346,-0.0019920957274734974,0.00066677964059636,6.189663410186768,0.25695446133613586,-7.595617771148682,4,4,35.57555389404297,1,1,7997,999
8.16063200,8160632,0,-3.4670625609578565e-05,-0.0030343597754836082,0.000539868779014796,6.190033912658691,0.25544077157974243,-7.592967987060547,4,4,35.57589340209961,1,1,7997,999
8.18063200,8180632,0,-0.0017126697348430753,-0.004810457117855549,-0.0006204568780958652,6.194807529449463,0.2508021295070648,-7.572206497192383,4,4,35.578147888183594,1,1,7997,999
8.18313800,8183138,0,-0.0017363651422783732,-0.004406815394759178,-0.0009390417253598571,6.194209575653076,0.2520040273666382,-7.56520414352417,4,4,35.578372955322266,1,1,7997,999
8.18563500,8185635,0,-0.0017933027120307088,-0.003888112958520651,-0.001289465930312872,6.192884922027588,0.25285840034484863,-7.554304122924805,4,4,35.57872009277344,1,1,7997,999
8.18878700,8188787,0,-0.001688365708105266,-0.003645322984084487,-0.0015504284529015422,6.191771507263184,0.25308120250701904,-7.551149845123291,4,4,35.578956604003906,1,1,7997,999
8.19066000,8190660,0,-0.0014772815629839897,-0.0033493698574602604,-0.0020443503744900227,6.19089937210083,0.2523319721221924,-7.55444860458374,4,4,35.57931900024414,1,1,7997,999
8.19314600,8193146,0,-0.0012582310009747744,-0.003231632988899946,-0.002356431446969509,6.190635681152344,0.25265589356422424,-7.560072898864746,4,4,35.57956314086914,1,1,7997,999
8.21404500,8214045,0,-0.0003624668170232326,-0.002731191460043192,0.000819747569039464,6.187411308288574,0.2660892903804779,-7.599336624145508,4,4,35.58206558227539,1,1,7997,999
8.21564200,8215642,0,-0.00014513595669995993,-0.0024092334788292646,0.0016447770176455379,6.185381889343262,0.26795342564582825,-7.600061416625977,4,4,35.58245849609375,1,1,7997,999
8.21815900,8218159,0,4.549381628748961e-05,-0.0021973559632897377,0.0021029470954090357,6.184515476226807,0.26759621500968933,-7.598083972930908,4,4,35.582706451416016,1,1,7997,999
8.22062800,8220628,0,0.0002179662842536345,-0.00178544654045254,0.002435023197904229,6.18656063079834,0.26238933205604553,-7.591631889343262,4,4,35.583072662353516,1,1,7997,999
8.22314800,8223148,0,0.00027451562345959246,-0.0014585134340450168,0.0025087452959269285,6.187541484832764,0.25960850715637207,-7.587587356567383,4,4,35.58330535888672,1,1,7997,999
8.22590500,8225905,0,0.0004020504711661488,-0.0007643737480975688,0.0026664570905268192,6.186172962188721,0.26039761304855347,-7.584116458892822,4,4,35.58366012573242,1,1,7997,999
8.24567300,8245673,0,0.001998088089749217,0.005858713760972023,0.0006578871980309486,6.191154479980469,0.24840374290943146,-7.588079929351807,4,4,35.58617401123047,1,1,7997,999
8.24818100,8248181,0,0.0018645424861460924,0.006204494275152683,0.0003600716881919652,6.1924614906311035,0.24795618653297424,-7.588393211364746,4,4,35.586544036865234,1,1,7997,999
8.25093400,8250934,0,0.0018032934749498963,0.0063832541927695274,7.295473187696189e-05,6.192738056182861,0.24739977717399597,-7.5877461433410645,4,4,35.58692169189453,1,1,7997,999
8.25317600,8253176,0,0.001792345428839326,0.0063123758882284164,1.8494860341888852e-05,6.1919097900390625,0.24923387169837952,-7.588239669799805,4,4,35.5871696472168,1,1,7997,999
8.25563500,8255635,0,0.0016684987349435687,0.006075854413211346,5.7729717809706926e-05,6.190171241760254,0.25222086906433105,-7.586868762969971,4,4,35.58781051635742,1,1,7997,999
8.25817900,8258179,0,0.0015587152447551489,0.005816751159727573,0.00010152475442737341,6.188936233520508,0.25345084071159363,-7.584896087646484,4,4,35.58807373046875,1,1,7997,999
8.32314100,8323141,0,0.00016595289343968034,-0.0022923701908439398,0.0010691947536543012,6.186000347137451,0.2505602240562439,-7.571344375610352,4,4,35.5961799621582,1,1,7997,999
8.32590600,8325906,0,1.3202572517911904e-05,-0.002894170582294464,0.0014137323014438152,6.1827569007873535,0.2515292763710022,-7.568226337432861,4,4,35.596527099609375,1,1,7997,999
8.32818600,8328186,0,-7.896755414549261e-05,-0.003243634244427085,0.0015326865250244737,6.181122779846191,0.25245341658592224,-7.566518783569336,4,4,35.59675216674805,1,1,7997,999
8.33066100,8330661,0,-0.00010412767005618662,-0.003563018050044775,0.00169850024394691,6.177289962768555,0.25259721279144287,-7.565830707550049,4,4,35.59709167480469,1,1,7997,999
8.33312300,8333123,0,-0.00019089449779130518,-0.0037274889182299376,0.001794473733752966,6.1746625900268555,0.2522481381893158,-7.565033435821533,4,4,35.597320556640625,1,1,7997,999
8.33670000,8336700,0,-0.0003443514578975737,-0.003963838331401348,0.0018993975827470422,6.174106597900391,0.2520269453525543,-7.564060688018799,4,4,35.59766387939453,1,1,7997,999
8.37064500,8370645,0,-0.0001709255884634331,0.0013504171511158347,-0.0002927566529251635,6.167240142822266,0.24640971422195435,-7.5909013748168945,4,4,35.60143280029297,1,1,7997,999
8.37313700,8373137,0,-0.000223142298636958,0.0016265286831185222,-0.000263338879449293,6.167109966278076,0.24462507665157318,-7.586845874786377,4,4,35.60161209106445,1,1,7997,999
8.37590200,8375902,0,-0.00048717131721787155,0.0021142468322068453,-0.00014920490502845496,6.165548324584961,0.24422281980514526,-7.5779500007629395,4,4,35.60188674926758,1,1,7997,999
8.37814800,8378148,0,-0.0007030717097222805,0.002485568867996335,-1.8997483493876643e-05,6.165369033813477,0.24338896572589874,-7.574840545654297,4,4,35.602073669433594,1,1,7997,999
8.38064300,8380643,0,-0.0009527496295049787,0.0031332203652709723,0.0001096867272281088,6.168260097503662,0.24221670627593994,-7.576052188873291,4,4,35.602352142333984,1,1,7997,999
8.38312300,8383123,0,-0.000925268919672817,0.0036129863001406193,0.00011022012040484697,6.172336101531982,0.24302051961421967,-7.578395843505859,4,4,35.602542877197266,1,1,7997,999
8.40091200,8400912,0,0.0010265291202813387,0.003496035235002637,-0.0005499716498889029,6.189273834228516,0.2737918794155121,-7.583961009979248,4,4,35.60422897338867,1,1,7997,999
8.40314000,8403140,0,0.0010901574278250337,0.0030838591046631336,-0.00037522867205552757,6.189321041107178,0.2708090543746948,-7.580752849578857,4,4,35.60441589355469,1,1,7997,999
8.40564300,8405643,0,0.0009789029136300087,0.0024041463620960712,1.0208538697042968e-05,6.192066192626953,0.26685160398483276,-7.577142238616943,4,4,35.604698181152344,1,1,7997,999
8.40818900,8408189,0,0.0007451833225786686,0.0017802115762606263,0.00025705722509883344,6.195282936096191,0.2664068341255188,-7.574069976806641,4,4,35.604881286621094,1,1,7997,999
8.41063900,8410639,0,0.000410142500186339,0.0008949693874455988,0.0006179147167131305,6.199249267578125,0.26775842905044556,-7.570920467376709,4,4,35.60515594482422,1,1,7997,999
8.41404400,8414044,0,0.00023824669187888503,0.00045557416160590947,0.0007849899120628834,6.200565338134766,0.2667374312877655,-7.570643424987793,4,4,35.605342864990234,1,1,7997,999
8.43317300,8433173,0,0.00024578263401053846,-0.0018968851072713733,0.0020304967183619738,6.178778171539307,0.26655635237693787,-7.570659637451172,4,4,35.607540130615234,1,1,7997,999
8.43670900,8436709,0,0.0003553320711944252,-0.0014311086852103472,0.0019461179617792368,6.176578998565674,0.2664017081260681,-7.570919036865234,4,4,35.60799789428711,1,1,7997,999
8.43861300,8438613,0,0.00044956887722946703,-0.001080503105185926,0.001785052358172834,6.176319599151611,0.2667851448059082,-7.573000907897949,4,4,35.608177185058594,1,1,7997,999
8.44063200,8440632,0,0.0005569261847995222,-0.0004243062576279044,0.0014013814507052302,6.177319049835205,0.2650878429412842,-7.5756001472473145,4,4,35.6085319519043,1,1,7995,999
8.44315700,8443157,0,0.0005922644631937146,1.9197310393792577e-05,0.0010648226598277688,6.179053783416748,0.2632136344909668,-7.578065872192383,4,4,35.60871887207031,1,1,7995,999
8.47317900,8473179,0,7.195479702204466e-05,0.0008292259299196303,-0.0008448618464171886,6.177266597747803,0.2649829685688019,-7.5817108154296875,4,4,35.61146926879883,1,1,7995,999
8.47590600,8475906,0,0.00015465500473510474,0.0005897140363231301,-0.0002375051553826779,6.17746639251709,0.2635716199874878,-7.575719356536865,4,4,35.61178207397461,1,1,7995,999
8.47814900,8478149,0,0.00016075176245067269,0.0003872898523695767,7.293451926670969e-05,6.177276134490967,0.26144498586654663,-7.572991371154785,4,4,35.611942291259766,1,1,7995,999
8.48064100,8480641,0,6.450256478274241e-05,-2.2847956643090583e-05,0.0004018735489808023,6.17579984664917,0.25969648361206055,-7.570590019226074,4,4,35.6121711730957,1,1,7995,999
8.48314000,8483140,0,-4.352041651145555e-05,-0.0004758843861054629,0.0005935077788308263,6.17410135269165,0.25868740677833557,-7.571291446685791,4,4,35.61232376098633,1,1,7995,999
8.48562800,8485628,0,-0.0002268458774778992,-0.0011515015503391623,0.0007529279682785273,6.172042369842529,0.255553275346756,-7.572346210479736,4,4,35.6125602722168,1,1,7995,999
8.50563700,8505637,0,0.00023065917775966227,-0.002474740380421281,-7.950214785523713e-05,6.18533182144165,0.24975693225860596,-7.582686901092529,4,4,35.61410903930664,1,1,7995,999
8.50818600,8508186,0,0.0002966497850138694,-0.0024099848233163357,-0.0001022168216877617,6.1855597496032715,0.2486276626586914,-7.5821733474731445,4,4,35.614280700683594,1,1,7995,999
8.51065700,8510657,0,0.00023433072783518583,-0.0022592407185584307,4.334077675594017e-05,6.183258056640625,0.24744190275669098,-7.578707218170166,4,4,35.61454772949219,1,1,7995,999
8.51404500,8514045,0,0.0001016676687868312,-0.0021491500083357096,0.00016031558334361762,6.182162284851074,0.24669232964515686,-7.574555397033691,4,4,35.61471176147461,1,1,7995,999
8.51564700,8515647,0,-0.00025170863955281675,-0.002060885075479746,0.00037917433655820787,6.181326866149902,0.24648414552211761,-7.571315288543701,4,4,35.61494827270508,1,1,7995,999
8.51814500,8518145,0,-0.0003211945004295558,-0.002062381710857153,0.00046086718793958426,6.180968284606934,0.24886959791183472,-7.571689605712891,4,4,35.61510467529297,1,1,7995,999
8.53672100,8536721,0,-0.0007728213095106184,-0.0009445275645703077,0.0007975346525199711,6.182760238647461,0.2578367292881012,-7.578901290893555,4,4,35.61650848388672,1,1,7995,999
8.53850400,8538504,0,-0.0006868562195450068,-0.0005665813805535436,0.0008209139341488481,6.183340072631836,0.25680050253868103,-7.57576322555542,4,4,35.61664962768555,1,1,7995,999
8.54062600,8540626,0,-0.0005916249938309193,7.340133015532047e-05,0.0006929904338903725,6.184482097625732,0.2533022165298462,-7.571361064910889,4,4,35.61686706542969,1,1,7995,999
8.54314500,8543145,0,-0.0006182452780194581,0.00048039708053693175,0.0006111662369221449,6.185740947723389,0.2509309649467468,-7.572253704071045,4,4,35.61700439453125,1,1,7995,999
8.54565400,8545654,0,-0.0005237612640485168,0.0009656024049036205,0.0003332845226395875,6.187195777893066,0.2477736920118332,-7.576297283172607,4,4,35.61720275878906,1,1,7995,999
8.54817200,8548172,0,-0.0002495198277756572,0.0012616781750693917,2.5232326152035967e-05,6.1881608963012695,0.245787113904953,-7.580672264099121,4,4,35.61732864379883,1,1,7995,999
8.56839500,8568395,0,0.0006993876886554062,0.003798552555963397,-0.0009603358339518309,6.171206474304199,0.24618303775787354,-7.594485759735107,4,4,35.61854934692383,1,1,7995,999
8.57066500,8570665,0,0.0008007007418200374,0.0041923075914382935,-0.0005668692174367607,6.17750358581543,0.2504771947860718,-7.59821891784668,4,4,35.61871337890625,1,1,7995,999
8.57313800,8573138,0,0.0008354729507118464,0.004327574744820595,-0.00031318198307417333,6.185666084289551,0.25388243794441223,-7.598141670227051,4,4,35.61882400512695,1,1,7995,999
8.57590700,8575907,0,0.0006143858190625906,0.004166111350059509,7.53365020500496e-05,6.196399688720703,0.2593728005886078,-7.59406852722168,4,4,35.618988037109375,1,1,7995,999
8.57814200,8578142,0,0.0005562235019169748,0.004083567298948765,0.00036001167609356344,6.200631618499756,0.26288270950317383,-7.590808868408203,4,4,35.61910629272461,1,1,7995,999
8.60563700,8605637,0,0.00011955139780184254,0.002221242990344763,0.0007741264998912811,6.180400371551514,0.2541027367115021,-7.578500747680664,4,4,35.621192932128906,1,1,7995,999
8.60821700,8608217,0,2.9932141842436977e-05,0.00169896031729877,0.0006118839373812079,6.178350925445557,0.25270724296569824,-7.579177379608154,4,4,35.621341705322266,1,1,7995,999
8.61066800,8610668,0,-0.0001515949406893924,0.0009504223125986755,0.00034080373006872833,6.179197311401367,0.25150513648986816,-7.578437805175781,4,4,35.621700286865234,1,1,7995,999
8.61406200,8614062,0,-0.0002847750438377261,0.00032418480259366333,5.400700683821924e-05,6.181783676147461,0.2517777383327484,-7.576977252960205,4,4,35.62184524536133,1,1,7995,999
8.61567100,8615671,0,-0.0003770452458411455,-0.0008118582773022354,-0.0004428362881299108,6.1859259605407715,0.2520710825920105,-7.57656717300415,4,4,35.62211608886719,1,1,7995,999
8.61815200,8618152,0,-0.0005080156261101365,-0.0016601670067757368,-0.0006104575586505234,6.188043117523193,0.25173118710517883,-7.576834201812744,4,4,35.622314453125,1,1,7995,999
8.63672000,8636720,0,-0.0010164149571210146,-0.008492158725857735,0.0002921424456872046,6.203980445861816,0.2517111599445343,-7.559001445770264,4,4,35.62357711791992,1,1,7995,999
8.63880600,8638806,0,-0.001083672745153308,-0.00898802187293768,0.0002891410840675235,6.203357696533203,0.2516386806964874,-7.557743072509766,4,4,35.623722076416016,1,1,7995,999
8.64063300,8640633,0,-0.0012813039356842637,-0.00921083427965641,0.00031206023413687944,6.202203750610352,0.25060465931892395,-7.556690216064453,4,4,35.62400436401367,1,1,7995,999
8.64317500,8643175,0,-0.0014270655810832977,-0.00896846316754818,0.0002572675293777138,6.200592994689941,0.25028666853904724,-7.557943344116211,4,4,35.6241569519043,1,1,7995,999
8.64564000,8645640,0,-0.0015732785686850548,-0.008163750171661377,0.00013298093108460307,6.195775985717773,0.2512396574020386,-7.5625786781311035,4,4,35.62446975708008,1,1,7995,999
8.64818500,8648185,0,-0.0015593847492709756,-0.007456642109900713,3.1758027034811676e-05,6.191613674163818,0.25347867608070374,-7.567140102386475,4,4,35.624629974365234,1,1,7995,999
8.67065300,8670653,0,0.001083499751985073,0.002828197553753853,-0.0002926639572251588,6.1819167137146,0.2606883645057678,-7.578357219696045,4,4,35.6264533996582,1,1,7995,999
8.67314400,8673144,0,0.0012212619185447693,0.003438064130023122,-0.00027522360323928297,6.1793131828308105,0.2638828158378601,-7.5799760818481445,4,4,35.62662887573242,1,1,7995,999
8.67590700,8675907,0,0.0013129743747413158,0.0042855641804635525,-0.0001908571575768292,6.1772074699401855,0.26802709698677063,-7.582368850708008,4,4,35.62688446044922,1,1,7995,999
8.67814500,8678145,0,0.001329178106971085,0.0048319497145712376,2.3160282580647618e-05,6.177480697631836,0.2698572278022766,-7.583881855010986,4,4,35.62705612182617,1,1,7995,999
8.68064600,8680646,0,0.00139032700099051,0.00552942743524909,0.00031517702154815197,6.176898956298828,0.2727615237236023,-7.585936069488525,4,4,35.627296447753906,1,1,7995,999
8.68314800,8683148,0,0.0015286661218851805,0.005819967016577721,0.0005271938280202448,6.176529407501221,0.2739114761352539,-7.588033199310303,4,4,35.62745666503906,1,1,7995,999
8.70565000,8705650,0,0.00115027348510921,0.00291550625115633,0.0017610654467716813,6.1808881759643555,0.23431548476219177,-7.579829692840576,4,4,35.629302978515625,1,1,7995,999
8.70818900,8708189,0,0.0009971486870199442,0.0028671289328485727,0.001541243284009397,6.183080673217773,0.23472647368907928,-7.578995704650879,4,4,35.62947082519531,1,1,7995,999
8.71066400,8710664,0,0.0008214851841330528,0.0030974356923252344,0.0012604541843757033,6.182196617126465,0.23776492476463318,-7.576094627380371,4,4,35.62972640991211,1,1,7995,999
8.71403000,8714030,0,0.0007724571623839438,0.0032434745226055384,0.0010966751724481583,6.1795196533203125,0.24128815531730652,-7.573375701904297,4,4,35.629886627197266,1,1,7995,999
8.71564000,8715640,0,0.0006567337550222874,0.0033892672508955,0.0006661548395641148,6.176311492919922,0.24615265429019928,-7.571231842041016,4,4,35.630130767822266,1,1,7995,999
8.71814900,8718149,0,0.000460321840364486,0.003525226376950741,0.0002779373317025602,6.175267219543457,0.24720999598503113,-7.570670127868652,4,4,35.63029098510742,1,1,7995,999
8.75817800,8758178,0,0.00044861604692414403,-0.0016459451289847493,0.001229749177582562,6.179741859436035,0.27150672674179077,-7.579542636871338,4,4,35.63345718383789,1,1,7995,999
8.76064500,8760645,0,0.000693656736984849,-0.002142910147085786,0.0014398441417142749,6.178882122039795,0.2651456296443939,-7.579155445098877,4,4,35.6336784362793,1,1,7995,999
8.76358300,8763583,0,0.000787258381024003,-0.0024349309969693422,0.001529919565655291,6.178781032562256,0.26005178689956665,-7.579623699188232,4,4,35.6337890625,1,1,7995,999
8.76561700,8765617,0,0.0008888004231266677,-0.002766026183962822,0.0015222243964672089,6.17935037612915,0.25351953506469727,-7.578348159790039,4,4,35.63400650024414,1,1,7995,999
8.76840100,8768401,0,0.0009309328161180019,-0.00295591470785439,0.001434442587196827,6.1785359382629395,0.25166192650794983,-7.5781989097595215,4,4,35.63412094116211,1,1,7995,999
8.79064500,8790645,0,0.00038207994657568634,-0.003370515536516905,0.0007381413597613573,6.196196556091309,0.25160515308380127,-7.5775465965271,4,4,35.63527297973633,1,1,7995,999
8.79315000,8793150,0,0.00042850966565310955,-0.0034685975406318903,0.000743179873097688,6.195858001708984,0.2507031261920929,-7.58154821395874,4,4,35.63534927368164,1,1,7995,999
8.79563500,8795635,0,0.00011972946231253445,-0.0036997704301029444,0.000991152017377317,6.1951775550842285,0.24864241480827332,-7.587610244750977,4,4,35.635459899902344,1,1,7995,999
8.79814900,8798149,0,-0.0001311517262365669,-0.003919338807463646,0.0011914195492863655,6.193139553070068,0.24822255969047546,-7.5892767906188965,4,4,35.63553237915039,1,1,7995,999
8.80092500,8800925,0,-0.0004300174186937511,-0.004232688806951046,0.0013732212828472257,6.189894676208496,0.24896563589572906,-7.5890583992004395,4,4,35.63563919067383,1,1,7995,999
8.82063000,8820630,0,-0.0005196660640649498,-0.0003449937212280929,-0.00045952119398862123,6.16384744644165,0.24582795798778534,-7.602369785308838,4,4,35.636314392089844,1,1,7995,999
8.82313400,8823134,0,-0.0004596607177518308,0.0003098251181654632,-0.0008654961129650474,6.162648677825928,0.24727368354797363,-7.600864410400391,4,4,35.63637924194336,1,1,7995,999
8.82588600,8825886,0,-0.00039216483128257096,0.0013579316437244415,-0.0014942672569304705,6.160480499267578,0.24858638644218445,-7.597009658813477,4,4,35.63646697998047,1,1,7995,999
8.82819500,8828195,0,-0.0003155279846396297,0.0020165585447102785,-0.0018821988487616181,6.160111427307129,0.24823130667209625,-7.594401836395264,4,4,35.63652801513672,1,1,7995,999
8.83065700,8830657,0,-0.00010759557335404679,0.0027967102359980345,-0.0022897974122315645,6.1653571128845215,0.24885226786136627,-7.594195365905762,4,4,35.63661575317383,1,1,7995,999
8.83314500,8833145,0,9.240603685611859e-05,0.0032339587341994047,-0.0024207590613514185,6.1719160079956055,0.25016236305236816,-7.596408843994141,4,4,35.63666915893555,1,1,7995,999
8.85314000,8853140,0,0.0007239850237965584,0.0034470821265131235,-0.0006126681691966951,6.203953742980957,0.26600784063339233,-7.595127105712891,4,4,35.637176513671875,1,1,7995,999
8.85564500,8855645,0,0.0007246194873005152,0.002825394505634904,0.00019585150585044175,6.19762659072876,0.268428772687912,-7.597661018371582,4,4,35.637237548828125,1,1,7995,999
8.85814600,8858146,0,0.0008341289940290153,0.00224771024659276,0.000781130394898355,6.19324254989624,0.26871633529663086,-7.599068641662598,4,4,35.637290954589844,1,1,7995,999
8.86064300,8860643,0,0.0009693712345324457,0.001478348160162568,0.0014311793493106961,6.18926477432251,0.2664046287536621,-7.6015801429748535,4,4,35.63737106323242,1,1,7995,999
8.86346800,8863468,0,0.0009954288834705949,0.001190378563478589,0.0018196385353803635,6.187556266784668,0.26541244983673096,-7.602162837982178,4,4,35.637413024902344,1,1,7995,999
8.86565500,8865655,0,0.0009238102938979864,0.0011049875756725669,0.0023683677427470684,6.185693264007568,0.2632479965686798,-7.597612380981445,4,4,35.6374626159668,1,1,7995,999
8.88314300,8883143,0,0.0010655244113877416,0.004219351802021265,0.0014972347998991609,6.197789669036865,0.24993465840816498,-7.593726634979248,4,4,35.63785934448242,1,1,7995,999
8.88564300,8885643,0,0.0008626328781247139,0.00475220987573266,0.0010892207501456141,6.206851482391357,0.24914701282978058,-7.590337753295898,4,4,35.637943267822266,1,1,7995,999
8.88851900,8888519,0,0.0008057301165536046,0.0049310713075101376,0.0008932676282711327,6.211116313934326,0.24820652604103088,-7.588335990905762,4,4,35.637996673583984,1,1,7995,999
8.89063600,8890636,0,0.0010406727669760585,0.00517278304323554,0.0006740433746017516,6.212015628814697,0.2474164366722107,-7.5840349197387695,4,4,35.63808822631836,1,1,7995,999
8.89313800,8893138,0,0.001276158494874835,0.005267618224024773,0.00045956249232403934,6.210589408874512,0.24827170372009277,-7.5797929763793945,4,4,35.63814926147461,1,1,7995,999
8.89564700,8895647,0,0.001613567816093564,0.005370052997022867,8.029778837226331e-05,6.2068257331848145,0.24845105409622192,-7.572713375091553,4,4,35.63823699951172,1,1,7995,999
8.92064300,8920643,0,-0.0013625670690089464,-0.002067508175969124,0.0006412205402739346,6.182241916656494,0.2608144283294678,-7.58115816116333,4,4,35.6390266418457,1,1,7995,999
8.92314100,8923141,0,-0.0015823534922674298,-0.0031228279694914818,0.0005791711155325174,6.178768157958984,0.2609374225139618,-7.58461856842041,4,4,35.639102935791016,1,1,7995,999
8.92588700,8925887,0,-0.001912315608933568,-0.004365171771496534,0.0002567525370977819,6.17222785949707,0.26287132501602173,-7.583778381347656,4,4,35.63921356201172,1,1,7995,999
8.92819000,8928190,0,-0.001963202143087983,-0.005085487384349108,-0.00014796982577536255,6.168604373931885,0.2668379545211792,-7.580121040344238,4,4,35.639286041259766,1,1,7995,999
8.93066100,8930661,0,-0.0016794701805338264,-0.005826553329825401,-0.0008527283207513392,6.167102336883545,0.27248048782348633,-7.576911449432373,4,4,35.63939666748047,1,1,7995,999
8.93312700,8933127,0,-0.0013767242198809981,-0.006282422691583633,-0.0012271410087123513,6.168497562408447,0.2745731770992279,-7.578578948974609,4,4,35.63947296142578,1,1,7995,999
8.95567200,8955672,0,-0.0007594733615405858,-0.007568934466689825,0.0005285576335154474,6.174209117889404,0.2657824158668518,-7.558303356170654,4,4,35.64065170288086,1,1,7995,999
8.95815000,8958150,0,-0.0006622825749218464,-0.007333748508244753,0.000560860731638968,6.174673557281494,0.26375681161880493,-7.557119846343994,4,4,35.640811920166016,1,1,7995,999
8.96064300,8960643,0,-0.0004602758272085339,-0.006813460029661655,0.00042461679549887776,6.1771039962768555,0.26054105162620544,-7.556055545806885,4,4,35.64097213745117,1,1,7995,999
8.96346400,8963464,0,-0.000309278053464368,-0.006363563239574432,0.0003198522317688912,6.17982292175293,0.2589153051376343,-7.557110786437988,4,4,35.641075134277344,1,1,7995,999
8.96561400,8965614,0,-8.048034942476079e-05,-0.0055891377851367,0.000322856503771618,6.183309078216553,0.2596569061279297,-7.560659885406494,4,4,35.641231536865234,1,1,7995,999
8.99064500,8990645,0,0.0016310259234160185,0.006511447485536337,0.00019508585683070123,6.161850452423096,0.2678740620613098,-7.5867018699646,4,4,35.643028259277344,1,1,7995,999
8.99318100,8993181,0,0.0020784141961485147,0.007557744160294533,-0.00045920294360257685,6.162956714630127,0.2675730884075165,-7.58387565612793,4,4,35.64313888549805,1,1,7995,999
8.99563000,8995630,0,0.0027663568034768105,0.008948124945163727,-0.0011912414338439703,6.166019439697266,0.2639002799987793,-7.581389427185059,4,4,35.64338302612305,1,1,7995,999
8.99814800,8998148,0,0.0029666826594620943,0.00974686723202467,-0.0014271276304498315,6.169610977172852,0.26121020317077637,-7.579096794128418,4,4,35.64350509643555,1,1,7995,999
9.00089500,9000895,0,0.0029938840307295322,0.010502377524971962,-0.001280909520573914,6.175239562988281,0.25947293639183044,-7.5743536949157715,4,4,35.6436653137207,1,1,7995,999
9.00314300,9003143,0,0.002861587330698967,0.010751835070550442,-0.0010239840485155582,6.178828239440918,0.2590464651584625,-7.573110103607178,4,4,35.64377975463867,1,1,7995,999
9.02314400,9023144,0,0.001578579074703157,0.006473863963037729,0.00044817180605605245,6.2008843421936035,0.24730168282985687,-7.587121963500977,4,4,35.64487838745117,1,1,7995,999
9.02588500,9025885,0,0.0017297242302447557,0.005410427693277597,0.0004708670894615352,6.200142860412598,0.24577315151691437,-7.585479736328125,4,4,35.64502716064453,1,1,7995,999
9.02819200,9028192,0,0.0016909667756408453,0.00487243989482522,0.0005731371347792447,6.200599193572998,0.24428318440914154,-7.582767486572266,4,4,35.64512634277344,1,1,7995,999
9.03066600,9030666,0,0.0013147311983630061,0.004218217916786671,0.0007001108024269342,6.200885772705078,0.24185766279697418,-7.577681541442871,4,4,35.64527893066406,1,1,7995,999
9.03314600,9033146,0,0.0009438383858650923,0.003737029153853655,0.0007980833179317415,6.201376438140869,0.24084311723709106,-7.575505256652832,4,4,35.645381927490234,1,1,7995,999
9.03670300,9036703,0,0.00016383804904762655,0.0031086131930351257,0.0009828691836446524,6.202425003051758,0.24133512377738953,-7.574858665466309,4,4,35.645538330078125,1,1,7995,999
9.05313800,9053138,0,-0.0004440906341187656,-0.00047282694140449166,-0.00229806755669415,6.205022811889648,0.23897112905979156,-7.5861992835998535,4,4,35.64638137817383,1,1,7995,999
9.05564600,9055646,0,-0.0004897735780104995,-0.001211723079904914,-0.002515077358111739,6.201688766479492,0.24077095091342926,-7.592523097991943,4,4,35.646507263183594,1,1,7995,999
9.05814500,9058145,0,-0.0005599707365036011,-0.001702524023130536,-0.0023656394332647324,6.199504852294922,0.2421143651008606,-7.59710693359375,4,4,35.6465950012207,1,1,7995,999
9.06087400,9060874,0,-0.0007862869533710182,-0.0026218113489449024,-0.0017150104977190495,6.196749687194824,0.24422352015972137,-7.599546909332275,4,4,35.646728515625,1,1,7995,999
9.06371400,9063714,0,-0.0009590390836820006,-0.0032439129427075386,-0.0010909284465014935,6.195075988769531,0.2460446059703827,-7.597677230834961,4,4,35.646820068359375,1,1,7995,999
9.06563000,9065630,0,-0.0012810941552743316,-0.004053747747093439,-0.00032826277310959995,6.1939697265625,0.2501664459705353,-7.5922698974609375,4,4,35.64693832397461,1,1,7995,999
9.08564000,9085640,0,-0.0004801491159014404,-0.006591596640646458,-0.0005249448004178703,6.173608779907227,0.26660385727882385,-7.587149620056152,4,4,35.64772033691406,1,1,7995,999
9.08875400,9088754,0,-0.0005492971395142376,-0.006645647808909416,-0.0006049730582162738,6.1708221435546875,0.2645514905452728,-7.582335472106934,4,4,35.64777755737305,1,1,7995,999
9.09066200,9090662,0,-0.0008406704291701317,-0.006656057201325893,-0.0006450816872529685,6.167459487915039,0.2622678875923157,-7.5817365646362305,4,4,35.64786911010742,1,1,7995,999
9.09312700,9093127,0,-0.0009810206247493625,-0.006485366262495518,-0.0005861558020114899,6.166013717651367,0.2609235346317291,-7.585295677185059,4,4,35.64794158935547,1,1,7995,999
9.09563900,9095639,0,-0.0009125115466304123,-0.006100595463067293,-0.0003708530275616795,6.164735317230225,0.2581591010093689,-7.589820384979248,4,4,35.64803695678711,1,1,7995,999
9.09811700,9098117,0,-0.0007856855518184602,-0.005771673284471035,-0.00036205031210556626,6.163723945617676,0.2570870816707611,-7.590400218963623,4,4,35.64809036254883,1,1,7995,999
9.13671600,9136716,0,1.0889927580137737e-05,0.0013565249973908067,0.0009854556992650032,6.184512138366699,0.2528325319290161,-7.582954406738281,4,4,35.64930725097656,1,1,7995,999
9.13848000,9138480,0,5.328150791683584e-07,0.0017544826259836555,0.000483035109937191,6.185789585113525,0.25193312764167786,-7.579796314239502,4,4,35.64937973022461,1,1,7995,999
9.14062900,9140629,0,5.083106952952221e-05,0.002435582224279642,-0.00020091384067200124,6.186349391937256,0.25229066610336304,-7.576351642608643,4,4,35.64949417114258,1,1,7995,999
9.14314700,9143147,0,9.244670218322426e-05,0.0028005775529891253,-0.00033652427373453975,6.185306549072266,0.25356486439704895,-7.573766708374023,4,4,35.64957809448242,1,1,7995,999
9.14568400,9145684,0,0.0002923258289229125,0.003569312859326601,-0.0002456553920637816,6.182893753051758,0.25444018840789795,-7.5709452629089355,4,4,35.64971923828125,1,1,7995,999
9.14822400,9148224,0,0.0004443431389518082,0.0042132423259317875,-0.00017698173178359866,6.180666446685791,0.2543048560619354,-7.56835412979126,4,4,35.64985275268555,1,1,7995,999
9.17318200,9173182,0,0.001364191179163754,0.007334623485803604,-0.0012841203715652227,6.185985565185547,0.2551515996456146,-7.585090160369873,4,4,35.651268005371094,1,1,7995,999
9.17588900,9175889,0,0.0012516224524006248,0.0063599939458072186,-0.0008514213259331882,6.186432361602783,0.25701215863227844,-7.585642337799072,4,4,35.65144729614258,1,1,7995,999
9.17814900,9178149,0,0.0011726426891982555,0.005672247614711523,-0.000441056618001312,6.187679767608643,0.25910547375679016,-7.58381986618042,4,4,35.65153503417969,1,1,7995,999
9.18064300,9180643,0,0.0010184218408539891,0.004637901205569506,0.00013103443779982626,6.189361572265625,0.26322829723358154,-7.579366207122803,4,4,35.651668548583984,1,1,7995,999
9.18314400,9183144,0,0.0008237654692493379,0.003960985690355301,0.0003543617494869977,6.189648151397705,0.26561570167541504,-7.576079845428467,4,4,35.651763916015625,1,1,7995,999
9.18564400,9185644,0,0.0004615932411979884,0.0029206026811152697,0.0005046986043453217,6.190125942230225,0.27086713910102844,-7.5712151527404785,4,4,35.651912689208984,1,1,7995,999
9.20563900,9205639,0,-6.209490675246343e-05,-0.0010826049838215113,-0.0006848828052170575,6.188389301300049,0.2758336067199707,-7.604518890380859,4,4,35.65285110473633,1,1,7995,999
9.20817100,9208171,0,-0.0002174508263124153,-0.001231482601724565,-0.0004229392216075212,6.185125350952148,0.2754893898963928,-7.602853775024414,4,4,35.65294647216797,1,1,7995,999
9.21065800,9210658,0,-0.0003571890702005476,-0.0015724807744845748,-1.7346063714285265e-06,6.182262897491455,0.27206549048423767,-7.598893165588379,4,4,35.6530876159668,1,1,7995,999
9.21400300,9214003,0,-0.00042079819831997156,-0.0017164525343105197,0.00025034710415638983,6.1820783615112305,0.26858294010162354,-7.594883441925049,4,4,35.65318298339844,1,1,7995,999
9.21564700,9215647,0,-0.000270790042122826,-0.001814686693251133,0.0006078421720303595,6.182065963745117,0.26586756110191345,-7.588660717010498,4,4,35.65340805053711,1,1,7995,999
9.21816200,9218162,0,-3.483956243144348e-05,-0.0018745308043435216,0.0007091034203767776,6.182309150695801,0.26380613446235657,-7.586514472961426,4,4,35.65353775024414,1,1,7995,999
9.23671600,9236716,0,0.00018317316425964236,-0.0028919547330588102,-0.00018090249795932323,6.186582088470459,0.25839725136756897,-7.587151050567627,4,4,35.654850006103516,1,1,7995,999
9.23874200,9238742,0,0.0001842397468863055,-0.003021889366209507,-0.00029907681164331734,6.186127185821533,0.259106308221817,-7.582352638244629,4,4,35.6550178527832,1,1,7995,999
9.24064700,9240647,0,0.0001772965770214796,-0.003217041725292802,-0.00038564842543564737,6.183903217315674,0.25993064045906067,-7.574961185455322,4,4,35.65526580810547,1,1,7995,999
9.24314300,9243143,0,7.907983672339469e-05,-0.0034093696158379316,-0.0003515779389999807,6.181358337402344,0.2598567306995392,-7.571669101715088,4,4,35.65543746948242,1,1,7995,999
9.24563900,9245639,0,-9.677036723587662e-05,-0.0038169322069734335,-0.0004022224748041481,6.176974773406982,0.2580697238445282,-7.5699920654296875,4,4,35.65571212768555,1,1,7995,999
9.24818300,9248183,0,-0.0001828103413572535,-0.004000124987214804,-0.0005071575287729502,6.174873352050781,0.257312536239624,-7.57229471206665,4,4,35.655906677246094,1,1,7995,999
9.27314600,9273146,0,-0.00123962527140975,-0.00488509563729167,-0.0005136972176842391,6.165037155151367,0.2508298456668854,-7.592818737030029,4,4,35.65851593017578,1,1,7995,999
9.27591000,9275910,0,-0.0013249902985990047,-0.004606097005307674,-0.00043503782944753766,6.16092586517334,0.25356703996658325,-7.594106197357178,4,4,35.65885925292969,1,1,7995,999
9.27814800,9278148,0,-0.0011627237545326352,-0.0042793345637619495,-0.00036507536424323916,6.160530090332031,0.2562738060951233,-7.593246936798096,4,4,35.65909194946289,1,1,7995,999
9.28063700,9280637,0,-0.0006694647017866373,-0.003517301520332694,-0.00033160080784000456,6.161096572875977,0.2647278606891632,-7.5894083976745605,4,4,35.659446716308594,1,1,7995,999
9.28315000,9283150,0,-0.0004941469524055719,-0.0029343501664698124,-0.00036915522650815547,6.161755561828613,0.2693060636520386,-7.587845802307129,4,4,35.65969467163086,1,1,7995,999
9.28562800,9285628,0,-0.0003946362412534654,-0.0019257883541285992,-0.0004826064105145633,6.16238260269165,0.2709702253341675,-7.5861639976501465,4,4,35.66007995605469,1,1,7995,999
9.42819100,9428191,0,0.0003619343333411962,-0.004943488631397486,0.0024003428407013416,6.1740193367004395,0.2552855312824249,-7.590744495391846,4,4,35.68081283569336,1,1,7995,999
9.43066300,9430663,0,0.0005229819798842072,-0.004211996216326952,0.002556800376623869,6.173875331878662,0.25115224719047546,-7.594211578369141,4,4,35.681182861328125,1,1,7995,999
9.43312200,9433122,0,0.0005664816708303988,-0.003508414374664426,0.0025722417049109936,6.17525577545166,0.24833759665489197,-7.5945820808410645,4,4,35.681434631347656,1,1,7995,999
9.43668400,9436684,0,0.00048124536988325417,-0.002161789685487747,0.0024451548233628273,6.178594589233398,0.24581846594810486,-7.594949722290039,4,4,35.68182373046875,1,1,7995,999
9.43848500,9438485,0,0.0005258637829683721,-0.0011315075680613518,0.0023147733882069588,6.180475234985352,0.24435660243034363,-7.596449851989746,4,4,35.68207550048828,1,1,7995,999
9.44060100,9440601,0,0.0008415100164711475,0.000570255215279758,0.001947227749042213,6.1827239990234375,0.24230927228927612,-7.598849296569824,4,4,35.68244934082031,1,1,7996,999
9.46087000,9460870,0,0.001765222754329443,0.010290409438312054,-0.0014635884435847402,6.189155101776123,0.2698562443256378,-7.585568428039551,4,4,35.684932708740234,1,1,7996,999
9.46368300,9463683,0,0.0014605901669710875,0.010460175573825836,-0.0014001833042129874,6.188215732574463,0.2694360911846161,-7.582268238067627,4,4,35.6851692199707,1,1,7996,999
9.46563000,9465630,0,0.0010138923535123467,0.010440850630402565,-0.0012525238562375307,6.185211181640625,0.26839926838874817,-7.578479766845703,4,4,35.68551254272461,1,1,7996,999
9.46846100,9468461,0,0.0008281239424832165,0.010281265713274479,-0.0011653484543785453,6.183874607086182,0.26924198865890503,-7.57672119140625,4,4,35.68574142456055,1,1,7996,999
9.47066300,9470663,0,0.0006085460772737861,0.009930563159286976,-0.0009409437188878655,6.184193134307861,0.2679784893989563,-7.573121547698975,4,4,35.686073303222656,1,1,7996,999
9.49312600,9493126,0,-0.0005175786791369319,0.0007163032423704863,0.0003861128643620759,6.185747146606445,0.25187721848487854,-7.5839762687683105,4,4,35.68876266479492,1,1,7996,999
9.49564500,9495645,0,-0.0007092385785654187,-0.0006125441286712885,0.00014760006160940975,6.187014579772949,0.252506285905838,-7.588132381439209,4,4,35.68910217285156,1,1,7996,999
9.49815200,9498152,0,-0.0007906481041572988,-0.0014622474554926157,2.25046205741819e-05,6.189911842346191,0.25407853722572327,-7.587378978729248,4,4,35.689327239990234,1,1,7996,999
9.50088500,9500885,0,-0.0006731434841640294,-0.002845142502337694,-0.00021215816377662122,6.192540168762207,0.2569505274295807,-7.587588310241699,4,4,35.689659118652344,1,1,7996,999
9.50314100,9503141,0,-0.0005521049024537206,-0.003736727172508836,-0.0004090272996108979,6.192768096923828,0.26037371158599854,-7.589450359344482,4,4,35.68988037109375,1,1,7996,999
9.50564200,9505642,0,-0.000398105796193704,-0.004879913758486509,-0.0005239431629888713,6.192486763000488,0.26365387439727783,-7.590981483459473,4,4,35.69020462036133,1,1,7996,999
9.61066500,9610665,0,0.0007884576334618032,0.0007321094744838774,0.001458845566958189,6.185227870941162,0.24696749448776245,-7.5674262046813965,4,4,35.704010009765625,1,1,7996,999
9.61396200,9613962,0,0.0009501088643446565,0.0005211083916947246,0.001329149235971272,6.18959379196167,0.24383637309074402,-7.564940452575684,4,4,35.70425796508789,1,1,7996,999
9.61563700,9615637,0,0.0010617044754326344,0.0003266347339376807,0.0010012317216023803,6.1935906410217285,0.24062785506248474,-7.565223217010498,4,4,35.70464324951172,1,1,7996,999
9.61815700,9618157,0,0.0011448424775153399,7.158907828852534e-05,0.0006792214699089527,6.193874359130859,0.2399861067533493,-7.568093776702881,4,4,35.70490264892578,1,1,7996,999
9.62062300,9620623,0,0.001300300471484661,-0.00024311563174705952,0.00022990918660070747,6.192408084869385,0.2409438043832779,-7.572147369384766,4,4,35.70528793334961,1,1,7996,999
9.62314300,9623143,0,0.0014524497091770172,-0.0004372312396299094,1.5889865608187392e-05,6.190548419952393,0.24240867793560028,-7.573014259338379,4,4,35.7055549621582,1,1,7996,999
9.64064400,9640644,0,-4.767539576278068e-05,-0.0005901234108023345,0.000384736544219777,6.1924543380737305,0.24671220779418945,-7.582526206970215,4,4,35.708065032958984,1,1,7996,999
9.64313700,9643137,0,-0.0003520282043609768,-0.0005694145220331848,0.00026090932078659534,6.18848180770874,0.2483917474746704,-7.584074974060059,4,4,35.7083625793457,1,1,7996,999
9.64564100,9645641,0,-0.0006571185658685863,-0.0006543233757838607,-2.5910312615451403e-05,6.1822509765625,0.25223979353904724,-7.586340427398682,4,4,35.70878219604492,1,1,7996,999
9.64818900,9648189,0,-0.000714501366019249,-0.0007776067359372973,-0.00027556990971788764,6.18043327331543,0.2545764148235321,-7.588123798370361,4,4,35.709041595458984,1,1,7996,999
9.65090500,9650905,0,-0.0008046840084716678,-0.0008380747167393565,-0.0006204640376381576,6.1808929443359375,0.2583557963371277,-7.589234352111816,4,4,35.70942306518555,1,1,7996,999
9.65312500,9653125,0,-0.0008496143273077905,-0.0008119026897475123,-0.0007959429058246315,6.183506011962891,0.26001301407814026,-7.587471961975098,4,4,35.709659576416016,1,1,7996,999
9.68317700,9683177,0,-0.0003111514379270375,-0.002296264749020338,-0.00018562248442322016,6.186963081359863,0.275624543428421,-7.600893974304199,4,4,35.71361541748047,1,1,7996,999
9.68568100,9685681,0,-0.0003399911802262068,-0.0029093651100993156,0.0001212497300002724,6.184837818145752,0.26760628819465637,-7.6035966873168945,4,4,35.71403121948242,1,1,7996,999
9.68878700,9688787,0,-0.0004215837980154902,-0.0031521362252533436,0.0003096996224485338,6.184298038482666,0.2631910443305969,-7.60418701171875,4,4,35.714351654052734,1,1,7996,999
9.69066300,9690663,0,-0.0005814111209474504,-0.0033189761452376842,0.0006953587289899588,6.186746120452881,0.25697341561317444,-7.60198450088501,4,4,35.71490478515625,1,1,7996,999
9.69317500,9693175,0,-0.0007583904080092907,-0.003292910987511277,0.0009412165964022279,6.188032627105713,0.2526344954967499,-7.599390506744385,4,4,35.71512222290039,1,1,7996,999
9.69564300,9695643,0,-0.0008636633865535259,-0.0032593528740108013,0.0011763847433030605,6.1860880851745605,0.24609827995300293,-7.5942816734313965,4,4,35.71554183959961,1,1,7996,999
9.71396900,9713969,0,0.00025439579621888697,-0.001181585481390357,-0.0002166968333767727,6.1671648025512695,0.2535923421382904,-7.596461296081543,4,4,35.7174072265625,1,1,7996,999
9.71563900,9715639,0,0.00015697968774475157,-0.00045665985089726746,-0.0006891306256875396,6.171685218811035,0.2618735134601593,-7.5964226722717285,4,4,35.717735290527344,1,1,7996,999
9.71815700,9718157,0,3.669293437269516e-05,-1.5309253285522573e-05,-0.0009952856926247478,6.174729824066162,0.26696985960006714,-7.594632148742676,4,4,35.717960357666016,1,1,7996,999
9.72063500,9720635,0,-3.2891544833546504e-05,0.000489825673867017,-0.0010435337899252772,6.177524089813232,0.2717992067337036,-7.592219352722168,4,4,35.718284606933594,1,1,7996,999
9.72313900,9723139,0,-4.108156281290576e-05,0.0006749753374606371,-0.0009430813370272517,6.177990913391113,0.2722170054912567,-7.593874454498291,4,4,35.718505859375,1,1,7996,999
9.72590100,9725901,0,2.7087024136562832e-05,0.0007977006025612354,-0.0007688848418183625,6.178121566772461,0.2694920301437378,-7.595790863037109,4,4,35.71883773803711,1,1,7996,999
9.74314300,9743143,0,0.00013623025733977556,0.0013340740697458386,0.0003919108712580055,6.177185535430908,0.26354947686195374,-7.5747551918029785,4,4,35.720760345458984,1,1,7996,999
9.74563900,9745639,0,0.000411858141887933,0.0017576058162376285,0.00028814890538342297,6.176006317138672,0.26008692383766174,-7.57598876953125,4,4,35.721107482910156,1,1,7996,999
9.74818600,9748186,0,0.000546372146345675,0.0020483999978750944,0.00025764567544683814,6.177469730377197,0.25533202290534973,-7.578577518463135,4,4,35.721336364746094,1,1,7996,999
9.75091000,9750910,0,0.0008981834980659187,0.002582965651527047,0.0003947018412873149,6.178653717041016,0.2494654804468155,-7.581902027130127,4,4,35.7216682434082,1,1,7996,999
9.75312300,9753123,0,0.001215886208228767,0.0030154744163155556,0.0005007912404835224,6.178536415100098,0.24769634008407593,-7.582292079925537,4,4,35.721885681152344,1,1,7996,999
9.75563500,9755635,0,0.0014346670359373093,0.0036942705046385527,0.0005883261910639703,6.178279876708984,0.24751818180084229,-7.580915927886963,4,4,35.72221374511719,1,1,7996,999
9.78313100,9783131,0,0.0007858696044422686,0.005060922354459763,-5.693138518836349e-05,6.182684898376465,0.25863131880760193,-7.576207637786865,4,4,35.725059509277344,1,1,7996,999
9.78564400,9785644,0,0.000658319506328553,0.0044885724782943726,-0.00011763570364564657,6.186008453369141,0.2554495632648468,-7.576327800750732,4,4,35.72534942626953,1,1,7996,999
9.78850300,9788503,0,0.0005615971749648452,0.004144294187426567,-7.617372466484085e-05,6.187682628631592,0.2540377974510193,-7.575250148773193,4,4,35.72553634643555,1,1,7996,999
9.79066000,9790660,0,0.0003152269055135548,0.0037207757122814655,7.699143316131085e-05,6.191662788391113,0.25286829471588135,-7.57538366317749,4,4,35.7258186340332,1,1,7996,999
9.79314400,9793144,0,0.00011005980195477605,0.0034137603361159563,0.00015562900807708502,6.19280481338501,0.2527346909046173,-7.576300144195557,4,4,35.72599792480469,1,1,7996,999
9.79564000,9795640,0,-6.601432687602937e-05,0.0029898632783442736,0.00023190677165985107,6.192436218261719,0.25302767753601074,-7.578033924102783,4,4,35.72627258300781,1,1,7996,999
9.81066200,9810662,0,-0.00029213933157734573,0.0008661269093863666,-0.0006105176289565861,6.1795501708984375,0.24289089441299438,-7.591850757598877,4,4,35.72765350341797,1,1,7996,999
9.81396300,9813963,0,-0.0002828825090546161,0.000613118929322809,-0.0008545753080397844,6.179732799530029,0.243158221244812,-7.587780475616455,4,4,35.727840423583984,1,1,7996,999
9.81564200,9815642,0,-8.913507190300152e-05,7.707088661845773e-05,-0.0010887588141486049,6.180586814880371,0.24530629813671112,-7.582540512084961,4,4,35.72811508178711,1,1,7996,999
9.81816300,9818163,0,7.328098035941366e-06,-0.00038752297405153513,-0.0011587069602683187,6.181867599487305,0.2472081184387207,-7.579313278198242,4,4,35.72829055786133,1,1,7996,999
9.82063900,9820639,0,-9.637671610107645e-05,-0.0013331884983927011,-0.0013200708199292421,6.182911396026611,0.2501241862773895,-7.577184200286865,4,4,35.72855758666992,1,1,7996,999
9.82314400,9823144,0,-0.00018635240849107504,-0.002059314167127013,-0.0013863240601494908,6.182438373565674,0.25084519386291504,-7.576114177703857,4,4,35.72873306274414,1,1,7996,999
9.84063300,9840633,0,-0.0011680745519697666,-0.008894438855350018,0.0008490097243338823,6.1819748878479,0.2513396739959717,-7.583705425262451,4,4,35.73029708862305,1,1,7996,999
9.84315100,9843151,0,-0.0013767657801508904,-0.009368936531245708,0.001123721362091601,6.181273460388184,0.2523052394390106,-7.588291168212891,4,4,35.73045349121094,1,1,7996,999
9.84563200,9845632,0,-0.0015837264945730567,-0.009977460838854313,0.0015631932765245438,6.1818952560424805,0.25454288721084595,-7.589747905731201,4,4,35.73069381713867,1,1,7996,999
9.84819000,9848190,0,-0.0018619121983647346,-0.010259768925607204,0.0018018580740317702,6.183505535125732,0.2547222077846527,-7.58754825592041,4,4,35.7308464050293,1,1,7996,999
9.85090600,9850906,0,-0.0023468430154025555,-0.010372184216976166,0.0019486084347590804,6.1866374015808105,0.25415194034576416,-7.583664417266846,4,4,35.731075286865234,1,1,7996,999
9.85314600,9853146,0,-0.002554339123889804,-0.010245273821055889,0.001983171794563532,6.1887431144714355,0.2530493438243866,-7.581509113311768,4,4,35.731231689453125,1,1,7996,999
9.89817500,9898175,0,0.0007420689216814935,0.008621151559054852,-0.0004963327664881945,6.177731037139893,0.25072380900382996,-7.589630126953125,4,4,35.7352409362793,1,1,7996,999
9.90088400,9900884,0,0.0008693228010088205,0.008674690499901772,0.00010645245492924005,6.172462463378906,0.24902507662773132,-7.579679489135742,4,4,35.7354850769043,1,1,7996,999
9.90313400,9903134,0,0.0010722444858402014,0.008636226877570152,0.0003340846742503345,6.1698408126831055,0.24977810680866241,-7.571887969970703,4,4,35.73564147949219,1,1,7996,999
9.90564000,9905640,0,0.0012193655129522085,0.008383452892303467,0.0005298256874084473,6.16956090927124,0.25223296880722046,-7.563951015472412,4,4,35.735877990722656,1,1,7996,999
9.90818600,9908186,0,0.0012014667736366391,0.008192135952413082,0.000591897580306977,6.171865463256836,0.25367066264152527,-7.560838222503662,4,4,35.73603057861328,1,1,7996,999
9.92818500,9928185,0,0.0014415982877835631,0.0027241299394518137,0.0017695812275633216,6.186535358428955,0.25652801990509033,-7.5643792152404785,4,4,35.737518310546875,1,1,7996,999
9.93065900,9930659,0,0.0015095366397872567,0.0016822533216327429,0.0018179550534114242,6.187219619750977,0.2567020356655121,-7.568325996398926,4,4,35.737762451171875,1,1,7996,999
9.93313400,9933134,0,0.0015147088561207056,0.0010882376227527857,0.0017693612026050687,6.187261581420898,0.2565361559391022,-7.572523593902588,4,4,35.7379264831543,1,1,7996,999
9.93672100,9936721,0,0.001314930384978652,0.0002505121810827404,0.0015994245186448097,6.185531139373779,0.25697940587997437,-7.575867176055908,4,4,35.738162994384766,1,1,7996,999
9.93850800,9938508,0,0.0011080122785642743,-0.0002391728776274249,0.001565613434650004,6.182783603668213,0.2572745084762573,-7.578304767608643,4,4,35.738319396972656,1,1,7996,999
9.94060100,9940601,0,0.0006757230730727315,-0.0009962968761101365,0.0014026201097294688,6.176836967468262,0.2575230896472931,-7.581457614898682,4,4,35.73853302001953,1,1,7996,999
9.95815100,9958151,0,-0.00023044079716783017,-0.002510990481823683,0.00029189224005676806,6.182437419891357,0.2555363178253174,-7.580357551574707,4,4,35.739681243896484,1,1,7996,999
9.96064400,9960644,0,-0.0002949877525679767,-0.002489425241947174,-7.485824608011171e-05,6.185868740081787,0.25709086656570435,-7.578669548034668,4,4,35.7398796081543,1,1,7996,999
9.96348100,9963481,0,-0.00030681260977871716,-0.0024440078996121883,-0.00035194269730709493,6.185845375061035,0.2579743266105652,-7.579159736633301,4,4,35.740013122558594,1,1,7996,999
9.96562200,9965622,0,-0.0004996748175472021,-0.0022667760495096445,-0.000867782044224441,6.1848554611206055,0.2591184675693512,-7.576586723327637,4,4,35.740211486816406,1,1,7996,999
9.96839100,9968391,0,-0.0006911130039952695,-0.002082637744024396,-0.0011287997476756573,6.183966636657715,0.26031866669654846,-7.574243068695068,4,4,35.74034118652344,1,1,7996,999
9.98876900,9988769,0,-0.0016360838199034333,-0.0035948127042502165,-0.0014135977253317833,6.190151214599609,0.27008169889450073,-7.573733806610107,4,4,35.74163055419922,1,1,7996,999
9.99065900,9990659,0,-0.0015729906735941768,-0.0038130704779177904,-0.0006873935926705599,6.1907734870910645,0.2691194713115692,-7.580501079559326,4,4,35.74181365966797,1,1,7996,999
9.99314000,9993140,0,-0.0015929793007671833,-0.0039547584019601345,-0.0003349328471813351,6.190300941467285,0.2691730260848999,-7.583305358886719,4,4,35.74192810058594,1,1,7996,999
9.99561700,9995617,0,-0.0016213016351684928,-0.004285227041691542,-8.264663847512566e-06,6.18840217590332,0.26965242624282837,-7.587772846221924,4,4,35.74210739135742,1,1,7996,999
9.99814600,9998146,0,-0.0015176841989159584,-0.004503547213971615,0.0001735198311507702,6.187205791473389,0.268888920545578,-7.5886006355285645,4,4,35.74223327636719,1,1,7996,999
10.00088200,10000882,0,-0.0013061243807896972,-0.004566689021885395,0.0004156782815698534,6.185747146606445,0.2679089605808258,-7.592429161071777,4,4,35.742431640625,1,1,7996,999
10.01815500,10018155,0,0.0016666559968143702,-0.0018938981229439378,0.001202731509692967,6.175000190734863,0.2637277841567993,-7.603421211242676,4,4,35.74365997314453,1,1,7996,999
10.02064200,10020642,0,0.001953727100044489,-0.0012433993397280574,0.0013539131032302976,6.176784515380859,0.26457875967025757,-7.60338830947876,4,4,35.74390411376953,1,1,7996,999
