timestamp,acc.x,acc.y,acc.z,gyro.x,gyro.y,gyro.z,stateEstimate.x,stateEstimate.y,stateEstimate.z,stabilizer.roll,stabilizer.pitch,stabilizer.yaw,groundtruth
217981,0.0010017332388088,0.0014980217674747,1.001317858695984,0.1363957077264785,0.2129119932651519,-0.0686551332473754,4.6441521644592285,-1.6710116863250732,0.0263996496796607,0.1359047144651413,-0.0740792155265808,-1.9240598678588867,0
218111,0.000732751796022,0.0020971160847693,1.0000947713851929,-0.0308729279786348,-0.0475822053849697,-0.0457595884799957,4.644489765167236,-1.6712428331375122,0.0271225292235612,0.1385299116373062,-0.0751966312527656,-1.8964051008224487,0
218161,0.0012233317829668,0.0028559498023241,1.000929594039917,0.051803633570671,-0.1614301055669784,0.0655053332448005,4.644181728363037,-1.6710842847824097,0.0258284099400043,0.1385717839002609,-0.0681891664862632,-1.8847607374191284,0
218271,-0.0019564882386475,0.0014889851445332,1.0009933710098269,0.105628065764904,-0.0466951355338096,0.0811870470643043,4.644086837768555,-1.6710443496704102,0.0255253985524177,0.1435529440641403,-0.0621132515370845,-1.8626950979232788,0
218291,-0.0003929848899133,0.0030727887060493,1.0022753477096558,-0.122722640633583,0.0843500569462776,-0.0378824956715106,4.64393424987793,-1.6708976030349731,0.0255041327327489,0.1404371261596679,-0.058560699224472,-1.856926202774048,0
218391,-5.18256492796354e-05,0.0030910421628504,0.998027801513672,0.0574754327535629,0.1572252213954925,0.0146355088800191,-5.179617801331915e-06,-4.09555941587314e-05,0.028022276237607,0.0169288776814937,-0.0015317377401515,0.0017491440521553,0
218451,0.0012724767439067,0.0018822716083377,1.0008453130722046,0.1240554600954055,-0.0146768055856227,0.0916942059993743,-2.544730523368344e-05,1.4697938240715304e-05,0.0268342234194278,0.0153672425076365,-0.0057236854918301,0.0025282874703407,0
218501,0.0016961361980065,0.0010859696194529,1.0002717971801758,0.0249988529831171,0.1906090080738067,0.1368991136550903,-3.686646596179344e-05,0.0004186881997156,0.0268094111233949,-0.0564649030566215,-0.0104166343808174,0.0055944719351828,0
218611,0.0010235093068331,0.002659595105797,1.000992774963379,0.1145201325416565,0.2446375638246536,-0.0166819542646408,-9.560842590872198e-05,0.0012606285745278,0.0266770608723163,-0.0503327809274196,-0.0178651176393032,0.0096759842708706,0
218711,-0.001498055178672,0.001349332742393,0.999143362045288,0.0788014307618141,0.027189178392291,0.0293234232813119,-0.000115355986054,-0.0001738939026836,0.0263539887964725,0.1376998871564865,-0.0255967788398265,0.0160387158393859,0
218731,-0.0002535251551307,0.0034401454031467,1.001262903213501,-0.040263582020998,0.163369745016098,0.0666950121521949,-6.409295747289434e-05,0.0013386027421802,0.0262962356209754,0.036236610263586,-0.0321479327976703,0.0179453380405902,0
218871,9.872503869701176e-05,0.0004495240573305,1.0008848905563354,-0.0493185855448246,0.3493363559246063,0.1263488531112671,-0.0001133153346017,-0.0002678475284483,0.0259528327733278,0.1472898870706558,-0.0299181509763002,0.024485370144248,0
218871,9.872503869701176e-05,0.0004495240573305,1.0008848905563354,-0.0493185855448246,0.3493363559246063,0.1263488531112671,-0.0001133153346017,-0.0002678475284483,0.0259528327733278,0.1472898870706558,-0.0299181509763002,0.024485370144248,0
218961,-3.641960938693956e-05,0.0024539195001125,1.002203106880188,-0.0337618216872215,0.0010484090307727,0.0498483590781688,-4.163552512181923e-05,-0.0002849678858183,0.0248662717640399,0.1486940532922744,-0.0423866249620914,0.0331014245748519,0
219021,-0.0006613336736336,0.0018915386172011,1.001184105873108,0.023546865209937,0.0987789630889892,0.1764592677354812,-3.266443673055619e-05,0.0014975197846069,0.0261776894330978,0.0966366603970527,-0.0489823147654533,0.0349143892526626,0
219031,-0.0011980126146227,0.0025412810500711,0.9998481869697572,-0.112738087773323,0.1972823143005371,0.4017392098903656,-3.449940413702279e-05,0.001548059284687,0.0261989291757345,0.0968154743313789,-0.0499446131289005,0.0357693508267402,0
219151,0.0001586204743944,0.0038372965063899,1.0002256631851196,-0.0774453207850456,0.083930529654026,0.0755365043878555,0.0001109174918383,-0.000175352251972,0.0265814382582902,0.142238587141037,-0.0674834996461868,0.0399882048368454,0
219171,-0.0009883039165288,0.0007411135011352,1.00040864944458,0.2423188239336013,-0.450224906206131,-0.0650078654289245,7.938682392705232e-05,0.0008549943449907,0.0266164615750312,0.1160914152860641,-0.066844493150711,0.0407806746661663,0
219251,-0.0012335368664935,0.0014203982427716,0.9979860186576844,0.1808311641216278,0.0062407325021922,-0.0021415234077721,4.862467540078797e-05,0.0008537255926057,0.0262367669492959,0.1187555566430091,-0.0627514347434043,0.0467834919691085,0
219311,-0.0014293001731857,0.0028458503074944,1.0007917881011963,0.134385272860527,0.1964993476867675,-0.0307621955871582,1.4963380635890644e-05,0.0008448615553788,0.0261025931686162,0.1176642477512359,-0.0642875730991363,0.0488833263516426,0
219401,-0.0005317840259522,0.0023343961220234,1.0024466514587402,0.1043249890208244,-0.0651749894022941,0.1623056679964065,1.2458462151698768e-05,-0.0001516266638645,0.0260681379586458,0.1372701376676559,-0.0643742606043815,0.0508682541549205,0
219441,0.0007584922714158,0.0026840458158403,1.000254511833191,-0.1345339566469192,-0.0448733009397983,0.0019798963330686,1.411346147506265e-05,-9.905995102599265e-05,0.0250667911022901,0.1361631155014038,-0.0645183026790618,0.0544374734163284,0
219471,-0.0010139477672055,0.0008168521453626,1.0013736486434937,0.1527668535709381,-0.2649740576744079,-0.0366262644529342,-1.0217784620181192e-05,0.0008177692070603,0.0262075588107109,0.1178688332438469,-0.0647754892706871,0.0556720905005931,0
219601,-0.0013180667301639,0.0011590820504352,0.999197006225586,0.0131808947771787,-0.1244563087821006,0.0560456365346908,3.479422957752831e-05,0.0008597088162787,0.0263968631625175,0.1229695454239845,-0.0658477991819381,0.0590619295835495,0
219621,0.0014158734120428,0.0044616446830332,0.9993557333946228,0.2879625558853149,0.0150141520425677,-0.0246306974440813,4.765204721479677e-05,0.000865323760081,0.0264080576598644,0.1237680092453956,-0.0675492137670517,0.0598922297358512,0
219781,-0.0023290950339287,0.000453212094726,1.0013684034347534,-0.0999337583780288,-0.0566048063337802,0.1927570551633834,9.411436622031032e-05,-0.0003404087619856,0.0256339255720376,0.1434279680252075,-0.0808431133627891,0.0649305060505867,0
219791,-0.0016790489898994,0.0014285438228398,1.0009499788284302,0.082662895321846,0.3368815779685974,-0.2034498304128646,0.0001103966060327,-0.0003679341753013,0.025635490193963,0.1442554891109466,-0.0819295272231102,0.0629323050379753,0
219881,0.0008733819704502,0.0031486335210502,0.9970865845680236,-0.1902484148740768,0.4906350672245025,0.1630962044000625,0.0002784498501569,-0.0006697626085951,0.0267930552363395,0.1458883136510849,-0.0852820724248886,0.0668588951230049,0
219931,0.001707287156023,0.0016010319814085,1.001840591430664,0.2721805274486542,0.2248864918947219,0.0959975197911262,8.39174390421249e-05,-0.0003368971811141,0.0270776953548192,0.1384211331605911,-0.0843439027667045,0.0691503882408142,0
219941,-0.0005645758938044,0.0012730755843222,1.0009857416152954,-0.0156477056443691,-0.2938935756683349,0.0563098937273025,8.392360541620292e-06,0.0010122455423697,0.0262924376875162,0.1167631149291992,-0.0845068022608757,0.0691065117716789,0
220091,8.731627167435363e-05,0.0041577289812266,1.0012083053588867,0.1290261149406433,-0.1021061539649963,-0.0462453365325927,-6.148954707896337e-05,0.0009978278540074,0.0261646453291177,0.1160182803869247,-0.0848308578133583,0.0724797323346138,0
220091,8.731627167435363e-05,0.0041577289812266,1.0012083053588867,0.1290261149406433,-0.1021061539649963,-0.0462453365325927,-6.148954707896337e-05,0.0009978278540074,0.0261646453291177,0.1160182803869247,-0.0848308578133583,0.0724797323346138,0
220171,-0.0020043978001922,0.0019756432157009,1.0020701885223389,0.1945543140172958,0.0055209160782396,-0.1098724901676178,-0.0001570104941492,-1.147737384599168e-05,0.027710611000657,0.1361710429191589,-0.0786048099398613,0.0766633674502372,0
220231,0.0001546204439364,0.0005186322377994,1.0004923343658447,-0.1342743486166,-0.1111222952604293,0.0454099811613559,2.0684456103481355e-07,-9.991994738811628e-05,0.0272195897996425,0.1349336802959442,-0.0801484659314155,0.0767579302191734,0
220311,-0.0006620337371714,0.0010122482199221,1.0007667541503906,-0.0835464596748352,-0.2508671581745147,-0.0047294218093156,-6.450375803979114e-05,-7.044531957944855e-05,0.0273617748171091,0.133370891213417,-0.0785557776689529,0.0796563550829887,0
220381,-0.000963257451076,-0.0001480136706959,1.0001647472381592,0.1783491671085357,0.2264949679374694,0.0445150211453437,0.0002438277879264,-0.0002671362890396,0.0265424791723489,0.1367145180702209,-0.0820120051503181,0.0835919752717018,0
220471,-0.0047292630188167,-0.0046503422781825,1.0006520748138428,-0.2716341614723205,0.143135666847229,-0.0491407141089439,0.0003097770968452,0.0012209812412038,0.0260106399655342,0.1035396233201026,-0.0827129483222961,0.085570640861988,0
220511,0.0002798492496367,0.0073741809464991,1.0028783082962036,0.3304165601730346,-0.2704329788684845,-0.9182758927345276,0.000136624337756,-0.0001336883869953,0.0246947184205055,0.1274044811725616,-0.0701899677515029,0.0859081521630287,0
220621,-0.0070483856834471,-0.0038523296825587,1.0213942527770996,0.4396537542343139,-0.5506892800331116,-0.6309528946876526,-0.0024382292758673,0.0022821656893938,0.0252714324742555,0.0630649104714393,-0.0163204986602067,0.0813347399234771,0
220691,-0.0037380172871053,-0.0021616776939481,0.981088638305664,-0.6866955757141113,-2.6222989559173584,1.430737853050232,-0.0049391402862966,0.001898739952594,0.0257320590317249,0.1078158915042877,0.0046516922302544,0.107871226966381,0
220731,-0.0134618850424885,-0.0056330696679651,1.038736343383789,-1.214307427406311,-3.046502590179444,1.253509759902954,-0.0048319958150386,0.0020336203742772,0.0262468270957469,0.099171407520771,0.0523342192173004,0.1276889443397522,0
220871,0.0191126074641942,-0.0144698293879628,1.0090986490249634,-4.255062580108643,5.416826248168945,6.053326606750488,-0.0040831095539033,0.0046975594013929,0.025274833664298,-0.0268376506865024,-0.0980416238307952,0.4755020439624786,0
220881,0.0189675707370042,-0.0123763708397746,1.0409270524978638,7.219722270965576,-10.33314323425293,5.390749931335449,-0.0029157216195017,0.0057200957089662,0.0251994151622056,0.0019096622709184,-0.0552531033754348,0.5913186073303223,0
220981,0.0192214474081993,0.0026374137960374,1.032700777053833,2.606961488723755,-19.259321212768555,8.815619468688965,0.0154099185019731,0.0053588598966598,0.0256407260894775,0.1242835447192192,0.9592854976654052,1.2232885360717771,0
221001,0.0219640657305717,-0.0064376075752079,1.0112344026565552,-1.259009599685669,-21.61257743835449,8.350691795349121,0.0185060147196054,0.0067946393974125,0.0229145754128694,0.0901768580079078,1.53147292137146,1.470927596092224,0
221101,0.0207571014761924,-0.0210434906184673,1.0582571029663086,-18.620738983154297,0.7510502338409424,5.070074081420898,0.0232435949146747,0.0069509716704487,0.0180321484804153,0.0758635476231575,2.211186647415161,2.19710636138916,0
221181,-0.0025379986036568,-0.0060669588856399,1.0730080604553225,11.589284896850586,1.6344908475875854,6.938367366790772,0.0146839953958988,0.0017021347302943,0.0234786719083786,0.293460488319397,1.8479949235916135,2.736607313156128,0
221201,0.014542524702847,-0.0040763672441244,1.053765058517456,4.09258508682251,7.595343589782715,6.051892280578613,0.0137946531176567,0.0014539798721671,0.0242769997566938,0.3632960617542267,1.832355260848999,2.8041512966156006,0
221201,0.014542524702847,-0.0040763672441244,1.053765058517456,4.09258508682251,7.595343589782715,6.051892280578613,0.0120860282331705,0.0007750920485705,0.0249657947570085,0.4178996384143829,1.830830216407776,2.8591229915618896,0
221351,0.0051690675318241,-0.0052030449733138,0.9930698871612548,21.247716903686523,10.418380737304688,6.262152671813965,-0.0038265234325081,-0.0052808639593422,0.0489768721163272,-0.2748230099678039,-0.8239647150039673,3.6254496574401855,0
221371,0.0234414674341678,-0.0023185587488114,0.974190890789032,10.815911293029783,14.353166580200195,5.4623847007751465,-0.0055949003435671,-0.005659011658281,0.0518713071942329,-0.0121050234884023,-1.1066197156906128,3.740354061126709,0
221391,0.0138731263577938,-0.0084239039570093,0.9941144585609436,-3.699782609939575,7.967423439025879,4.5827717781066895,-0.0061064562760293,-0.0066472748294472,0.0554864667356014,-0.0035084104165434,-1.37101149559021,3.8365559577941895,0
221591,0.0024400309193879,0.0057751461863517,0.9936275482177734,1.3463717699050903,-3.270512819290161,-1.6046195030212402,-0.0041734022088348,-0.006079769693315,0.0878532156348228,-0.8309080600738525,-1.2381272315979004,3.761336326599121,0
221591,0.0024400309193879,0.0057751461863517,0.9936275482177734,1.3463717699050903,-3.270512819290161,-1.6046195030212402,-0.0041734022088348,-0.006079769693315,0.0878532156348228,-0.8309080600738525,-1.2381272315979004,3.761336326599121,0
221691,-0.0089643206447362,-0.0178269296884536,0.9904919862747192,-0.1133936718106269,-5.686459064483643,-2.584127902984619,0.0029347660019993,-0.0021271565929055,0.1011133566498756,-0.1389791667461395,0.1970903575420379,3.469449043273926,0
221771,0.0153677845373749,-0.0085040759295225,1.0038487911224363,9.232037544250488,-7.309581756591797,-2.2255566120147705,0.0076771546155214,0.0009454973042011,0.1064432561397552,0.136699691414833,0.4060206115245819,3.2950470447540283,0
221781,0.0090854931622743,-0.0139770219102501,1.0378310680389404,9.73293685913086,-8.466641426086426,-2.268282175064087,0.0078973406925797,0.0012440519640222,0.1073769181966781,0.2299304902553558,0.5091304779052734,3.271260976791382,0
221871,0.0017233077669516,0.0013303948799148,1.0484315156936646,1.4314279556274414,1.587988257408142,-1.448706865310669,0.0131290815770626,0.0046445298939943,0.1182736977934837,0.6143752932548523,0.9263668656349182,3.100313186645508,0
221941,0.0170594844967126,-0.0022967441473156,1.0445303916931152,-2.612701416015625,-0.3070944845676422,-1.0384337902069092,0.0165606681257486,0.0068260128609836,0.1311504542827606,0.6618449091911316,0.9361868500709534,3.004443407058716,0
221951,0.0124831004068255,-0.0017521864501759,1.0766072273254397,-3.695880174636841,0.1602991670370102,-0.9628410935401917,0.0168296732008457,0.0069383303634822,0.1330356150865554,0.62217116355896,0.9319643378257751,2.9955973625183105,0
222051,0.0003791392664425,-0.0155380712822079,1.051405906677246,2.936472177505493,-1.557882308959961,-1.287137746810913,0.0216678008437156,0.007040134165436,0.1502378284931183,0.6181209087371826,0.6222143769264221,2.912534475326538,0
222151,0.0146811697632074,-0.0058297053910791,1.0171396732330322,1.663141846656799,3.0586605072021484,-0.8587393760681152,0.0234948694705963,0.0084493523463606,0.1743816286325454,0.1975405365228653,0.66042560338974,2.829705715179444,0
222161,-0.0001268273190362,-0.0033360591623932,1.0261815786361694,3.655086755752564,4.526673793792725,-0.7633149027824402,0.0240565184503793,0.0040850196965038,0.1770298928022384,0.3800397217273712,0.627057671546936,2.80591368675232,0
222161,-0.0001268273190362,-0.0033360591623932,1.0261815786361694,3.655086755752564,4.526673793792725,-0.7633149027824402,0.0242331735789775,0.0038725587073713,0.1796881258487701,0.4134223461151123,0.5878437757492065,2.798253059387207,0
222181,0.0159084610641002,-0.0026688610669225,1.0310628414154053,2.51983904838562,2.796372175216675,-0.4876163601875305,0.0243939794600009,0.0036465441808104,0.1828861087560653,0.4532671868801117,0.5582210421562195,2.7906439304351807,0
222341,0.005464528221637,-0.015365251339972,1.022413969039917,-4.111325740814209,6.5827460289001465,-0.9243682026863098,0.0228223893791437,-0.0017837267369031,0.2304486036300659,-0.1021277457475662,0.0606212019920349,2.652848720550537,0
222341,0.005464528221637,-0.015365251339972,1.022413969039917,-4.111325740814209,6.5827460289001465,-0.9243682026863098,0.0226908661425113,-0.0024255062453448,0.2333505302667617,-0.1369264274835586,-0.0022355588153004,2.642863273620605,0
222351,0.0118971345946192,-0.0068693705834448,1.002484679222107,-4.27284574508667,4.8520989418029785,-1.1740432977676392,0.0221898462623357,-0.0024236729368567,0.2352779358625412,-0.187171071767807,-0.0361695066094398,2.6333775520324707,0
222471,6.322696572169662e-05,-0.0134755028411746,0.9734148979187012,1.5454611778259275,4.25860595703125,-0.9848291277885436,0.0167738385498523,-0.0039061419665813,0.268125832080841,-0.3633096218109131,-0.2243759930133819,2.524637460708618,0
222501,0.005798113066703,-0.0146494954824447,0.9922109842300416,0.5333802103996277,4.929851531982422,-0.415477454662323,0.0163203850388526,-0.0029964940622448,0.2759634554386139,-0.3673802614212036,-0.3696541786193847,2.50716495513916,0
222511,0.0011873877374455,-0.0085865734145045,0.9958786964416504,-0.718647837638855,4.07297945022583,-0.8098692297935486,0.0155877014622092,-0.0030088115017861,0.2785485386848449,-0.3799277245998382,-0.3983210027217865,2.5009429454803467,0
222631,0.0229096449911594,0.0012915565166622,1.000101923942566,2.815760850906372,-3.245410680770874,-0.537217915058136,0.0191350765526294,0.002505267271772,0.3037357628345489,-0.2428431212902069,-0.4912784099578857,2.4146735668182373,0
222661,0.0122280772775411,-0.0031698308885097,0.9910277128219604,4.28014087677002,-5.280075073242188,0.0333314314484596,0.0197083353996276,0.0043601542711257,0.3147201836109161,-0.1175098121166229,-0.3343980610370636,2.409867525100708,0
222671,0.0161472968757152,-0.0301708877086639,1.0058470964431765,2.5022943019866943,-4.269801139831543,0.3481837809085846,0.0197891108691692,0.0045453840866684,0.3172778189182281,-0.0908176451921463,-0.291143536567688,2.4132657051086426,0
222681,0.0136660169810056,-0.0201282314956188,0.9953070878982544,2.921416997909546,-4.857182025909424,0.333691656589508,0.0195801239460706,0.0050085689872503,0.3198377788066864,-0.0638077333569526,-0.2436840832233429,2.413304328918457,0
222831,-0.0028341328725218,0.0019363687606528,0.992884635925293,-2.9350075721740723,-0.095772661268711,-0.587553858757019,0.0177723206579685,0.000698464224115,0.353778600692749,0.3052312135696411,0.0989180654287338,2.363361597061157,0
222901,0.0072356881573796,-0.0114745562896132,1.0105928182601929,-5.608325481414795,-0.3364161849021911,-0.8780486583709717,0.0189146809279918,-0.0094205383211374,0.3785406053066253,0.1255711913108825,0.1029763594269752,2.299419641494751,0
222921,0.0029448010027408,-0.0137079255655407,1.006503343582153,-7.9685282707214355,0.3300209045410156,-1.6739211082458496,0.0189408827573061,-0.0096866711974143,0.3811222612857818,0.041157778352499,0.0888900607824325,2.2876100540161133,0
222931,0.0042257457971572,-0.0097791291773319,1.011962890625,-10.387800216674805,1.2947628498077393,-1.6256171464920044,0.018989723175764,-0.0102153252810239,0.3867175877094269,-0.1397573947906494,0.0674030482769012,2.254875898361206,0
222931,0.0042257457971572,-0.0097791291773319,1.011962890625,-10.387800216674805,1.2947628498077393,-1.6256171464920044,0.018989723175764,-0.0102153252810239,0.3867175877094269,-0.1397573947906494,0.0674030482769012,2.254875898361206,0
222931,0.0042257457971572,-0.0097791291773319,1.011962890625,-10.387800216674805,1.2947628498077393,-1.6256171464920044,0.0191453304141759,-0.0114326821640133,0.3905316293239593,-0.2938271164894104,0.0437893345952034,2.2166905403137207,0.0
222951,0.0165725797414779,-0.0042864782735705,1.000317931175232,-7.669703006744385,0.5240046977996826,-2.076810359954834,0.0214617475867271,-0.0109905647113919,0.3959300518035888,-0.3288624584674835,0.008762345649302,2.173044204711914,0.0
222991,0.0077602141536772,-0.0094781136140227,0.989820122718811,1.2826361656188965,-1.113498330116272,-1.784879207611084,0.0199031922966241,-0.0088580641895532,0.3986180126667022,-0.3444058001041412,0.0285863447934389,2.1505355834960938,0
222981,0.0081235971301794,-0.0170918144285678,0.9949915409088136,1.8790886402130127,0.3996248841285705,-2.102621555328369,0.0197962038218975,-0.0073599019087851,0.4041766226291656,-0.3488015234470367,0.042070236057043,2.130317449569702,0
223011,0.0124338334426283,-0.0186144113540649,1.0338282585144043,2.6002092361450195,-0.1008750796318054,-1.5292757749557495,0.0212923400104045,-0.007434724830091,0.4070100486278534,-0.3284482955932617,0.035349503159523,2.112384557723999,0
223171,0.0116624096408486,-0.0110951857641339,0.9618293642997742,4.198369026184082,0.4481647312641144,-2.4188766479492188,0.0234547611325979,0.0042277695611119,0.4499577283859253,-0.0025761886499822,0.009600686840713,1.7496064901351929,0
223181,0.008777916431427,-0.0100076962262392,0.974251389503479,2.205925703048706,0.155689850449562,-2.4683237075805664,0.0235365387052297,0.004419061820954,0.4526481032371521,0.0280713122338056,0.0058704908005893,1.7239770889282229,0
223311,0.0116044506430625,-0.0091198543086647,0.9543631076812744,5.598703384399414,-0.2948128283023834,-1.2380627393722534,0.0223932601511478,0.0142958825454115,0.4785032272338867,0.4154873490333557,0.0478581003844738,1.438887119293213,0
223331,0.0047093722969293,-0.0101381558924913,0.9621751308441162,2.477696895599365,1.4263650178909302,-1.4140063524246216,0.0225011315196752,0.0153703354299068,0.4818692505359649,0.4633324742317199,0.03079648129642,1.4099125862121582,0
223331,0.0047093722969293,-0.0101381558924913,0.9621751308441162,2.477696895599365,1.4263650178909302,-1.4140063524246216,0.0225011315196752,0.0153703354299068,0.4818692505359649,0.4633324742317199,0.03079648129642,1.4099125862121582,0
223491,0.009054010733962,-0.0146792419254779,0.9679436087608336,3.4357922077178955,0.5562806725502014,-1.2279551029205322,0.0224834010004997,0.0279507040977478,0.5052964091300964,0.6876921057701111,-0.0374584794044494,1.202993631362915,0
223531,0.0057620955631136,-0.0168276466429233,0.9881266951560974,-1.2823309898376465,-0.2947065532207489,-1.131365180015564,0.0239538326859474,0.0319105237722396,0.5108447074890137,0.6443430185317993,-0.079216681420803,1.1555863618850708,0
223591,0.0134240118786692,-0.0144378459081053,0.9861632585525512,1.6735433340072632,-1.867242455482483,-0.9806492924690248,0.0238660741597414,0.0344345159828662,0.5179253816604614,0.5358259081840515,0.013493469916284,1.110799789428711,0
223601,0.0151549354195594,-0.0044524110853672,0.9667214751243592,3.6915459632873535,-0.4898858070373535,-1.0461164712905884,0.0239304639399051,0.0347396321594715,0.518329918384552,0.561343252658844,0.0335113741457462,1.1012741327285769,0
223711,0.005767417140305,-0.0152609264478087,0.9857463836669922,-3.660792827606201,-1.843493223190308,-1.4643990993499756,0.026125555858016,0.0394248515367507,0.521304190158844,0.4903821051120758,0.0161834564059972,0.9689857363700868,0
223731,0.0115075567737221,-0.0049053742550313,0.9842889308929444,-1.511631965637207,-4.105729579925537,-1.1097382307052612,0.025740647688508,0.0366284549236297,0.5219786763191223,0.4838892221450805,0.051544465124607,0.9577855467796326,0
223901,0.0127640953287482,-0.0201795455068349,1.0024847984313965,-2.879552125930786,0.5499324202537537,-1.166730284690857,0.0251839328557252,0.0388882122933864,0.5302304029464722,0.4254146218299866,0.2818411886692047,0.7276160717010498,0
223911,0.0003449629002716,-0.0131064848974347,1.0053939819335938,-2.9647130966186523,-0.1373406946659088,-1.1837903261184692,0.0251839328557252,0.0388882122933864,0.5302304029464722,0.4254146218299866,0.2818411886692047,0.7276160717010498,0
223931,0.0007804097840562,-0.004495607689023,1.0013848543167114,-2.912927865982056,4.008701324462891,-0.7070962190628052,0.0251751635223627,0.037533551454544,0.5314077138900757,0.3731051385402679,0.2805750966072082,0.7035674452781677,0
223981,0.0093649923801422,-0.0161464530974626,0.9830358028411864,-3.356381416320801,1.9930115938186648,-1.737819790840149,0.024794265627861,0.0371831767261028,0.5379718542098999,0.2233524173498153,0.1391789615154266,0.6337829232215881,0
224091,0.0075146285817027,-0.0065418756566941,0.9906930327415466,-0.4263083636760711,1.3047024011611938,-2.848048448562622,0.0178478583693504,0.0367727763950824,0.5454686284065247,-0.1071810349822044,0.0119653129950165,0.4236344695091247,0
224111,0.0072171175852417,-0.0090079559013247,0.9777774214744568,-1.65366792678833,2.300388813018799,-2.385246992111206,0.0175811871886253,0.0366335101425647,0.5465445518493652,-0.1358056515455246,-0.0163250900804996,0.3683945536613464,0
224271,0.0107329934835433,-0.0033023236319422,1.0083253383636477,0.8159411549568176,-0.4567894339561462,-0.3930154740810394,0.0153489811345934,0.0338345021009445,0.5404818654060364,-0.3307190835475921,-0.3148178458213806,0.1416541785001754,0
224281,0.0038329837843775,-0.0103379022330045,1.0122177600860596,0.9717276692390442,-0.5327911972999573,-0.8444056510925293,0.0153257809579372,0.0315039753913879,0.5404394865036011,-0.3122674226760864,-0.3154119253158569,0.1350594162940979,0
224301,0.0095833847299218,-0.0099683413282036,0.9879496693611144,1.024726629257202,-1.1312029361724854,-1.1603612899780271,0.0153346033766865,0.0335531271994113,0.5438716411590576,-0.3016793131828308,-0.3125478029251098,0.1189301386475563,0
224341,0.0039664288051426,-0.0164408963173627,1.0165811777114868,-0.0909704267978668,-0.0424300618469715,-0.6441071629524231,0.0126842521131038,0.0379736348986625,0.5433863401412964,-0.3056990504264831,-0.2751537561416626,0.066057913005352,0
224451,0.0036569689400494,-0.019299678504467,1.0252248048782349,1.727437138557434,-2.3958680629730225,-0.4293009340763092,0.0150285214185714,0.0383009947836399,0.5433167219161987,-0.1045231074094772,-0.1862228810787201,-0.008199461735785,0
224471,-0.0001981995883397,-0.0123329563066363,1.00209379196167,0.9213479161262512,-1.2495193481445312,-0.1283391565084457,0.0172159634530544,0.0380536019802093,0.5437066555023193,-0.076033316552639,-0.1660027652978897,-0.0174237377941608,0
224561,0.0089575638994574,-0.013356658630073,1.0217084884643557,-0.4652229845523834,-4.242403030395508,-0.8531290888786316,0.0215917788445949,0.0374970063567161,0.5452944040298462,0.0357783250510692,-0.030454147607088,-0.0812447592616081,0
224621,0.0057655717246234,-0.0172607954591512,0.9853519797325134,0.9570278525352478,1.742065668106079,-0.0225445851683616,0.0233300607651472,0.0395029857754707,0.5437678098678589,0.0506200082600116,0.0584481284022331,-0.1100285425782203,0
224671,0.0070426235906779,-0.0096229091286659,0.998011827468872,0.1502449661493301,-1.6168848276138306,-0.274743914604187,0.0231264904141426,0.0370452515780925,0.5440936088562012,0.0787950754165649,0.0310034584254026,-0.126384824514389,0
224771,0.0065246769227087,-0.0119369253516197,0.98909991979599,2.0623533725738525,1.8495194911956787,0.4359324872493744,0.0220071859657764,0.0358836911618709,0.5508766174316406,0.1422108858823776,0.211580604314804,-0.1250829696655273,0
224791,0.0193211175501346,-0.0160961113870143,0.9822505116462708,0.2327221632003784,2.985128164291382,0.4399286806583404,0.0221891961991786,0.0381680205464363,0.5513722896575928,0.1417949199676513,0.1759079098701477,-0.1190597042441368,0
224801,0.0180028807371854,-0.0141222607344388,0.9949387907981871,-0.8071733713150024,2.1665987968444824,0.0829725489020347,0.0222519654780626,0.0382099859416484,0.5513706207275391,0.1382715404033661,0.1527212858200073,-0.1165322139859199,0
224891,0.0183629188686609,-0.0139919342473149,0.989752233028412,0.6516780853271484,-0.8717566728591919,-0.2210653573274612,0.0275231786072254,0.0557086318731308,0.5571590662002563,0.0707759484648704,0.0503014214336872,-0.1247165277600288,0
224951,0.0067104599438607,-0.0067115863785147,0.9713585376739502,1.9002573490142824,0.319730132818222,0.401233971118927,0.0271952431648969,0.058223720639944,0.5566133856773376,0.1848931759595871,0.1766594648361206,-0.1241984218358993,0
224971,0.0086669949814677,-0.0056424369104206,0.9656170010566713,0.6123049855232239,1.3764491081237793,1.1962133646011353,0.0272204112261533,0.0601678900420665,0.556723952293396,0.2219945788383484,0.1811528652906417,-0.1108164712786674,0
225071,0.0158716049045324,0.0027481634169816,0.9859408140182496,1.3368147611618042,-1.607093334197998,0.3141964077949524,0.0321200788021087,0.0646101683378219,0.5509633421897888,0.3855028450489044,0.202438086271286,-0.0726510435342788,0
225121,0.0035199110861867,-0.0060689589008688,1.0054352283477783,2.9829649925231934,1.0113259553909302,0.9623883366584778,0.0318632945418357,0.0668723881244659,0.5489678382873535,0.4957330226898193,0.2429763078689575,-0.0505187697708606,0
225141,0.014486857689917,-0.0050094253383576,1.0077825784683228,1.7737361192703247,-1.097633957862854,1.159184455871582,0.0342645421624183,0.0664033517241478,0.5481124520301819,0.5551000237464905,0.2233491390943527,-0.0295017138123512,0
225201,0.001642563031055,-0.0080156000331044,1.0189887285232544,-2.220824956893921,2.4049813747406006,1.9661790132522583,0.0328231304883956,0.0683597177267074,0.5392400622367859,0.6646484732627869,0.1793802827596664,0.0774697661399841,0
225291,0.0128698665648698,-0.0022812623064965,1.0374761819839478,-4.297774791717529,-0.0329945832490921,1.9690830707550049,0.0340544395148754,0.0651023089885711,0.5346153974533081,0.4299546480178833,0.0467842519283294,0.2614802718162536,0
225311,0.0163340587168931,-0.0086592119187116,1.024285912513733,-4.092965602874756,-0.5141928791999817,1.8814501762390137,0.0338905863463878,0.0617486573755741,0.5369488000869751,0.3555276691913605,0.0498792380094528,0.2970583438873291,0
225361,-0.0011391820153221,-9.544477507006376e-05,1.0300716161727903,2.548699378967285,3.3236794471740723,2.587904214859009,0.0318792723119258,0.0572181269526481,0.5330410003662109,0.3233634829521179,0.037939041852951,0.3866764903068542,0
225471,0.0216166619211435,0.006519803777337,1.0073788166046145,-3.942278861999512,-0.099441297352314,1.46579909324646,0.0337654203176498,0.0464854761958122,0.5314639210700989,-0.1517065167427063,0.1004355773329734,0.5484616160392761,0
225501,0.0314471609890461,-0.0174561403691768,1.0049093961715698,0.7315136790275574,3.2736916542053223,1.8336212635040283,0.0349762812256813,0.0471717156469821,0.5310357809066772,-0.2127615362405777,0.0632823035120964,0.6046672463417053,0
225501,0.0314471609890461,-0.0174561403691768,1.0049093961715698,0.7315136790275574,3.2736916542053223,1.8336212635040283,0.0349762812256813,0.0471717156469821,0.5310357809066772,-0.2127615362405777,0.0632823035120964,0.6046672463417053,0
225511,0.0170015711337327,-0.0004585229908116,1.031221628189087,1.0318981409072876,3.383979797363281,2.0814833641052246,0.0357463248074054,0.0446121729910373,0.5311006903648376,-0.1970235258340835,0.0310230106115341,0.6233667135238647,0
225651,0.0188787318766117,-0.0223275907337665,1.0190753936767578,0.6913564205169678,0.9435917139053344,-0.6246345043182373,0.0358131974935531,0.0318578034639358,0.5383621454238892,-0.4297429919242859,0.1682551801204681,0.6261128187179565,0
225671,0.0070553566329181,-0.0054036364890635,0.9833729863166808,-2.0597238540649414,2.896930932998657,-1.1094037294387815,0.0358284600079059,0.0316033363342285,0.5399734973907471,-0.4300344288349151,0.1562659293413162,0.6194204092025757,0
225771,0.0106446081772446,-0.017742658033967,0.9765958189964294,5.440210819244385,-3.274371385574341,-1.0143834352493286,0.0375436916947364,0.0267789047211408,0.5398598313331604,-0.6821638941764832,0.0429328046739101,0.5117790102958679,0
225841,0.0044991769827902,-0.0116409081965684,0.9802424311637878,-0.3666005134582519,1.2099928855895996,-0.8646104335784912,0.0373980738222599,0.028178846463561,0.538287341594696,-0.517251193523407,0.1116099432110786,0.4616956710815429,0
225891,0.0069409972056746,-0.0013690388295799,0.9973185062408448,1.1111211776733398,0.1772676259279251,-0.7213025689125061,0.036426056176424,0.0285620912909507,0.5407558083534241,-0.514743983745575,-0.0195591300725936,0.4258496165275574,0
226001,0.0098450882360339,-0.0147693967446684,0.9989506006240844,5.998429298400879,2.721789121627808,-1.8616290092468264,0.0340680964291095,0.0419504009187221,0.5391026735305786,0.0022557452321052,-0.0025887342635542,0.2796119451522827,0
226171,0.0160224698483943,-0.0002674806164577,0.9699215292930604,1.8055005073547363,0.2183659225702285,-1.628926157951355,0.0354229062795639,0.0554760135710239,0.5475420355796814,0.312550812959671,0.1156254485249519,-0.0106549318879842,0
226201,0.0084972772747278,-0.0029113083146512,0.9705384969711304,1.85797119140625,-0.97997784614563,-1.383208394050598,0.0351418815553188,0.0575481429696083,0.5475752949714661,0.3338219225406647,0.1363624036312103,-0.0418483652174472,0
226201,0.0084972772747278,-0.0029113083146512,0.9705384969711304,1.85797119140625,-0.97997784614563,-1.383208394050598,0.0351418815553188,0.0575481429696083,0.5475752949714661,0.3338219225406647,0.1363624036312103,-0.0418483652174472,0
226211,0.0039282338693737,-0.0090776616707444,0.976948857307434,2.473357677459717,0.2887455821037292,-1.3067561388015747,0.0355911292135715,0.0596416778862476,0.5429248809814453,0.3637641370296478,0.122210793197155,-0.0681917071342468,0
226301,0.0153621975332498,0.000921857310459,0.9921695590019226,2.9109644889831543,0.0112974178045988,-0.276040107011795,0.0328073278069496,0.0631880909204483,0.5390611886978149,0.5492034554481506,0.0916517823934555,-0.1512909233570099,0
226371,-0.0014013889012858,-0.0179630871862173,1.0283749103546145,0.4094841480255127,0.7535561919212341,-0.31065833568573,0.0332035422325134,0.0695980787277221,0.5345319509506226,0.6606041789054871,0.0458273217082023,-0.1796689480543136,0
226381,0.0178982336074113,-0.0089983409270644,1.017369270324707,-0.4658943712711334,1.473283767700195,-0.2967307865619659,0.0331344492733478,0.0697974637150764,0.5341081619262695,0.6595127582550049,0.0429311320185661,-0.1828411221504211,0
226451,0.0070337001234292,-0.0129425767809152,1.0460458993911743,-1.7578965425491333,-0.1056281551718711,-0.1984996348619461,0.0283455960452556,0.0750427693128585,0.5291031002998352,0.6291748881340027,-0.0037588900886476,-0.1888851225376129,0
226531,0.0177672896534204,-0.0145105756819248,1.0511080026626587,-0.6276909708976746,0.9092077612876892,0.0048013227060437,0.0282665267586708,0.0681788623332977,0.5271895527839661,0.5013299584388733,-0.0544401295483112,-0.2016805410385131,0
226541,0.0144228199496865,-0.0094988504424691,1.0261280536651611,-2.466336965560913,1.4419925212860107,-0.5393771529197693,0.0280378237366676,0.0681587681174278,0.5270542502403259,0.4656768441200256,-0.0800186395645141,-0.2064133584499359,0
226641,0.0037582765799015,-0.0006001568981446,1.0242433547973633,-0.9209019541740416,0.7522345781326294,-0.3521284759044647,0.0255066212266683,0.0663666501641273,0.5308741927146912,0.1399756968021392,-0.0785870924592018,-0.239006370306015,0
226661,0.0010970309376716,-0.0143262147903442,1.007935881614685,0.2309097647666931,0.9534153938293456,-0.1017590016126632,0.0286544896662235,0.0667231902480125,0.5310643911361694,0.1063310354948043,-0.1128092929720878,-0.2446705102920532,0
226711,0.0073518268764019,-0.0127467820420861,0.996687650680542,-2.7000436782836914,-3.300261974334717,-0.555753231048584,0.025789326056838,0.0664912387728691,0.5305424332618713,0.088355503976345,-0.131054937839508,-0.258093386888504,0
226821,0.0070491088554263,0.0015544339548796,0.9899247288703918,-0.8534497022628784,-2.208946943283081,0.1579851657152176,0.0270418543368577,0.0618413425981998,0.5313916206359863,-0.195062905550003,-0.159298688173294,-0.2665456235408783,0
226821,0.0070491088554263,0.0015544339548796,0.9899247288703918,-0.8534497022628784,-2.208946943283081,0.1579851657152176,0.0269942004233598,0.0617151223123073,0.5313074588775635,-0.2047096043825149,-0.1434827446937561,-0.2647981345653534,0
226961,0.0077273538336157,-0.010968217626214,0.970538318157196,2.137866973876953,-0.895835816860199,-0.0409110151231288,0.0275899488478899,0.067237302660942,0.5389647483825684,-0.2644000947475433,-0.1213290095329284,-0.2118858397006988,0
226971,0.0120025686919689,-0.0146680567413568,0.9744887351989746,2.3110811710357666,-0.1363744735717773,0.1780665814876556,0.0275899488478899,0.067237302660942,0.5389647483825684,-0.2644000947475433,-0.1213290095329284,-0.2118858397006988,0
227021,0.0124258613213896,-0.0104245813563466,0.9858992695808412,-0.2645399272441864,-0.4569600224494934,-0.5489189624786377,0.0303829964250326,0.0702840536832809,0.5375994443893433,-0.2297694385051727,-0.0780909359455108,-0.2073059678077697,0
227521,-0.0050551751628518,-0.0080108838155865,0.9893029928207396,-3.53060245513916,-2.252072095870972,-0.2937746345996856,0.0420484840869903,0.1059125885367393,0.5254614353179932,0.7146337628364563,0.14475679397583,-0.0761975571513176,0
227551,0.0282285045832395,-0.0102201681584119,0.9971084594726562,-5.586735248565674,-1.3488428592681885,-0.4499292969703674,0.041115716099739,0.1050034537911415,0.5248742699623108,0.6170339584350586,0.1941604763269424,-0.0812015458941459,0
227701,0.0107868481427431,-0.0003385236486792,0.9935586452484132,-5.054611682891846,3.669265508651733,-1.057434320449829,0.0415285266935825,0.100344181060791,0.5266304612159729,0.0112224388867616,0.1969858556985855,-0.2322525084018707,0
227741,0.0057440507225692,-0.0087923733517527,1.0027645826339722,-2.7489681243896484,2.0794661045074463,-1.004050374031067,0.0414811931550502,0.1000900641083717,0.5290738940238953,-0.0712848380208015,0.1325104981660843,-0.2628083825111389,0
227741,0.0057440507225692,-0.0087923733517527,1.0027645826339722,-2.7489681243896484,2.0794661045074463,-1.004050374031067,0.0414660908281803,0.1000093892216682,0.5291746854782104,-0.0924055054783821,0.1001322418451309,-0.2729734778404236,0
227851,0.0115371132269501,-0.0065857130102813,0.9848601222038268,-0.7321701645851135,-0.1154549717903137,-0.8927615880966187,0.0370008051395416,0.0978513956069946,0.5297480821609497,-0.2426604330539703,-0.0809371992945671,-0.3570640385150909,0
227971,0.0141699556261301,-0.0080142691731452,1.0030934810638428,1.1845526695251465,-0.1048341691493988,0.110817052423954,0.0354334823787212,0.1045511066913604,0.5226905941963196,-0.2777459621429443,-0.1691397875547409,-0.4199315905570984,0
228131,0.0082613909617066,-0.0111466720700263,0.993604063987732,5.796570301055908,-0.9795485138893129,-0.8472804427146912,0.0351941734552383,0.1249436065554618,0.5293412208557129,0.2018434405326843,-0.1510260701179504,-0.4861651062965393,0
228161,0.0086836526170372,-0.0091982036828994,0.9814049005508424,4.17902135848999,-0.5645376443862915,-1.1109009981155396,0.0348715260624885,0.1274072527885437,0.5296515226364136,0.4334691166877746,-0.1245331764221191,-0.5284481644630432,0
228321,0.0004850949335377,-0.0049354792572557,0.9858550429344176,1.5574116706848145,-0.7278248071670532,-0.5998233556747437,0.0376238860189914,0.1425471007823944,0.5252698063850403,0.7960432171821594,-0.0095537053421139,-0.6703041195869446,0
228341,-0.0010963556123897,-0.0049552251584827,0.9887918829917908,-1.20709490776062,0.2237522900104522,-0.4921367764472961,0.037677776068449,0.1428481638431549,0.5248216986656189,0.8180737495422363,-0.0130815133452415,-0.676860511302948,0
228361,0.0108695402741432,-0.0141113176941871,1.0070565938949585,-0.1781385093927383,-1.4282306432724,-0.3049815595149994,0.0398684963583946,0.1443103402853012,0.523888111114502,0.8201820850372314,-0.0238909292966127,-0.6852867603302002,0
228531,0.0198105797171592,-0.0190126672387123,1.0568089485168457,-0.6655628681182861,2.4785749912261963,0.0653932392597198,0.0412895865738391,0.1484429687261581,0.5191200375556946,0.7923333048820496,0.0259330794215202,-0.7345046401023865,0
228671,0.0174115002155303,-0.0008119291160255,1.0047279596328735,-4.879333019256592,-2.9454448223114014,-0.1690732985734939,0.0455202534794807,0.1473382711410522,0.5247237682342529,0.304339736700058,0.1868669837713241,-0.7492738962173462,0
228701,0.0072794412262737,0.0011065369471907,1.0160590410232544,-4.756772518157959,-2.0640294551849365,-0.6569726467132568,0.0448408350348472,0.1431351006031036,0.5259770154953003,0.1792574524879455,0.2777570784091949,-0.7613620162010193,0
228791,0.0166209079325199,-0.018949843943119,0.97512948513031,-3.118528127670288,-0.6993089914321899,0.2651935815811157,0.0478187464177608,0.1389812678098678,0.5288295149803162,-0.1325944662094116,0.199563130736351,-0.7741976380348206,0
228891,0.0106111839413642,-0.0160964839160442,0.9946274757385254,-0.7025480270385742,1.6497856378555298,-0.4088483154773712,0.0458387732505798,0.135976031422615,0.525917112827301,-0.403406947851181,0.1283218115568161,-0.7417957782745361,0
229031,0.0351561866700649,-0.0026516343932598,0.9795902371406556,3.4525578022003174,-0.7372763156890869,-0.2814336717128753,0.0469200387597084,0.1416947245597839,0.5203042030334473,-0.183799535036087,0.0574015080928802,-0.741936445236206,0
229051,0.0148338060826063,-0.0138895027339458,1.027275323867798,4.473493576049805,0.7207000851631165,-0.0218256711959838,0.0471596047282218,0.1456278413534164,0.5194048881530762,-0.0900022014975547,0.0469825007021427,-0.7472367286682129,0
229101,0.0073751457966864,-0.0130689144134521,1.038949489593506,5.784621715545654,0.1083487719297409,0.1645611375570297,0.0444151870906353,0.1491594761610031,0.5201097726821899,0.1375430673360824,0.057195995002985,-0.7350608110427856,0
229191,0.0116529865190386,-0.0082754101604223,1.0123028755187988,2.4309027194976807,1.6146283149719238,-0.4483072757720947,0.0439278781414032,0.1573753207921981,0.5222349166870117,0.2379443496465683,-0.0767021998763084,-0.748120129108429,0
229221,0.0121561959385871,-0.0356644317507743,1.0376780033111572,2.4914278984069824,1.980833649635315,-0.3006787598133087,0.0425014197826385,0.1588162928819656,0.5225512385368347,0.2867627739906311,-0.1283201277256012,-0.7670553922653198,0
229401,0.0036467164754867,-0.0141553319990634,0.9936915040016174,3.034998178482056,2.319688081741333,0.9873057007789612,0.0442919954657554,0.1729536801576614,0.5263381600379944,0.3746499121189117,-0.075051724910736,-0.7380462884902954,0
229531,-0.0060798493213951,-0.0072644632309675,1.0012315511703491,1.1288589239120483,-3.979430913925171,-0.1940293312072754,0.0461105331778526,0.1876289397478103,0.5187472105026245,0.7773839235305786,0.0188147146254777,-0.6596226692199707,0
229571,0.0139379668980836,-0.0064596165902912,1.003759503364563,-1.240181803703308,-0.7648166418075562,-0.26621213555336,0.0479031354188919,0.1877965629100799,0.5176652073860168,0.7881730198860168,0.0996079072356224,-0.6709228754043579,0
229811,0.017937034368515,-0.0235068555921316,1.0409928560256958,1.6170077323913574,2.4732797145843506,-0.0344762839376926,0.0564949624240398,0.1880539506673813,0.5164792537689209,0.3399029672145843,0.3424150943756103,-0.6487685441970825,0
229831,0.005918784532696,0.0022223284468054,1.0108728408813477,1.6106655597686768,2.196438789367676,0.438854455947876,0.0543140433728694,0.1850935667753219,0.5164321064949036,0.3857311308383941,0.2942037284374237,-0.6438387036323547,0
230061,0.0106198852881789,-0.01336822938174,1.0066165924072266,0.5011534094810486,1.6746749877929688,0.4975898563861847,0.0535907335579395,0.1754074692726135,0.5130406618118286,-0.3170506358146667,0.1319610923528671,-0.6257046461105347,0
230081,0.0076169753447175,-0.0128231290727853,1.019355535507202,-1.752931833267212,1.0678424835205078,0.3495036661624908,0.0535466000437736,0.175213947892189,0.5130119323730469,-0.3282394111156463,0.1196829825639724,-0.6230978965759277,0
230241,0.0137161398306488,-0.0186347290873527,0.9511899948120116,0.1956186592578888,-1.7666345834732056,-0.3177442848682403,0.0455450229346752,0.1795577108860016,0.5149561762809753,-0.1847900301218032,-0.098051942884922,-0.5742048621177673,0
230271,0.0109237097203731,-0.0128384847193956,0.9905040860176086,1.0608688592910769,-0.5795027613639832,-0.4285387992858886,0.045554544776678,0.1791390180587768,0.5156156420707703,-0.1648508906364441,-0.0766472592949867,-0.5830925107002258,0
230381,0.0094793606549501,-0.0110610090196132,0.9946491718292236,-0.3097437918186188,0.4038813710212707,0.331213504076004,0.0423775017261505,0.1792371273040771,0.5130525231361389,-0.148158386349678,-0.2234984189271927,-0.6098050475120544,0
230441,0.0082443859428167,-0.0050363955087959,0.9945598244667052,2.9840474128723145,-1.7691826820373535,-0.2957424819469452,0.0402135588228702,0.1837813854217529,0.5159361958503723,-0.0998668074607849,-0.2084385454654693,-0.6089394092559814,0
230471,0.0006244312389753,-0.012804671190679,1.021067500114441,3.997403621673584,-2.688358783721924,-0.4170964062213897,0.0422771796584129,0.1864546537399292,0.5209970474243164,0.0292949564754962,-0.1514287590980529,-0.6237836480140686,0
230481,0.0170317217707633,-0.0200403314083814,1.0146560668945312,4.77174186706543,-0.6976667046546936,-0.0982237681746482,0.0422771796584129,0.1864546537399292,0.5209970474243164,0.0292949564754962,-0.1514287590980529,-0.6237836480140686,0
230661,0.0092830061912536,-0.0089285308495163,0.989058554172516,-0.4494900405406952,-2.043930053710937,0.1943177133798599,0.0473185963928699,0.1983176171779632,0.5169521570205688,0.2599159777164459,-0.0732307359576225,-0.7125049829483032,0
230681,0.0087042599916458,-0.025334071367979,1.004816651344299,1.0757673978805542,-3.3988513946533203,-0.324623554944992,0.0495871305465698,0.198555514216423,0.5162855386734009,0.2533163726329803,0.0054522100836038,-0.7187228202819824,0
230891,0.0171723514795303,-0.0057526347227394,1.034205436706543,0.7208651900291443,3.02671217918396,0.4289859235286712,0.0593764260411262,0.2024212181568145,0.5104423761367798,0.2019536644220352,0.3081665933132171,-0.6660555005073547,0
230921,0.002492673927918,0.0146662183105945,1.0146514177322388,2.964340925216675,0.7677078247070312,-0.0431706458330154,0.0597860664129257,0.2025767266750335,0.5106105804443359,0.262763649225235,0.2595081031322479,-0.6555851101875305,0
231031,0.0113953556865453,-0.0137012461200356,0.9981217980384828,-1.0230079889297483,3.908050298690796,-0.3450103104114532,0.0608047656714916,0.209165871143341,0.5128879547119141,0.0873161107301712,0.3044773638248443,-0.6813101768493652,0
231111,0.0207158047705888,-0.0054762307554483,0.9609077572822572,2.433990240097046,0.3799504041671753,-0.6174395084381104,0.0586256273090839,0.2083191573619842,0.5180836319923401,0.3748628199100494,0.1544910669326782,-0.7029459476470947,0
231121,0.0010545219993218,-0.0092342225834727,0.9611040353775024,2.126289367675781,0.9117885828018188,-0.926398754119873,0.0562152452766895,0.2104912400245666,0.5143324136734009,0.3837994337081909,0.1639305502176284,-0.7105734348297119,0
231291,0.019723393023014,-0.0243100356310606,1.020578384399414,1.3143504858016968,-0.4529420435428619,1.3277931213378906,0.0541161112487316,0.2092522829771042,0.5100710988044739,0.1342749744653701,-0.0825173258781433,-0.7266348004341125,0
231301,0.0225349701941013,-0.0015477709239348,0.9935454726219176,1.8663843870162964,-0.3561596870422363,1.253209948539734,0.054064605385065,0.2092234939336776,0.5121651887893677,0.1492667943239212,-0.0757939666509628,-0.7117947340011597,0
231431,0.0143606029450893,-0.0076140230521559,1.014479160308838,-1.0205928087234497,-3.6747870445251465,0.7391717433929443,0.0478366911411285,0.2156669348478317,0.5064284801483154,0.0359986908733844,-0.190517783164978,-0.5670269727706909,0
231511,0.0179863404482603,-0.0073239654302597,1.0207948684692385,0.0403267182409763,0.0287845768034458,-0.1202736273407936,0.049824770539999,0.2159514278173446,0.507902204990387,0.0240059532225132,-0.1624722480773925,-0.5455791354179382,0
231511,0.0179863404482603,-0.0073239654302597,1.0207948684692385,0.0403267182409763,0.0287845768034458,-0.1202736273407936,0.049824770539999,0.2159514278173446,0.507902204990387,0.0240059532225132,-0.1624722480773925,-0.5455791354179382,0
231661,0.0038414683658629,-0.0157519541680812,0.9986742734909058,2.412292242050171,-3.5712571144104004,-1.1102737188339231,0.049323447048664,0.2252095490694046,0.5141744017601013,0.3940490484237671,-0.1212190836668014,-0.5657535791397095,0
231741,0.0119444699957966,-0.0104242302477359,0.984492301940918,0.7488793730735779,2.4860706329345703,-0.1711996644735336,0.0506769567728042,0.227323368191719,0.5154674053192139,0.2186351418495178,-0.1017106994986534,-0.636299192905426,0
231851,0.007362525910139,-0.0197480171918869,0.9818547964096068,2.195211172103882,1.0387357473373413,0.4659278094768524,0.0563778989017009,0.2284117192029953,0.5189287066459656,0.3482330739498138,0.0558115467429161,-0.6396797895431519,0
231881,0.0124190747737884,-0.0174822974950075,0.9718710780143738,0.1465024352073669,0.6631643176078796,-0.7729734182357788,0.0566031038761138,0.2284756153821945,0.5190553069114685,0.3814572989940643,0.0292789675295352,-0.6370739340782166,0
231881,0.0124190747737884,-0.0174822974950075,0.9718710780143738,0.1465024352073669,0.6631643176078796,-0.7729734182357788,0.0567144379019737,0.2284983694553375,0.5190899968147278,0.3870324194431305,0.0105073237791657,-0.6427739858627319,0
232031,0.0018605920486152,-0.003697914071381,1.0387681722640991,0.0837564244866371,-3.46407151222229,0.1955832093954086,0.0610603764653205,0.2325575649738311,0.5069161653518677,0.0906118303537368,0.2844234704971313,-0.6486533284187317,0
232051,0.0059771090745925,-0.0184646025300025,1.0417662858963013,2.367228984832764,0.0950055494904518,0.2977440357208252,0.0614006519317626,0.2325906455516815,0.5056091547012329,0.1081053242087364,0.3482942283153534,-0.6387182474136353,0
232051,0.0059771090745925,-0.0184646025300025,1.0417662858963013,2.367228984832764,0.0950055494904518,0.2977440357208252,0.0614006519317626,0.2325906455516815,0.5056091547012329,0.1081053242087364,0.3482942283153534,-0.6387182474136353,0
232151,0.0254132244735956,-0.0140828005969524,1.040764570236206,-3.7848308086395264,-4.116203784942627,-0.3830101191997528,0.0628669708967208,0.2421319931745529,0.5073326230049133,0.0571171529591083,0.2308181524276733,-0.6458383202552795,0
232211,0.0025094668380916,-0.0089318314567208,1.024624943733215,2.770401954650879,1.6114182472229004,-0.4933948218822479,0.0614450387656688,0.2437655627727508,0.503963053226471,0.0059507070109248,0.3256551623344421,-0.6655159592628479,0
232311,-0.0123118124902248,-0.0079714581370353,1.0384870767593384,1.204304814338684,-3.1154587268829346,-0.163045659661293,0.0621080175042152,0.2514139115810394,0.5021562576293945,0.2648480236530304,0.0919359251856803,-0.6821622252464294,0
232421,0.0126712378114461,-0.0014939602697268,0.9911845922470092,4.251214027404785,5.006938457489014,-0.0629546642303466,0.0589595846831798,0.2576589286327362,0.5098723769187927,0.1983465105295181,-0.0480437874794006,-0.6724006533622742,0
232461,0.0015260805375874,-0.0314243510365486,1.044956922531128,4.348597526550293,-0.931031048297882,0.6768062710762024,0.0553503297269344,0.2635128796100616,0.5141116976737976,0.40380859375,-0.1153050437569618,-0.6464249491691589,0
232561,0.0145029798150062,-0.0149375451728701,0.9816051721572876,0.9840821027755736,2.2979040145874023,-0.3039303719997406,0.0504023320972919,0.2680124342441559,0.5117374658584595,0.6052331328392029,-0.2091613560914993,-0.5768788456916809,0
232641,0.0137115316465497,-0.0059640067629516,1.007563829421997,-1.4937139749526978,0.3046883344650268,0.995407223701477,0.0506082884967327,0.2748203873634338,0.5096784234046936,0.5116857290267944,-0.3367878496646881,-0.5816342830657959,0
232691,0.0131633188575506,-0.006143900565803,1.0164592266082764,-2.508089065551758,-0.6611245274543762,0.7795984745025635,0.0501689650118351,0.2731833755970001,0.5098240375518799,0.361094057559967,-0.3074962794780731,-0.5208168029785156,0
232691,0.0131633188575506,-0.006143900565803,1.0164592266082764,-2.508089065551758,-0.6611245274543762,0.7795984745025635,0.0501689650118351,0.2731833755970001,0.5098240375518799,0.361094057559967,-0.3074962794780731,-0.5208168029785156,0
232821,0.019242275506258,-0.0124417394399642,0.9968914985656738,-2.543154001235962,-2.786571264266968,-1.2671416997909546,0.0533558614552021,0.2755979001522064,0.5104652047157288,0.1231555193662643,-0.1597337871789932,-0.5111753940582275,0
232841,0.0088781528174877,-0.0019522013608366,1.009291648864746,-0.4198999404907226,-2.2585654258728027,-1.3149666786193848,0.0533938929438591,0.2756643891334533,0.5105540752410889,0.107849508523941,-0.1317337602376938,-0.5270819664001465,0
233001,0.0095806298777461,-0.0126246167346835,1.014482021331787,2.597691535949707,-3.5470588207244877,-1.474452018737793,0.0617910698056221,0.2805353999137878,0.5086012482643127,0.3995382487773895,0.1451496034860611,-0.678001880645752,0
233171,0.0044357352890074,0.0072171939536929,1.0118687152862549,3.131657361984253,-2.3629441261291504,-0.7046040892601013,0.0710724294185638,0.2836103737354278,0.5048739314079285,0.1852347552776336,0.334181398153305,-0.8551937937736511,0
233181,-0.0034883285406976,-0.0022868320811539,0.9783258438110352,1.4128841161727903,-1.5879123210906982,-1.2758482694625854,0.070015899837017,0.2858515679836273,0.5048264861106873,0.2057494670152664,0.3636403083801269,-0.859285295009613,0
233201,0.0105727585032582,-0.0115478569641709,1.0142394304275513,1.5725009441375732,-0.3044922351837158,-0.5922655463218689,0.0727626904845237,0.2858839631080627,0.5051739811897278,0.2227694541215896,0.3868275284767151,-0.888668417930603,0
233301,-6.23215310042724e-05,-0.0040925871580839,1.0026172399520874,2.954597949981689,-3.497914552688598,-0.0750235095620155,0.0739327743649482,0.2932279109954834,0.50300133228302,0.129610002040863,0.4307498037815094,-0.954884111881256,0
233311,0.0080723315477371,-0.0086141042411327,0.9892005920410156,1.5890545845031738,-2.9470880031585693,0.2129608690738678,0.073974072933197,0.2932628691196441,0.5049312114715576,0.1520890593528747,0.457540214061737,-0.9519574642181396,0
233381,0.0132883489131927,-0.0051377541385591,0.9981521368026732,-1.0862387418746948,4.880428314208984,-0.2033843845129013,0.0722448751330375,0.2952715456485748,0.5048521161079407,0.3140866458415985,0.3359152376651764,-0.9703063368797302,0
233391,0.0081909159198403,-0.0105244815349578,1.0112041234970093,-1.968867540359497,4.103715419769287,1.0053317546844482,0.0701320245862007,0.298882395029068,0.5049769878387451,0.2774795293807983,0.307833582162857,-0.9634527564048768,0
233541,0.0115756588056683,-0.0064200204797089,0.9771838784217834,-3.1194398403167725,2.054433584213257,-0.569447934627533,0.067896768450737,0.3050232529640198,0.5158624649047852,0.3976277709007263,0.0241427272558212,-0.8753524422645569,0
233671,0.0159574318677186,-0.0054166633635759,1.0032448768615725,1.7922368049621582,1.0501573085784912,0.7867545485496521,0.0616959296166896,0.308363139629364,0.5126909613609314,0.1949109584093094,-0.0347719341516494,-0.8094646334648132,0
233721,0.0019452671986073,-0.0095990123227238,1.0015887022018433,-0.6759424805641174,1.7926796674728394,-1.157689929008484,0.0633060038089752,0.3122550249099731,0.5107318162918091,0.2816560566425323,-0.1422904282808303,-0.7886278629302979,0
233751,0.0134099703282117,-0.0069908173754811,1.0020723342895508,1.0728540420532229,1.844285607337952,0.1058172062039375,0.060369174927473,0.3165235817432403,0.5095094442367554,0.2870465815067291,-0.2098508477210998,-0.8036034107208252,0
233851,0.0111519861966371,-0.0043466221541166,1.005451798439026,-0.1581687331199646,-2.0459237098693848,0.7374275326728821,0.060498334467411,0.3267299234867096,0.5072209239006042,0.2656636238098144,-0.2007821500301361,-0.7368428111076355,0
233911,0.0089746955782175,0.005280006211251,0.9798658490180968,7.748104572296143,0.2090467661619186,0.6429439187049866,0.0619369186460971,0.3324958682060241,0.5054511427879333,0.5065162777900696,-0.1352201998233795,-0.6718118786811829,0
233931,0.0113117573782801,-0.0183904860168695,1.0216487646102903,7.850760936737059,0.3373284637928009,0.9229605793952942,0.0621627904474735,0.3328282535076141,0.5053631067276001,0.5962127447128296,-0.1417635679244995,-0.6653977632522583,0
233941,0.0284260474145412,-0.0199792142957448,1.002658724784851,5.46504545211792,0.6704965829849243,0.7065805792808533,0.0622969008982181,0.3335291147232055,0.5052208304405212,0.7413415908813477,-0.1568429172039032,-0.649539053440094,0
234091,0.0274945814162492,-0.0010821449104696,1.0005741119384766,2.6687965393066406,-3.5224645137786865,0.4625105261802673,0.0667595639824867,0.3402748107910156,0.5013752579689026,0.471854418516159,-0.0410824939608573,-0.5926445722579956,0
234101,-0.0034902582410722,-0.0049620289355516,1.0153932571411133,2.078157424926758,-2.8679888248443604,0.3042853474617004,0.0686606913805008,0.339410662651062,0.50127774477005,0.5071576237678528,-0.0213813669979572,-0.5890156030654907,0
234121,-6.581084744539112e-05,-0.0063067367300391,0.9946215748786926,0.3358081877231598,-2.8713266849517822,0.7409214377403259,0.0687525793910026,0.3395149409770965,0.5011886954307556,0.5269017815589905,0.026823554188013,-0.5873402953147888,0
234171,0.0089382110163569,-0.0081048058345913,1.0162553787231443,-1.5906189680099487,-1.0073665380477903,0.3761330544948578,0.0725665912032127,0.3442160189151764,0.5046856999397278,0.4661213755607605,0.0884591937065124,-0.5373485684394836,0
234281,0.0117609975859522,0.0059509063139557,1.002082347869873,-5.310553073883057,-2.177552461624145,0.010504063218832,0.0734060630202293,0.3505830764770508,0.5092021226882935,0.6737018823623657,0.0269250236451625,-0.5649610757827759,0
234301,0.0156051618978381,-0.0018658722983673,1.0014464855194092,-6.105097770690918,-3.86261773109436,-0.3439290225505829,0.0750399157404899,0.3493715524673462,0.5118297338485718,0.5229588150978088,0.1196367442607879,-0.5666088461875916,0
234381,0.0141117051243782,-0.0054839705117046,0.9739288091659546,2.038658142089844,1.6945433616638184,-0.3041932582855224,0.0808014869689941,0.3498698770999908,0.5155653953552246,0.2887537777423858,0.1668526083230972,-0.5716275572776794,0
234451,0.0144390873610973,-0.0075759207829833,0.9828295707702636,-1.567739486694336,-0.1115363091230392,-0.2398647367954254,0.080873966217041,0.3520936071872711,0.5128922462463379,0.2400480806827545,0.1898113936185836,-0.6001527905464172,0
234471,0.0162205602973699,0.0102269509807229,0.9657521843910216,-1.805912971496582,0.5508660078048706,0.4133247137069702,0.0804871693253517,0.3503870666027069,0.5127637982368469,0.2173027694225311,0.1967502832412719,-0.601050615310669,0
234481,0.0171854402869939,0.0016720704734325,0.9683591723442078,-1.0395315885543823,-0.6387893557548523,0.1980808228254318,0.0806369185447692,0.3531752228736877,0.5126745700836182,0.1724386811256408,0.1974870711565017,-0.5967261791229248,0
234651,0.0028686297591775,-0.0062717902474105,1.0305191278457642,-2.3217008113861084,0.8579591512680054,0.0571849308907985,0.0886360257863998,0.3651185035705566,0.5031435489654541,0.1261756867170334,0.3282541036605835,-0.6863546371459961,0
234671,0.0149871883913874,0.0026073034387081,1.037788152694702,0.4477018415927887,0.887830913066864,0.243234172463417,0.0864583700895309,0.3628014624118805,0.5029300451278687,0.1398466378450393,0.3299862444400787,-0.6846262812614441,0
234811,0.0075407219119369,0.0308781843632459,1.010695219039917,3.956134796142578,4.704132080078125,0.0702259913086891,0.0874112471938133,0.3709762692451477,0.5028616189956665,0.3627327084541321,0.2508774101734161,-0.6357978582382202,0
234831,0.0089329965412616,-1.3603622392110992e-05,1.005244493484497,2.164275646209717,3.642033815383911,0.5282618403434753,0.0874045193195343,0.3710744082927704,0.503562867641449,0.3943938016891479,0.2093207985162735,-0.6333861947059631,0
234891,0.0070803905837237,-0.0070510995574295,0.9959182739257812,-1.7622841596603394,-2.8876233100891118,0.8809282779693604,0.0882121548056602,0.3750287294387817,0.5044009685516357,0.3147052824497223,0.2261735051870346,-0.5819494128227234,0
234991,0.0031732842326164,-0.0049904785118997,0.998833179473877,1.2307428121566772,2.776597738265991,1.237968683242798,0.0871560722589492,0.3835304081439972,0.5076290369033813,0.2969242632389068,-0.0206458065658807,-0.5104051828384399,0
235011,0.0147768799215555,-0.0072844931855797,0.9917589426040648,2.2944977283477783,-2.3306422233581543,0.917317509651184,0.0846529230475425,0.3830436468124389,0.5080752372741699,0.3479383587837219,0.0127842286601662,-0.4897904396057129,0
235071,0.0089653441682457,-0.0008076935191638,0.977445125579834,3.7274677753448486,3.6056861877441406,1.1630311012268066,0.0842881351709365,0.3896867930889129,0.5085673928260803,0.4871693551540375,0.0566533394157886,-0.4353162348270416,0
235121,0.0134376501664519,-0.0090952310711145,0.983557105064392,0.7401643395423889,2.055006980895996,-0.0853336900472641,0.0841497555375099,0.3920628428459167,0.5102591514587402,0.5922823548316956,-0.189612865447998,-0.3935507237911224,0
235191,0.0131147969514131,0.0030862055718898,1.0004616975784302,0.3585707247257232,0.7430266737937927,0.4719595611095428,0.0835855603218078,0.3965460956096649,0.5062590837478638,0.6277701258659363,-0.0842674821615219,-0.4109107851982116,0
235201,0.0094358064234256,0.0011833023745566,0.9858993291854858,-1.6960430145263672,0.7580440044403076,0.3769127130508423,0.0835202112793922,0.3966404795646667,0.5075937509536743,0.6090032458305359,-0.0943533852696418,-0.4079722166061401,0
235281,0.0171404816210269,-0.0059939841739833,1.0212430953979492,-3.109809875488281,-0.8183329701423645,0.8240556120872498,0.0831085890531539,0.3974595367908478,0.5049561262130737,0.3734245002269745,-0.0628241598606109,-0.3555977344512939,0
235371,0.0332426577806472,-0.0044179046526551,0.9892728924751282,1.2897628545761108,-1.287302851676941,0.2214437127113342,0.0826763361692428,0.397875964641571,0.5068979859352112,0.3197680711746216,0.0309239737689495,-0.2999835908412933,0
235411,0.0198238231241703,0.0064598340541124,0.9942976832389832,-0.7557969689369202,3.8261425495147705,0.4608034491539001,0.0828284546732902,0.4007177650928497,0.5058659315109253,0.3080563843250274,-0.020891185849905,-0.2979384958744049,0
235531,0.0158518645912408,-0.0096923345699906,1.0176552534103394,-1.5606689453125,-4.074070930480957,-0.3430893123149872,0.0832406058907508,0.4086297452449798,0.4981517493724823,0.3072588741779327,0.0035989207681268,-0.2842490673065185,0
235541,0.0209218356758356,-0.0049543608911335,0.991036891937256,-0.6521018147468567,-3.714664936065674,-0.4144462943077087,0.0813504457473754,0.4086619317531585,0.4978448450565338,0.2920707464218139,0.0925519689917564,-0.2894132733345032,0
235721,0.0014269816456362,-0.0063495035283267,1.0183384418487549,2.5004777908325195,0.6425662040710449,0.4090058207511902,0.0868615433573722,0.4117496609687805,0.5000317096710205,0.2965303063392639,-0.0355386286973953,-0.3024831116199493,0
235751,0.0064548375084996,-0.0398803763091564,1.07570219039917,0.7995068430900574,-1.8440076112747192,-0.1897865384817123,0.0864274054765701,0.4104169309139251,0.5004802346229553,0.3585419654846191,-0.0182568524032831,-0.2970822155475616,0
235761,0.0116269504651427,-0.0171042904257774,1.0364874601364136,1.7589439153671265,-0.6164233088493347,0.2092349827289581,0.0833060070872306,0.4101904928684234,0.5007334351539612,0.3735296428203583,0.0180830601602792,-0.2978616654872894,0
235911,0.0116443252190947,-0.0188714917749166,1.0011394023895264,-2.067032814025879,2.8774077892303467,-0.3478569984436035,0.0892021059989929,0.4197195470333099,0.5076313614845276,0.256076842546463,0.1086612790822982,-0.3294877707958221,0
235931,0.0097144329920411,-0.0091648641973733,0.9838637113571168,0.3867445886135101,3.577455282211304,0.0472592748701572,0.0892480686306953,0.4197456538677215,0.5079793930053711,0.2437413483858108,0.0773593559861183,-0.3259428143501282,0
236051,0.0103479186072945,-0.0143706696107983,0.9942315816879272,-0.3529073894023895,-0.1361931413412094,0.5105380415916443,0.0934773460030555,0.4212390184402466,0.5089414715766907,0.102329097688198,0.177617073059082,-0.3232406377792358,0
236101,0.0093699283897876,-0.002601786982268,0.9945900440216064,1.4637362957000732,1.2658660411834717,0.6806473135948181,0.0938924923539161,0.4212049543857574,0.5108342170715332,0.15034981071949,0.1608636826276779,-0.285656213760376,0
236121,0.0152300419285893,-0.0037648174911737,0.9848778247833252,0.6355541944503784,1.2618234157562256,1.3077125549316406,0.0940241441130638,0.4212006330490112,0.5097278356552124,0.1717237383127212,0.13557930290699,-0.2633906900882721,0
236191,0.0052326805889606,-0.0024454318918287,0.9897363781929016,1.8728185892105105,0.8391361832618713,-0.4085808396339416,0.0940069109201431,0.422258585691452,0.5104243159294128,0.2554370164871216,0.1171218752861023,-0.2396024316549301,0
236281,0.0049400799907743,-0.0043336898088455,1.0084960460662842,-1.7906993627548218,-1.799133062362671,-0.3121241629123688,0.0943522304296493,0.4266494810581207,0.5012174844741821,0.244811475276947,0.1370307952165603,-0.233282670378685,0
236331,0.0014171159127727,0.0015709268627688,1.0232772827148438,-1.325558066368103,1.8591506481170652,0.1922720074653625,0.0944318622350692,0.4266374111175537,0.4984327256679535,0.2109852582216262,0.1348390728235244,-0.238290324807167,0
236461,0.0095833046361804,0.007000676356256,1.0225694179534912,-0.7026354670524597,-1.550525426864624,0.1195122748613357,0.0939749479293823,0.4212315380573272,0.5011124014854431,-0.0855737254023552,0.2045216709375381,-0.2127417922019958,0
236471,0.0202159881591796,-0.0242586676031351,1.00294029712677,-0.4783705174922943,0.4838776290416717,-0.0402251332998275,0.0939279049634933,0.4210340678691864,0.501708984375,-0.0951445177197456,0.2207642048597335,-0.2127627730369568,0
236491,0.0026701767928898,-0.0133778424933552,1.0215522050857544,-0.1016941517591476,2.45857048034668,-0.6997301578521729,0.0944571644067764,0.4180498123168945,0.5017948746681213,-0.0875755101442337,0.1815982609987259,-0.2262450605630874,0
236641,0.0062401979230344,-0.0049790423363447,0.9736643433570862,0.3138218522071838,2.575855255126953,0.6669948697090149,0.0902127400040626,0.4239949584007263,0.5072885751724243,0.1070115491747856,-0.1002561599016189,-0.1995219886302948,0
236651,0.0109998239204287,-0.0023988347966223,0.9675173163414,-0.0126971481367945,0.4918088018894195,0.6433640718460083,0.090136244893074,0.4239675998687744,0.5074851512908936,0.1105455085635185,-0.1068731546401977,-0.1924759000539779,0
236731,0.0086112562566995,-0.0099978977814316,0.9942280650138856,0.1528787016868591,3.028611898422241,-0.0787772312760353,0.0889305174350738,0.4328076243400574,0.50701504945755,0.0817382484674453,-0.2261722832918167,-0.2174416035413742,0
236831,0.0071518486365675,-0.0091466521844267,1.0119197368621826,-2.2491440773010254,-1.821055054664612,0.1765189170837402,0.09204613417387,0.4327439367771148,0.504830539226532,0.0215493943542242,0.0255331322550773,-0.1997413337230682,0
236841,0.0114039098843932,-0.0127522908151149,0.990738332271576,-3.162947416305542,0.6986119747161865,0.0980381146073341,0.0920475721359252,0.4329112470149994,0.5004017949104309,-0.0098660457879304,0.0255035944283008,-0.2007461935281753,0
236951,0.0159219857305288,-0.0191120710223913,1.021776556968689,-0.3207887709140777,-0.2484106123447418,-0.1886011511087417,0.0921530723571777,0.4398761689662933,0.5005277395248413,0.0517229959368705,0.001844726037234,-0.2360022664070129,0
237001,0.0225443337112665,-0.0111347921192646,0.9895196557044984,3.970946311950684,-3.1483185291290283,-0.5788207054138184,0.0911343172192573,0.4414449632167816,0.5032565593719482,0.139036625623703,0.1141883209347724,-0.2574865520000458,0
237111,0.0120540969073772,-0.0003056082932744,0.9929232001304626,-0.2808254957199096,0.5960657596588135,-0.8090093731880188,0.0913537144660949,0.4475322365760803,0.5038606524467468,0.4635457098484039,0.0013571948511525,-0.2955893874168396,0
237171,0.0103752724826335,-0.0073171858675777,1.0003609657287598,-2.033774137496948,-4.520829677581787,-0.2352754473686218,0.0921938195824623,0.4534581005573272,0.5020442605018616,0.4295045435428619,0.0264352466911077,-0.3074629306793213,0
237191,0.0076995869167149,-0.0089417705312371,0.9912163019180298,-0.7699683904647827,-2.280888557434082,0.5511367321014404,0.0921827629208564,0.4535768032073974,0.5031740665435791,0.4285812377929687,0.067672848701477,-0.304021805524826,0
237201,0.0044151842594146,-0.0147232441231608,1.0219783782958984,-0.2190975993871688,-1.7207581996917725,0.6201301217079163,0.094456635415554,0.4565142095088959,0.5032290816307068,0.4127009510993957,0.0889518782496452,-0.2923009991645813,0
237341,0.0214810986071825,-0.0093002021312713,0.998225748538971,4.16054105758667,2.048347234725952,1.4053162336349487,0.0942871421575546,0.4573405683040619,0.5000162720680237,0.4142237305641174,0.1739377528429031,-0.2275237292051315,0
237361,0.0125058721750974,-0.0100783538073301,1.0025851726531982,2.946416139602661,3.9501724243164062,1.130505084991455,0.0951919630169868,0.4597391486167907,0.4973230957984924,0.47264164686203,0.1153826490044593,-0.2013806700706482,0
237371,0.0157186109572649,0.0031923437491059,0.9870706796646118,1.242512345314026,3.630468845367432,1.2977412939071655,0.0940879210829734,0.4584289789199829,0.4971047937870025,0.5204307436943054,0.0399032607674598,-0.1793830245733261,0
237511,0.0129401087760925,0.0064727719873189,0.9986491203308104,-5.018455028533936,1.9737040996551516,-0.0997063443064689,0.0877817645668983,0.4564363956451416,0.5027473568916321,0.3376285135746002,-0.0260804835706949,-0.0808444023132324,0
237521,-0.003180424682796,0.0043520531617105,1.006805419921875,-4.657984733581543,1.245721459388733,-0.0723174139857292,0.088185004889965,0.4520586729049682,0.5032998323440552,0.2747166156768799,-0.055105410516262,-0.084378644824028,0
237671,0.0103395767509937,-0.0028601889498531,0.9662442803382874,-4.869883060455322,1.384652614593506,0.3672133088111877,0.0802176967263221,0.4485025703907013,0.5101792812347412,-0.2498064935207367,-0.261525809764862,-0.0686016976833343,0
237691,0.0120852096006274,-0.0041013560257852,0.9813475608825684,-3.365442037582397,0.5549881458282471,0.5657401084899902,0.080391839146614,0.4466886818408966,0.51027911901474,-0.3138768672943115,-0.2813535034656524,-0.0557821579277515,0
237751,0.0099971741437911,-0.0056358305737376,0.9879910945892334,-0.7377196550369263,-0.1529033929109573,0.1910737305879593,0.0778049379587173,0.4469469785690307,0.5095494985580444,-0.4088862240314483,-0.2594155967235565,-0.033936608582735,0
237861,0.0047651114873588,-0.0081414589658379,0.9981353878974916,4.481595993041992,-3.962525129318237,-0.2073701322078704,0.073527492582798,0.448687732219696,0.5078247785568237,-0.3928103744983673,-0.1714829951524734,-0.0524484775960445,0
237951,0.0118690226227045,-0.0005278688622638,0.9838367700576782,3.394777297973633,2.649186134338379,0.2088192701339721,0.0687563419342041,0.4588662385940552,0.5079522728919983,-0.087714709341526,-0.3750937283039093,-0.0686931908130645,0
238011,0.0056954533793032,-0.0109646338969469,1.0248970985412598,7.526617050170898,-2.36621618270874,-0.4251657724380493,0.06731578707695,0.4671384990215301,0.5024648308753967,0.267929196357727,-0.3003589212894439,-0.0968720614910125,0
238021,0.0063081043772399,-0.0085226707160472,1.019266128540039,6.542070865631104,-0.8982316255569458,-0.4706366658210754,0.0672138556838035,0.4673925340175628,0.5021090507507324,0.3291739523410797,-0.285373717546463,-0.1019110828638076,0
238041,0.0002045794972218,0.0033162583131343,1.0143160820007324,3.6435916423797607,-1.2735735177993774,0.2703588604927063,0.0671169385313987,0.4676414132118225,0.5017552971839905,0.3786976337432861,-0.2756233215332031,-0.105158694088459,0
238171,0.013057516887784,-0.0175579190254211,1.0424631834030151,3.97826886177063,-1.157770752906799,0.0255296248942613,0.0709250792860984,0.4776328802108764,0.4940288662910461,0.5272745490074158,-0.1513184010982513,-0.1435558795928955,0
238191,0.0183399934321641,-0.0077243936248123,1.0533831119537354,3.314732313156128,-3.327998399734497,-0.3058191835880279,0.0726127997040748,0.4809564650058746,0.4938635528087616,0.5755758285522461,-0.1135545969009399,-0.1532335579395294,0
238281,0.0106342630460858,-0.013919130899012,1.0291829109191897,1.446526288986206,-1.1535440683364868,0.1159830838441848,0.0768346935510635,0.4852308332920074,0.4935665726661682,0.725838840007782,0.1111295223236084,-0.1594553142786026,0
238341,0.0042793061584234,0.0052035939879715,1.0154021978378296,2.577596426010132,1.071385622024536,0.080391488969326,0.0770252048969268,0.4899769425392151,0.4998627603054046,0.900560200214386,0.1011576205492019,-0.1732075810432434,0
238361,0.0080794226378202,0.0048057679086923,0.9832680821418762,-1.034855604171753,1.7500841617584229,0.2267824113368988,0.0771639198064804,0.4902378916740417,0.5008059144020081,0.8961487412452698,0.0649616345763206,-0.1703268587589264,0
238461,0.0129701206460595,-0.0074685206636786,0.9937796592712402,-3.833966493606568,0.3745093643665313,0.9944334626197816,0.0782188922166824,0.4844380915164947,0.505368709564209,0.3744931221008301,0.1652714163064956,-0.11099524050951,0
238521,0.0169496648013591,-0.0077235847711563,0.9827997088432312,-2.2495620250701904,-1.611409068107605,0.0737108662724495,0.0784786269068718,0.4840070605278015,0.5038263201713562,0.26892951130867,0.1545443534851074,-0.0862692296504974,0
238531,0.0173245947808027,-0.0128317102789878,0.985157310962677,-2.627056837081909,-0.0111656971275806,0.3856505751609802,0.0781495794653892,0.4822049736976623,0.5039080381393433,0.2521807551383972,0.1644785702228546,-0.0844447612762451,0
238591,0.0130312088876962,-0.0263506211340427,0.9824525117874146,-2.5723717212677,1.694428324699402,1.100123167037964,0.0764915719628334,0.4796721935272217,0.5049851536750793,0.0432500131428241,0.0822994410991668,-0.0264264121651649,0
238691,0.021844619885087,-0.0150459883734583,0.9751150012016296,-1.2015409469604492,-0.5600641965866089,1.014920711517334,0.0767035484313964,0.4781110286712646,0.5035043358802795,-0.0084295412525534,0.0548008792102336,0.0819083079695701,0
238711,0.01321766898036,-0.0244371071457862,1.029792070388794,-0.8730361461639404,-0.1193980649113655,1.0366322994232178,0.0766595900058746,0.4775833785533905,0.5024049282073975,-0.0406645201146602,0.0347355268895626,0.1140513867139816,0
238811,0.0143777253106236,0.0067427861504256,1.0136584043502808,-0.0672760158777237,-1.628517985343933,0.4374101758003235,0.0769722238183021,0.476294606924057,0.4998566210269928,-0.0583462603390216,0.0041695507243275,0.1837476044893264,0
238831,0.0122708613052964,-0.0057247318327426,1.012994408607483,0.0203111544251441,-1.822121500968933,-0.0129595603793859,0.0769452303647995,0.475957453250885,0.4971576631069183,-0.0555219687521457,0.0268970355391502,0.188292384147644,0
238921,0.0193256195634603,-0.0133231226354837,1.0180109739303589,-2.0370376110076904,-2.25110936164856,-0.185062900185585,0.0758810937404632,0.4781949818134308,0.4987182319164276,-0.0848088413476944,-0.097291387617588,0.2097154557704925,0
238921,0.0193256195634603,-0.0133231226354837,1.0180109739303589,-2.0370376110076904,-2.25110936164856,-0.185062900185585,0.0758606567978859,0.478091150522232,0.4986993670463562,-0.1030732244253158,-0.0706424117088317,0.2088146358728408,0
238941,-0.0034042007755488,0.0111965835094451,1.0275229215621948,-2.349032163619995,-4.07634973526001,-0.4398055970668793,0.0758185088634491,0.4778970777988434,0.4972366094589233,-0.1616102159023285,0.0238868836313486,0.1962839961051941,0
239121,0.0124389203265309,-0.0043037622235715,1.01881206035614,1.8661456108093264,1.2858035564422607,0.008672428317368,0.0778911858797073,0.4838437736034393,0.4978215396404266,-0.2116717547178268,0.0599534846842289,0.1842154413461685,0
239231,0.0163279641419649,-0.0110219102352857,0.997518002986908,3.644855260848999,-0.3702180385589599,-1.034065842628479,0.0764192566275596,0.4948888123035431,0.5035849809646606,-0.1027113571763038,-0.0368418358266353,0.1516526341438293,0
239381,0.0107199866324663,-0.0110068134963512,0.9849644899368286,2.662903308868408,0.8880218863487244,-0.6261174082756042,0.0716323405504226,0.5093497037887573,0.5049869418144226,0.4436894953250885,-0.0464867167174816,0.0001597136870259,0
239471,0.0082775326445698,-0.0202359352260828,0.9939546585083008,4.69639778137207,0.6566731333732605,0.3151333928108215,0.069214791059494,0.5213012099266052,0.5046362280845642,0.7308491468429565,-0.0787570849061012,-0.0191081240773201,0
239611,0.0106887994334101,-0.0048036621883511,1.016379952430725,-2.208677291870117,-2.6966569423675537,0.284613698720932,0.0706373304128646,0.5319492816925049,0.4990039467811584,1.1318058967590332,-0.1876828819513321,-0.0604336708784103,0
239651,0.0083797015249729,-0.0097828060388565,1.0194528102874756,-6.7430830001831055,-3.071493625640869,-0.0506084188818931,0.0665619522333145,0.5311458706855774,0.4999184012413025,0.9468600153923036,-0.0249304249882698,-0.0796343013644218,0
239831,0.0023668284993618,-0.0184605978429317,1.0473852157592771,-2.340440511703491,-2.5091724395751958,0.4370689392089844,0.0703548640012741,0.5182980298995972,0.4951862394809723,0.2124602198600769,0.0193960033357143,-0.1340333819389343,0
239851,0.007672619074583,-0.0135676516219973,1.0037877559661863,0.2745982408523559,0.4258962273597717,0.3519937098026275,0.0698921307921409,0.5159935355186462,0.4984784126281738,0.2008596360683441,0.0684544220566749,-0.1216754913330078,0
239961,0.0104395085945725,-0.00544244190678,1.0014876127243042,-2.3538801670074463,0.0404799580574035,-0.3395862877368927,0.0724100992083549,0.510844349861145,0.5061590671539307,-0.0698767974972724,0.0214208718389272,-0.1363622695207595,0
240021,0.0167187005281448,0.0072454023174941,0.9721724987030028,-5.801794528961182,-2.8967294692993164,0.0428871214389801,0.0728940814733505,0.5051326751708984,0.5079800486564636,-0.339381068944931,-0.029300408437848,-0.1297381818294525,0
240051,0.0055454634130001,-0.0128239309415221,0.9692118763923644,-4.330620288848877,-0.64591383934021,0.5829775929450989,0.0739375352859497,0.5022841691970825,0.5052133798599243,-0.5363312363624573,0.0218641422688961,-0.1210548877716064,0
240101,0.0048455270007252,-0.0029649811331182,0.9795659184455872,-1.867256045341492,-0.933513045310974,0.4944263398647308,0.0718291625380516,0.500420331954956,0.5065837502479553,-0.6747294068336487,0.0401275791227817,-0.0980718880891799,0
240281,0.0118806175887584,-0.0173136815428733,0.986730933189392,4.575752258300781,0.9096485376358032,-0.2702869474887848,0.0719088315963745,0.506559431552887,0.5001529455184937,-0.2521571218967438,-0.0308643393218517,-0.0021876005921512,0
240311,0.0104648610576987,-0.009535901248455,1.0270531177520752,4.503558158874512,-1.5134490728378296,-0.6607674360275269,0.0718751773238182,0.5096087455749512,0.4996252954006195,-0.1520742923021316,-0.0170514248311519,-0.0168003626167774,0
240321,0.0233466979116201,-0.006543272640556,1.018608331680298,4.491841793060303,-1.7173669338226318,-1.357560634613037,0.0718752294778823,0.5096986889839172,0.4988337457180023,-0.1073106601834297,0.0015838070539757,-0.0290968418121337,0
240481,0.011756045743823,-0.0127196125686168,1.000847578048706,2.960175037384033,-2.8636510372161865,-0.7868106961250305,0.0711647719144821,0.5228754878044128,0.4950048923492431,0.2701495885848999,0.0077754487283527,-0.1663169711828231,0
240521,0.0086008822545409,0.0064551164396107,1.0386958122253418,6.734896183013916,-1.7464901208877563,-0.2865931093692779,0.0722497329115867,0.525611162185669,0.4910397231578827,0.3824264109134674,0.097103476524353,-0.1827776730060577,0
240571,0.0138765759766101,-0.0100842146202921,1.0246708393096924,5.528482437133789,4.172881603240967,0.2603680789470672,0.0733799934387207,0.5357608199119568,0.4928575158119201,0.6580514311790466,-0.0408958978950977,-0.1808933913707733,0
240681,0.001678277272731,-0.0224952362477779,1.0151729583740234,1.0484607219696045,1.041547417640686,-0.9753646850585938,0.0764698907732963,0.5379894971847534,0.4937272369861603,0.5290932059288025,0.1292959004640579,-0.2093540281057357,0
240711,0.0097659071907401,-0.01592867821455,1.0202901363372805,3.704025268554688,2.804342031478882,-0.2697800993919372,0.0766900554299354,0.5388147830963135,0.4939852356910705,0.6444246172904968,0.0479060150682926,-0.2291106283664703,0
240771,0.0014064904535189,-0.0096436319872736,1.0073535442352295,0.9887920022010804,-0.6467151641845703,-0.4589326083660126,0.0739484056830406,0.539278507232666,0.4994834065437317,0.7352963089942932,0.125036135315895,-0.2433195263147354,0
240871,0.0232555475085973,-0.0258265286684036,1.0160361528396606,-4.100459098815918,0.6336358785629272,0.7213173508644104,0.0740639418363571,0.5394430756568909,0.4984795153141022,0.4088543951511383,0.0566019602119922,-0.2465108186006546,0
240901,0.0119328731670975,-0.0110210301354527,0.9927378296852112,-1.891109585762024,3.007047653198242,0.5871114730834961,0.0764157250523567,0.5390967726707458,0.4998494684696197,0.3261852562427521,0.0221339967101812,-0.2392234951257705,0
241041,0.013091460801661,-0.0106761064380407,0.9873809218406676,-1.5806007385253906,4.182254314422607,0.4360519349575043,0.0773338228464126,0.5328718423843384,0.5053024888038635,0.1366310864686966,-0.1071250140666961,-0.1606526523828506,0
241061,0.0081993052735924,-0.0120422337204217,0.9785612225532532,-4.404855728149414,0.726245105266571,0.7392245531082153,0.0773863345384597,0.5325512290000916,0.5055485963821411,0.0789580270648002,-0.1342066675424575,-0.1432451754808426,0
241221,0.0126232933253049,-0.0058633778244256,1.0225814580917358,-0.5721946954727173,-0.6839858889579773,0.5966110229492188,0.074881911277771,0.5269477963447571,0.4972842931747436,-0.3628524541854858,0.0282796658575534,-0.077149212360382,0
241251,0.006285976152867,0.0052427034825086,1.0411947965621948,-0.3690339922904968,1.4814006090164185,0.5150859951972961,0.07526296377182,0.5276681184768677,0.4968080818653106,-0.3877417743206024,0.0043026758357882,-0.0613415241241455,0
241391,0.0077546210959553,-0.0093578901141881,0.9945793747901917,1.7570605278015137,-0.2206521183252334,-0.4057272374629974,0.0728587284684181,0.5368437767028809,0.4985548257827759,0.1350845396518707,0.0039089089259505,-0.0427971594035625,0
241401,0.0019264919683337,-0.0016877375310286,1.004345417022705,1.6891835927963257,0.5579235553741455,-0.3526241481304168,0.0728270336985588,0.5369144678115845,0.5005810856819153,0.1536079198122024,0.0015686254482716,-0.0461091548204422,0
241431,0.0110451169312,-0.0077522620558738,1.0117602348327637,-1.5319873094558716,2.0796449184417725,0.0684427693486213,0.0730012878775596,0.5390275716781616,0.5011562705039978,0.1443243324756622,-0.0352788120508194,-0.0537950173020362,0
241531,0.0122360121458768,-0.0124706458300352,0.9870932102203368,-1.1902531385421753,1.9162678718566892,0.5598049163818359,0.0684342756867408,0.5460029244422913,0.5051189661026001,0.2115913182497024,-0.0760040432214737,-0.038251157850027,0
241601,0.0072268191725015,-0.0062857838347554,0.9898566603660583,3.0727899074554443,-0.8192627429962158,0.0309711527079343,0.0660168677568435,0.553949773311615,0.508306622505188,0.2540284097194671,-0.1195233166217804,-0.0105804065242409,0
241601,0.0072268191725015,-0.0062857838347554,0.9898566603660583,3.0727899074554443,-0.8192627429962158,0.0309711527079343,0.0660168677568435,0.553949773311615,0.508306622505188,0.2540284097194671,-0.1195233166217804,-0.0105804065242409,0
241701,0.0084929792210459,0.0040190303698182,0.9857029914855956,3.531285524368286,0.932820439338684,0.7845161557197571,0.0658315569162368,0.5607665181159973,0.5062944889068604,0.4062107801437378,-0.1213855966925621,0.0563275329768657,0
241761,0.0149162085726857,-0.0177213661372661,1.0236172676086426,4.242224216461182,1.2721601724624634,0.6679617166519165,0.066556729376316,0.5661972165107727,0.5045484304428101,0.5956151485443115,-0.2288094907999038,0.1074597388505935,0
241781,0.0066138450056314,-0.0019102657679468,0.9965497851371764,3.4778172969818115,-1.30499005317688,0.3006466925144195,0.0645223781466484,0.5680803060531616,0.5015078783035278,0.6608214378356934,-0.2227029949426651,0.1183769106864929,0
241791,0.0134972389787435,-0.0094847436994314,1.0063490867614746,5.711719036102295,-1.0264877080917358,0.9349274039268494,0.0645223781466484,0.5680803060531616,0.5015078783035278,0.6608214378356934,-0.2227029949426651,0.1183769106864929,0
241921,0.0192201789468526,-0.0055894069373607,1.016817331314087,-3.2821176052093506,-2.764441967010498,0.2823015749454498,0.0660430714488029,0.5735245943069458,0.4981607794761657,0.8216462135314941,-0.0923903286457061,0.1784771829843521,0
241951,0.0098047200590372,0.009153607301414,1.000333547592163,-1.83407723903656,-3.540336847305298,-0.6314358711242676,0.0660704523324966,0.5736995339393616,0.4978152513504028,0.7625555396080017,-0.0398756712675094,0.1789257973432541,0
241961,0.0175856817513704,0.0116511210799217,1.0025016069412231,-1.8928298950195312,-1.9126249551773071,-1.1101326942443848,0.06533033400774,0.5715708136558533,0.4992856383323669,0.7409401535987854,0.0030610533431172,0.1638952642679214,0
242101,-0.0070829908363521,-0.0041599222458899,1.014685869216919,-5.535677909851074,-4.907617092132568,0.4136635363101959,0.0633606016635894,0.5699100494384766,0.4984199702739715,0.1180417388677597,0.1226262375712394,0.1598688066005706,0
242121,0.002915488788858,0.0030856055673211,1.0029460191726685,-1.458797812461853,-1.8309922218322756,0.8152087926864624,0.0648935958743095,0.5683406591415405,0.498467355966568,0.1113119125366211,0.1439131200313568,0.1663102954626083,0
242281,0.0088992854580283,-0.0071015111170709,1.0060945749282837,-0.4648219347000122,2.513361692428589,0.9040148854255676,0.0654623284935951,0.5592171549797058,0.4935839176177978,-0.3214383125305176,0.0216699354350566,0.2853173911571502,0
242301,0.0087346686050295,-0.0095957377925515,1.0259755849838257,-0.2161559462547302,3.07120943069458,0.7450805902481079,0.0637124478816986,0.5595477819442749,0.4930046200752258,-0.3292411565780639,0.0074255564250051,0.2933827638626098,0
242351,0.0051000323146581,-0.0097252177074551,1.0189801454544067,-0.2339756339788437,1.0789177417755127,0.5129802227020264,0.0617973618209362,0.559737503528595,0.4962629377841949,-0.3495676219463348,-0.0387196987867355,0.33487069606781,0
242361,0.0166736152023077,-0.0156786274164915,1.0198187828063965,-1.053959608078003,1.1979981660842896,0.4402847290039062,0.0617296136915683,0.5595961809158325,0.4965392649173736,-0.3602527976036072,-0.0499507598578929,0.3375011086463928,0
242501,0.0027041083667427,-0.0033670696429908,0.9870651960372924,2.3178822994232178,-2.0953989028930664,-0.0150647340342402,0.0616867057979106,0.5629637241363525,0.5082058310508728,-0.2615054845809936,-0.0549157299101352,0.3306210041046142,0
242521,0.0113330222666263,-0.0156451947987079,0.97592294216156,2.0058786869049072,-1.7596192359924316,-0.315147340297699,0.061431810259819,0.5650701522827148,0.5071640610694885,-0.2521491050720215,-0.0335143245756626,0.3306300044059753,0
242681,0.0080028865486383,-0.0114550553262233,0.9814223051071168,5.065059185028076,-0.1909510642290115,-0.6631661057472229,0.0581977069377899,0.575753390789032,0.5064903497695923,0.1266050487756729,-0.0881524235010147,0.2411581426858902,0
242751,0.0065778684802353,-0.0157495513558387,0.9973317980766296,1.218779444694519,-1.6455121040344238,-0.6923962831497192,0.0585122518241405,0.5819748044013977,0.4999225735664367,0.2850273549556732,-0.1674862653017044,0.2151637077331543,0
242761,0.0085541578009724,-0.0160033237189054,1.015393614768982,3.2811996936798096,-2.767512083053589,-0.4051118195056915,0.0584706589579582,0.582220733165741,0.499563604593277,0.2966865003108978,-0.1437045782804489,0.2070593386888504,0
242901,0.006497390102595,-0.0145812602713704,1.0319740772247314,2.231940984725952,1.0887103080749512,0.1410689204931259,0.0534822382032871,0.5920025110244751,0.4976092875003814,0.5385643839836121,-0.0295708086341619,0.194597914814949,0
243071,-0.000332830066327,0.0001007139799185,0.9757509231567384,-0.8221811652183533,3.3500723838806152,1.0282549858093262,0.0517108552157878,0.601807177066803,0.5061851739883423,0.7706401944160461,-0.1558365225791931,0.3170557618141174,0
243081,-0.0015634344890713,-0.0042452216148376,0.9834943413734436,1.1112818717956543,2.261921167373657,0.9633890986442566,0.0500002019107341,0.6014706492424011,0.506406307220459,0.792127788066864,-0.1648158878087997,0.3300900757312774,0
243111,0.0085101500153541,-0.0193962268531322,0.9704128503799438,-1.1276096105575562,0.3634524941444397,0.5654347538948059,0.0496711768209934,0.6018227934837341,0.5049896240234375,0.7996319532394409,-0.1808605939149856,0.3634337186813354,0
243121,0.0010076730977743,-0.0155259994789958,0.9754168391227722,-2.8061611652374268,-1.5923144817352295,1.0748661756515503,0.0495727732777595,0.6018945574760437,0.5050233006477356,0.7763990163803101,-0.167181983590126,0.3731070160865783,0
243291,0.0043911975808441,-0.0122243640944361,1.0060322284698486,-6.104908466339111,-1.2104549407958984,9.601288911653684e-05,0.0475149303674697,0.5923094153404236,0.5021682381629944,0.1373401284217834,-0.2253240346908569,0.4869067668914795,0
243321,0.0056942109949886,0.0011269127717241,0.996515691280365,-6.644537925720215,-0.5742788314819336,0.0006281445967033,0.0473938956856727,0.591011643409729,0.5016456842422485,-0.0525905676186084,-0.1931733787059784,0.4914096295833587,0
243331,0.0034129570703953,-0.0031671070028096,1.0105552673339844,-6.343344688415527,0.3046751916408539,0.6215821504592896,0.0475349426269531,0.5902985334396362,0.4992454051971435,-0.1102082356810569,-0.1941729038953781,0.495907574892044,0
243481,0.0058132042177021,-0.0051643308252096,1.017175555229187,-1.2428845167160034,-0.3731199502944946,0.0182395242154598,0.0498353317379951,0.5828447937965393,0.4990046918392181,-0.4258729517459869,-0.136974886059761,0.5051509141921997,0
243511,0.0122595801949501,-0.0069139241240918,1.0271953344345093,-0.641174852848053,-1.3171614408493042,0.247793048620224,0.0499282069504261,0.5824539065361023,0.5003003478050232,-0.434879869222641,-0.1200391575694084,0.5149915814399719,0
243561,0.0057694944553077,-0.0115410322323441,1.0043485164642334,-0.7781738042831421,-2.5441911220550537,-0.1123304739594459,0.0545062199234962,0.5822742581367493,0.4984994232654571,-0.4461504220962524,-0.0489549078047275,0.5038847923278809,0
243571,0.0029442270752042,-0.0102340495213866,1.016422986984253,-1.0389269590377808,-1.0531020164489746,-0.0653452798724174,0.0546275004744529,0.5821391940116882,0.4986054897308349,-0.451155424118042,-0.0370019823312759,0.5027835965156555,0
243681,0.0076508480124175,0.0029151539783924,0.9882409572601318,3.7452118396759033,-1.4419867992401123,-0.2535009086132049,0.0562659762799739,0.5870437026023865,0.500148594379425,-0.2196693569421768,0.1183511614799499,0.4524670839309692,0
243701,0.0015785683644935,-0.0065874150022864,1.0019896030426023,2.3337960243225098,-1.340267539024353,-0.3799037933349609,0.0580152235925197,0.5917741656303406,0.5004165172576904,-0.1899453997611999,0.1588603258132934,0.4431578516960144,0
243711,0.0090550053864717,0.0046565108932554,0.9878501892089844,4.410397529602051,-1.495720624923706,-0.4818507730960846,0.0581428259611129,0.5918728709220886,0.5005412697792053,-0.160417377948761,0.1665390878915786,0.4392939805984497,0
243861,0.0024964443873614,-0.0096252858638763,0.993471622467041,4.066162586212158,-0.0237383861094713,-0.5733864903450012,0.0630471780896186,0.6016058325767517,0.5095261335372925,0.450384259223938,0.3082931339740753,0.4474697411060333,0
243891,0.0149921383708715,-0.001153947552666,0.9670720100402832,2.4583425521850586,-1.1713100671768188,-0.2088420838117599,0.0607661418616771,0.6048870086669922,0.5084696412086487,0.511203944683075,0.3182223439216614,0.4359634816646576,0
243951,0.0149668855592608,-0.0157785564661026,0.9603314995765686,2.3826992511749268,-1.8882960081100464,-0.1429955512285232,0.0609734244644641,0.6093588471412659,0.5075424313545227,0.6151667833328247,0.3574163615703583,0.407694935798645,0
244051,0.0102300187572836,-0.0176058746874332,0.9779219031333924,0.9195549488067628,2.557892084121704,-0.6621719598770142,0.0537800267338752,0.6138948202133179,0.5047314763069153,0.6743903160095215,0.176130935549736,0.3290809988975525,0
244081,0.0115169240161776,-0.0151670621708035,1.0274004936218262,-0.4567830860614776,1.0475919246673584,-1.0197362899780271,0.0533880293369293,0.6142341494560242,0.5022621154785156,0.6947255730628967,0.0872243493795394,0.3056177198886871,0
244091,0.0090695573017001,-0.0048786299303174,1.01672625541687,-1.542080998420715,1.6436203718185425,-0.938239336013794,0.0533880293369293,0.6142341494560242,0.5022621154785156,0.6947255730628967,0.0872243493795394,0.3056177198886871,0
244141,0.0093268556520342,-0.0174315329641103,1.025140643119812,-2.412262201309204,4.028692245483398,-1.1124976873397827,0.0483686178922653,0.6143609881401062,0.5048773288726807,0.6061157584190369,-0.0071845771744847,0.2691884934902191,0
244251,0.014849635772407,-0.0008862834074534,1.0035876035690308,-3.866808414459229,3.723274946212769,-0.0609084963798522,0.0391548722982406,0.6143237352371216,0.5050392746925354,0.4074116051197052,-0.4528669714927673,0.2362965643405914,0
244281,0.020580856129527,-0.0195552799850702,0.9883143901824952,-4.954025745391846,2.363056182861328,0.4594952166080475,0.0366961061954498,0.6127185821533203,0.4998405575752258,0.2672374546527862,-0.5352373123168945,0.2425797581672668,0
244291,0.0098990825936198,-0.015167792327702,0.9878215193748474,-6.861505508422852,-0.0619654431939125,0.0986914336681366,0.0366961061954498,0.6127185821533203,0.4998405575752258,0.2672374546527862,-0.5352373123168945,0.2425797581672668,0
244301,0.0031984187662601,-0.0105400811880826,1.0085656642913818,-5.627384185791016,0.8714093565940857,0.4133637845516205,0.03699192404747,0.609328031539917,0.4996437132358551,0.2197780609130859,-0.532910943031311,0.2421514838933944,0
244391,0.0188674144446849,0.0128023047000169,0.9893559813499452,-3.5596818923950195,0.5923008918762207,-0.0434267558157444,0.0359704494476318,0.6050903797149658,0.497931957244873,-0.0107743171975016,-0.4581197202205658,0.2560872435569763,0
244501,0.0057438453659415,-0.0088018206879496,1.030380368232727,-0.3684709072113037,-1.126758098602295,-0.2731436491012573,0.0374662578105926,0.5998571515083313,0.4949119985103607,-0.1874876320362091,-0.2863071858882904,0.2277754545211792,0
244501,0.0057438453659415,-0.0088018206879496,1.030380368232727,-0.3684709072113037,-1.126758098602295,-0.2731436491012573,0.0374662578105926,0.5998571515083313,0.4949119985103607,-0.1874876320362091,-0.2863071858882904,0.2277754545211792,0
244511,0.0175179503858089,-0.0091380476951599,1.0032479763031006,-2.0250048637390137,-0.5813471078872681,-0.1283800899982452,0.0374352596700191,0.599622368812561,0.4948397874832153,-0.1959088444709777,-0.2907696068286896,0.2248695790767669,0
244521,0.0101632233709096,-0.0203150790184736,1.007703423500061,-0.4060815274715423,1.1623132228851318,0.2114018648862838,0.0374092906713485,0.599390983581543,0.494787335395813,-0.2113711684942245,-0.2919458448886871,0.2248248755931854,0
244541,0.0186479184776544,-0.0072902753017842,1.0324976444244385,-1.5402861833572388,0.2549638152122497,0.1385923027992248,0.0373727083206176,0.5991014838218689,0.4914249777793884,-0.2173251360654831,-0.2823019623756408,0.2277000546455383,0
244551,0.0255705118179321,0.0011643378529697,1.0104340314865112,-0.567161500453949,-0.0772843658924102,0.2362604737281799,0.0346440710127353,0.5993525385856628,0.4910327196121216,-0.2325559705495834,-0.2654809951782226,0.2346274703741073,0
244561,-0.0021000560373067,-0.0011443126713857,1.0300579071044922,0.8224605917930603,-0.262208491563797,0.849903404712677,0.0346440710127353,0.5993525385856628,0.4910327196121216,-0.2325559705495834,-0.2654809951782226,0.2346274703741073,0
244731,0.0024308669380843,-0.0170207414776086,1.0161774158477783,-0.530933678150177,0.3843509256839752,0.6757168769836426,0.0500355027616024,0.6076984405517578,0.4939001500606537,-0.2119688242673874,0.0502421669661998,0.4120615422725677,0
244761,0.0156182935461401,0.0061714695766568,1.0032596588134766,3.2404184341430664,-4.184288501739502,0.8773953914642334,0.049091275781393,0.6133587956428528,0.4932914972305298,-0.2414474189281463,0.0591451004147529,0.4333456456661224,0
244771,0.0027814281638711,-0.0140115749090909,1.016645908355713,2.026473999023437,-2.1053919792175293,0.3303230702877044,0.0492664985358715,0.6134645342826843,0.493503212928772,-0.2222805023193359,0.0990625470876693,0.4385125339031219,0
244801,0.0048705586232244,-0.0171495359390974,1.0009894371032717,3.57395339012146,-2.111368417739868,0.3862190842628479,0.0517400801181793,0.6190264821052551,0.4955436885356903,-0.1518085747957229,0.1981104463338852,0.450833112001419,0
244931,0.0147717949002981,-0.0085563324391841,0.9755389094352722,3.85200834274292,0.3135294914245605,0.0325469151139259,0.0486148856580257,0.6327044367790222,0.5039638876914978,0.2766862213611603,0.2049235701560974,0.5085716843605042,0
244941,0.0125663531944155,-0.0080442512407898,0.9816551804542542,4.4807658195495605,0.7920248508453369,0.1324233114719391,0.0486912280321121,0.6330360174179077,0.5043897032737732,0.3130587339401245,0.211701437830925,0.5119553804397583,0
244961,0.0030193240381777,0.0008196185808628,0.9973794221878052,5.190122127532959,1.8576115369796755,0.1475419253110885,0.0461302436888217,0.6317333579063416,0.5051937699317932,0.4117045402526855,0.2114662379026413,0.5161837339401245,0
245021,0.0126624442636966,-0.0159896723926067,0.9796335101127625,2.75005316734314,2.211484909057617,0.8600527048110962,0.04309618845582,0.637557864189148,0.5042843222618103,0.6744837760925293,0.1016655042767524,0.5497127771377563,0
245031,0.0166291911154985,-0.0047882706858217,0.9698234796524048,3.319859266281128,1.9308526515960691,0.2891911566257477,0.0411777459084987,0.6391005516052246,0.5043823719024658,0.6986718773841858,0.0870081335306167,0.5537905693054199,0
245141,0.0136358421295881,-0.0010315753752365,1.0037126541137695,1.2703078985214231,-1.616295337677002,0.4477465748786926,0.0395156145095825,0.6478811502456665,0.50440913438797,0.7654815912246704,-0.1273699700832367,0.6577689051628113,0
245151,0.0052562933415174,-0.0063743367791175,1.0083798170089722,-0.3248058557510376,-0.4801811873912811,0.7875611782073975,0.039355706423521,0.6500484347343445,0.5044713616371155,0.7606274485588074,-0.1127999424934387,0.6622660160064697,0
245311,0.014520339667797,-0.0107598956674337,1.007318139076233,-2.9435386657714844,3.418593168258667,0.6586958765983582,0.0314011834561824,0.6582428216934204,0.5002423524856567,0.7359718084335327,-0.1937360167503357,0.7477312684059143,0
245331,0.0110858660191297,-0.0114410044625401,1.0089075565338137,-3.5679028034210205,3.22803807258606,0.5775871872901917,0.0290537439286708,0.6560667753219604,0.5000947117805481,0.688872218132019,-0.2161619067192077,0.7578901648521423,0
245431,0.0079863425344228,0.0047674574889242,1.0074546337127686,0.163380280137062,2.5058088302612305,-0.2390908747911453,0.0273297727108001,0.6500058770179749,0.4979631900787353,0.3532561063766479,-0.2873775362968445,0.7752780318260193,0
245501,0.0152445705607533,-0.0161228999495506,1.0207418203353882,-2.724369764328003,-1.2811174392700195,0.3910876512527466,0.0267561133950948,0.6490406394004822,0.4984423518180847,0.3137947618961334,-0.3741749823093414,0.8073439598083496,0
245521,0.0079964166507124,-0.0050047878175973,1.0068758726119995,-5.564746379852295,-2.4156768321990967,0.0925540626049041,0.026488846167922,0.6474140286445618,0.4984756708145141,0.289377748966217,-0.3619687557220459,0.8094386458396912,0
245621,0.0039234887808561,-0.0048755491152405,0.99775230884552,-2.3506052494049072,-0.0548800788819789,0.7723245024681091,0.0256176516413688,0.6361784338951111,0.5031776428222656,-0.1530632674694061,-0.2438599914312362,0.7935749292373657,0
245631,0.0166983436793088,0.0098925614729523,0.9801304936408995,-1.8554996252059937,-0.4905961155891418,0.2716601490974426,0.0256010871380567,0.6355400085449219,0.5035586357116699,-0.2008851915597915,-0.2366078794002533,0.8035444021224976,0
245691,0.0173633061349391,-0.0230436325073242,0.985456645488739,-2.018639326095581,0.5693705677986145,0.26247039437294,0.0256100259721279,0.6339278221130371,0.5017654299736023,-0.2759941816329956,-0.2699832618236542,0.8113105893135071,0
245791,0.0071676378138363,-0.0221464876085519,1.0054435729980469,-1.110998034477234,-1.4723578691482544,-0.5672316551208496,0.0256085023283958,0.6277083158493042,0.4988598823547363,-0.525337815284729,-0.1641922146081924,0.8100423216819763,0
245861,0.0201766081154346,-0.0091243013739585,1.0098934173583984,5.576390743255615,1.0036474466323853,0.5389677286148071,0.0244297850877046,0.6330217123031616,0.4989561140537262,-0.4248039722442627,-0.1204020231962204,0.8009302020072937,0
245951,0.004985162988305,-0.0103411749005317,1.0086729526519775,4.016743183135986,-2.1965255737304688,-0.8451980352401733,0.0289465170353651,0.6448683142662048,0.496207982301712,-0.3321086168289184,-0.0119373751804232,0.7581265568733215,0
246021,0.003817914519459,0.0087704202160239,0.9895811676979064,6.415825366973877,2.333753824234009,-1.4306097030639648,0.0280723981559276,0.6497523784637451,0.4917311668395996,-0.0403944551944732,0.1068711280822753,0.7016129493713379,0
246041,0.0105303963646292,-0.0229641869664192,1.0240038633346558,6.2419939041137695,1.7652355432510376,-0.7514886260032654,0.0260909516364336,0.6544111967086792,0.4934641420841217,0.1416216641664505,0.0729616656899452,0.6699820160865784,0
246141,0.006546736229211,-0.0243546832352876,1.0203590393066406,1.2106245756149292,0.2744864523410797,-1.660455584526062,0.0244018826633691,0.663604736328125,0.4971028864383697,0.523659884929657,0.1916461437940597,0.5843429565429688,0
246201,0.0174878127872943,-0.0136416777968406,0.983408510684967,1.243001937866211,2.460531949996948,-0.6780166625976562,0.0240595936775207,0.6685066223144531,0.4946726262569427,0.5465061664581299,0.0608381852507591,0.4930115044116974,0
246271,0.0024781106039881,-0.0028185392729938,1.0131686925888062,-1.371645212173462,-2.42718243598938,-0.8598960638046265,0.0225378051400184,0.6771109700202942,0.5001338720321655,0.5597813725471497,0.1430335491895675,0.4515108168125152,0
246361,0.0009783079149201,-0.0024831774644553,0.9916430115699768,3.031599998474121,0.6510867476463318,0.0957134664058685,0.019335426390171,0.6821672320365906,0.5016202330589294,0.8129997849464417,-0.0469353273510932,0.3932706713676452,0
246391,5.8021978475153446e-05,-0.0222194492816925,0.9802422523498536,-1.4963700771331787,0.1229765340685844,0.1770381331443786,0.0173521656543016,0.6842292547225952,0.5005059242248535,0.8337428569793701,-0.05821143835783,0.3934985399246216,0
246391,5.8021978475153446e-05,-0.0222194492816925,0.9802422523498536,-1.4963700771331787,0.1229765340685844,0.1770381331443786,0.017234968021512,0.6844508051872253,0.5006089210510254,0.8240262866020203,-0.0680657550692558,0.3921760618686676,0
246531,0.0077220601961016,-0.0065239174291491,0.9949683547019958,-2.312130212783813,-0.2244682163000106,-1.288773536682129,0.0106478501111269,0.685151219367981,0.4987663626670837,0.4877612888813019,-0.1911279559135437,0.3581462502479553,0
246551,0.0025681273546069,-0.010095895268023,1.0112122297286987,-3.608945846557617,-0.9692877531051636,-0.3583822250366211,0.0103419730439782,0.685201108455658,0.49905526638031,0.4355524480342865,-0.1853871345520019,0.3412448465824127,0
246601,0.0175269190222024,-0.0086426688358187,1.0024338960647583,-3.284777402877808,0.4440373182296753,-0.3052242398262024,0.0105894114822149,0.6834637522697449,0.498663991689682,0.3079104721546173,-0.1982202231884002,0.3148918449878692,0
246611,0.009441933594644,-0.0135564766824245,1.0143994092941284,-3.870474338531494,2.3420934677124023,-0.5240113735198975,0.0109266424551606,0.6817091107368469,0.4987504780292511,0.2762471139431,-0.2117207199335098,0.3086967468261719,0
246711,0.017123257741332,-0.0002679417957551,0.9952634572982788,1.6381161212921145,0.9140480756759644,-0.3612667620182037,0.0100237065926194,0.6809000968933105,0.5044724941253662,0.1259032785892486,-0.2765026390552521,0.2524878680706024,0
246821,0.0124865788966417,-3.857631963910535e-05,0.9998488426208496,1.2973825931549072,-0.45369553565979,0.525092363357544,0.0082630859687924,0.6809661984443665,0.5001752376556396,0.1017319560050964,-0.2098097205162048,0.2397796213626861,0
246881,0.0048904526047408,-0.0097728986293077,1.0088346004486084,1.1311280727386477,-2.1733553409576416,0.7763345837593079,0.0105791660025715,0.68235844373703,0.4932010471820831,0.0657709315419197,-0.1394766867160797,0.2783133387565613,0
247001,0.007040777709335,-0.0060426020063459,1.024645447731018,1.4621800184249878,-0.5164825916290283,-0.8120298385620117,0.0133609930053353,0.6878988742828369,0.4907829165458679,-0.0406686402857303,0.1643327474594116,0.270078033208847,0
247091,0.0164147317409515,-0.0008980120182968,1.004303216934204,2.1587812900543213,0.8660351634025574,-0.7210883498191833,0.0197069626301527,0.691379964351654,0.503279983997345,-0.1213762536644935,0.2533528804779053,0.2336005419492721,0
247191,0.0063763922080397,-0.0059414790011942,0.968675434589386,0.4920313954353332,3.3127427101135254,-0.3633550405502319,0.0175324995070695,0.6954179406166077,0.5025280714035034,0.1468374878168106,0.3294055759906769,0.1742384284734726,0
247251,0.0117413634434342,-0.0089582446962594,0.9899314045906068,3.830269098281861,2.166825532913208,-0.135266825556755,0.0178542397916317,0.7002882361412048,0.5067118406295776,0.2362690865993499,0.167518138885498,0.1234833970665931,0
247261,0.0222468394786119,-0.0049024200998246,0.9810715317726136,4.994093894958496,2.034311294555664,0.0818988606333732,0.0181704070419073,0.7015738487243652,0.507247269153595,0.3163112103939056,0.1214964017271995,0.1167305558919906,0
247281,0.0013798723230138,-0.0078816078603267,0.9898186326026917,0.7377077341079712,0.5324897766113281,0.0182004459202289,0.0181663129478693,0.7017298340797424,0.5075043439865112,0.3530369699001312,0.1053759977221489,0.1176225244998931,0
247421,0.0149579178541898,-0.0046684369444847,0.9950507879257202,-1.940050721168518,0.2891972362995147,-0.3557945787906647,0.0145103707909584,0.7115911841392517,0.5065571665763855,0.3905780613422394,0.0013278201222419,0.1169487461447715,0
247431,0.0227181278169155,-0.0073506771586835,0.9853711128234864,-2.5374433994293213,-0.7252132892608643,-0.5808137059211731,0.0144541077315807,0.7118357419967651,0.50359046459198,0.3737674057483673,-0.0019461327465251,0.1163446605205535,0
247441,0.0110723208636045,-0.0101065253838896,0.9940808415412904,-1.2621777057647705,0.1346785575151443,-0.2950364947319031,0.0144096575677394,0.7144098877906799,0.5032511949539185,0.3115858435630798,0.0106658861041069,0.1058063581585884,0
247541,0.0005025387508794,-0.0085815135389566,1.015316128730774,-0.3157017827033996,-0.1840661168098449,0.266211450099945,0.0138178914785385,0.7198387384414673,0.5009218454360962,0.3206493854522705,0.0168755035847425,0.1089133694767952,0
247591,0.0048572910018265,-0.0205045863986015,1.030663013458252,0.8553377389907837,1.836660623550415,-0.4477074146270752,0.0140072023496031,0.7225878238677979,0.5024366974830627,0.3089050650596618,0.0001491785078542,0.1191550567746162,0
247621,0.0107367131859064,-0.0014083550777286,1.0074437856674194,2.8569726943969727,3.956632614135742,-0.2815363109111786,0.013891601935029,0.7229711413383484,0.5027123689651489,0.3405230939388275,-0.0685605853796005,0.1146221905946731,0
247651,0.0093264514580369,-0.0227944683283567,1.0169793367385864,2.2866299152374268,-0.0866919308900833,-0.9560804963111876,0.012179423123598,0.7267379760742188,0.4979013800621032,0.4368714094161987,-0.150357961654663,0.0981646105647087,0
247711,0.0021974705159664,-0.0058672493323683,1.000180721282959,1.689944624900818,2.515697479248047,-0.5507035255432129,0.0116917667910456,0.7333038449287415,0.4920605719089508,0.5447008609771729,-0.110863946378231,0.057493433356285,0
247771,0.0050054318271577,0.0027928829658776,0.9837712049484252,4.340666770935059,1.503785490989685,-0.195392444729805,0.0105263972654938,0.7384164333343506,0.49703249335289,0.6799764037132263,-0.219166561961174,0.0265439301729202,0
247781,0.0118038905784487,-0.0114707853645086,1.0157746076583862,4.190831661224365,0.4595147371292114,0.0689601227641105,0.0109774088487029,0.7420352697372437,0.4971331059932709,0.7074663043022156,-0.2407467663288116,0.0251693967729806,0
247841,0.0162568632513284,0.0056910002604126,0.9942599534988404,0.6428102254867554,2.073575258255005,0.8751587867736816,0.0107434568926692,0.7436298727989197,0.4942918419837951,0.8643914461135864,-0.2624224424362182,0.0294613521546125,0
247931,0.0043211956508457,0.0005718249594792,1.0123754739761353,-3.459575653076172,-2.197226047515869,0.6134837865829468,0.0102283367887139,0.7429224848747253,0.4967970848083496,0.596820056438446,-0.2560905516147613,0.1277390420436859,0
247951,0.0105495452880859,-0.0182809140533208,0.9994162321090698,-4.127609729766846,-2.665874481201172,0.9626805782318116,0.0102759907022118,0.7429792284965515,0.497148334980011,0.5374712944030762,-0.1956764757633209,0.1478478610515594,0
248121,0.012348017655313,0.0014749835245311,0.9973567724227904,0.1487542986869812,-0.8283681869506836,0.1784382760524749,0.0191213972866535,0.7312058806419373,0.4980531632900238,-0.2324160635471344,0.0800374448299408,0.1375818103551864,0
248151,0.0084144920110702,-0.0068738525733351,0.9840660095214844,0.6513807773590088,-2.089155673980713,-0.328568160533905,0.0194318573921918,0.7308728694915771,0.4981605410575866,-0.2191745191812515,0.0917626544833183,0.136516660451889,0
248301,0.0045007183216512,-0.0169422328472137,1.0087450742721558,-1.144770622253418,1.3433462381362915,0.9991637468338012,0.0192499049007892,0.7381130456924438,0.5022719502449036,-0.0077557135373353,0.2096512913703918,0.1697751432657241,0
248301,0.0045007183216512,-0.0169422328472137,1.0087450742721558,-1.144770622253418,1.3433462381362915,0.9991637468338012,0.0192499049007892,0.7381130456924438,0.5022719502449036,-0.0077557135373353,0.2096512913703918,0.1697751432657241,0
248331,0.0255512818694114,-0.0008341654320247,1.000822901725769,-2.1038365364074707,-0.6538482308387756,0.5588180422782898,0.0194265767931938,0.7381402850151062,0.4987694323062897,-0.0397124402225017,0.1917846798896789,0.188255563378334,0
248341,0.02568931132555,-0.0029301848262548,0.9790379405021667,-0.4166498482227325,-1.584192991256714,0.3838216066360473,0.0162612479180097,0.7387418746948242,0.4986548721790313,-0.058212511241436,0.2133924961090088,0.1947827488183975,0
248431,0.0151633080095052,-0.0093635786324739,1.0211303234100342,2.6439032554626465,-2.6814887523651123,-0.2433766275644302,0.0194951090961694,0.7436437010765076,0.498568594455719,-0.070008747279644,0.1586480289697647,0.2100740671157837,0
248501,0.0098946224898099,-0.0036904027219861,1.0320088863372805,4.376272201538086,1.0532138347625732,-0.2233709692955017,0.0195316206663846,0.7522806525230408,0.4952622950077057,0.0342625454068183,0.2294970899820327,0.1847372055053711,0
248681,0.0189918149262666,-0.0173186678439378,1.0136511325836182,0.1739951372146606,3.352818489074707,-0.564122200012207,0.0096821524202823,0.764251708984375,0.499516487121582,0.4457083642482757,-0.0949929803609848,0.1482113152742386,0
248701,0.015517359599471,-0.015785502269864,1.0180153846740725,0.5343829989433289,1.1031955480575562,-1.0399115085601809,0.0095224790275096,0.764460563659668,0.4998140633106231,0.4513547718524933,-0.1179810017347335,0.1429886221885681,0
248851,0.011637938208878,0.0021041110157966,0.9841912388801576,3.533747911453247,2.084203720092773,-1.1781883239746094,0.0047859945334494,0.7788082361221313,0.4998529255390167,0.6034795641899109,-0.3133951425552368,0.020773459225893,0
248851,0.011637938208878,0.0021041110157966,0.9841912388801576,3.533747911453247,2.084203720092773,-1.1781883239746094,0.0031352587975561,0.7800648212432861,0.4998772442340851,0.6388894319534302,-0.3256674408912658,0.0094399619847536,0
248871,0.0089943539351224,-0.016804251819849,0.992307424545288,2.8971049785614014,0.6568864583969116,-1.7458339929580688,0.0028282734565436,0.7805348634719849,0.4999146461486816,0.6995047926902771,-0.3349788188934326,-0.0165987815707921,0
249021,0.0076190084218978,-0.0048089795745909,1.0039523839950562,-2.342802047729492,-0.6618668437004089,0.8657795190811157,0.0026517005171626,0.7844061851501465,0.5075648427009583,0.7810240983963013,-0.2588250935077667,-0.0064196679741144,0
249041,0.0118685327470302,-0.0010061481734737,0.9925327301025392,-3.263784170150757,-3.164055347442627,0.72560054063797,0.0025698947720229,0.7844648361206055,0.5083391666412354,0.7326714992523193,-0.2134964615106582,0.0122669450938701,0
249061,0.0220623649656772,-0.0048199547454714,0.9817734360694884,-0.8901155591011047,-2.866180896759033,0.4440548121929168,0.0024592981208115,0.7846207022666931,0.5037844777107239,0.7009752988815308,-0.1573127061128616,0.0268104337155818,0
249111,0.0043882150202989,-0.0135791087523102,1.005683422088623,-3.611929893493652,-0.390263170003891,0.8440555334091187,0.0073720254004001,0.7843466997146606,0.5010051727294922,0.5460667610168457,-0.1282501369714737,0.058981254696846,0
249221,0.014262780547142,-0.0092284968122839,1.016739845275879,-4.093873500823975,0.369400143623352,0.5442976951599121,0.0095284329727292,0.7750107049942017,0.4953170120716095,0.0243383590131998,0.103792130947113,0.1297030448913574,0
249231,0.0160454381257295,-0.004118581302464,1.0229175090789795,-3.046323776245117,0.3462745547294616,0.7743579745292664,0.0096031641587615,0.770744800567627,0.4923641383647918,-0.0354840494692325,0.1168306171894073,0.1438042670488357,0
249291,0.0101503441110253,-0.0009192057186737,1.0206881761550903,-3.3093185424804688,-1.3949100971221924,1.0607483386993408,0.0099195828661322,0.769321858882904,0.4941965639591217,-0.2268405556678772,0.1231147795915603,0.2195889949798584,0
249391,0.0084330290555953,-0.0163162387907505,0.9999208450317384,0.1036827936768531,-2.7671709060668945,0.868059515953064,0.0104120271280407,0.7667851448059082,0.4964603185653686,-0.1852783411741256,0.0880422443151474,0.3323181867599487,0
249411,0.013500633649528,-0.0081641385331749,1.0105082988739014,-1.885487914085388,-1.2308614253997805,0.6213276982307434,0.0105436677113175,0.7660664916038513,0.4961117804050445,-0.2021066099405288,0.1546718329191208,0.3499472737312317,0
249411,0.013500633649528,-0.0081641385331749,1.0105082988739014,-1.885487914085388,-1.2308614253997805,0.6213276982307434,0.0105436677113175,0.7660664916038513,0.4961117804050445,-0.2021066099405288,0.1546718329191208,0.3499472737312317,0
249501,0.0026514704804867,-0.0133385779336094,1.011641502380371,0.3676371872425079,-0.0725496113300323,0.7476747632026672,0.0159707088023424,0.7713446617126465,0.4995114505290985,-0.3791602253913879,0.20268514752388,0.3789415955543518,0
249571,0.0122367329895496,0.0208202581852674,0.932075560092926,2.6656317710876465,0.837536633014679,0.8581316471099854,0.0165362246334552,0.781720757484436,0.5026062726974487,-0.2284274697303772,0.1709539294242859,0.415693998336792,0
249671,0.0086965532973408,-0.0109876850619912,0.9853856563568116,2.7341833114624023,-1.2521822452545166,0.3632612228393554,0.013470534235239,0.795054018497467,0.4990732371807098,0.2402676045894622,0.1538414657115936,0.4656907021999359,0
249731,0.0212232489138841,0.0024476568214595,1.0012000799179075,3.1156344413757324,-1.6858805418014526,-0.0061798421666026,0.0156666729599237,0.8019111752510071,0.4932384490966797,0.3457286655902862,0.1760480999946594,0.4747873842716217,0
249781,0.0156475845724344,-4.5067801693221554e-05,1.02447772026062,3.1159374713897705,-0.9485408067703248,0.4050531387329101,0.009512604214251,0.8108011484146118,0.4935636222362518,0.4816550314426422,0.2340096831321716,0.4749114513397217,0
249891,0.0072717047296464,-0.0243900753557682,1.046823263168335,2.290879249572754,1.2401983737945557,0.5358180403709412,0.0104614216834306,0.8189822435379028,0.4939674735069275,0.8773084878921509,0.0205487459897995,0.4696954488754272,0
249911,0.0172986462712287,0.0052512362599372,1.0161584615707395,1.8370896577835083,0.1842565387487411,0.5312268733978271,0.0079543627798557,0.8186173439025879,0.4970185160636902,0.9421786665916444,3.053068940062076e-05,0.4854335784912109,0
250051,0.0134290335699915,-0.0197461675852537,1.0106021165847778,-4.677824974060059,1.863691806793213,-0.8059109449386597,0.0021351433824747,0.822214663028717,0.5007959604263306,0.604280412197113,-0.2681188881397247,0.5399176478385925,0
250061,0.0144763030111789,-0.0167261939495801,1.0096088647842407,-2.523930549621582,0.7972728610038757,-0.2339209765195846,0.0021351433824747,0.822214663028717,0.5007959604263306,0.604280412197113,-0.2681188881397247,0.5399176478385925,0
250081,0.0099633112549781,-0.0078886654227972,0.9782733917236328,-1.0205113887786863,0.0370912626385688,-0.3095060586929321,0.0022706736344844,0.8201648592948914,0.5013996958732605,0.558355987071991,-0.2742429375648498,0.5291792154312134,0
250221,0.0107907783240079,0.0045326971448957,0.970154583454132,-1.9561996459960935,1.5814639329910278,0.4051085412502289,0.0016004734206944,0.8151806592941284,0.509100079536438,0.273190438747406,-0.3390325307846069,0.5372246503829956,0
250251,0.0068945423699915,-0.0083532193675637,0.9685928225517272,-6.152225017547607,-0.3510791659355163,0.1280910670757293,0.0016009483952075,0.810757577419281,0.510116696357727,0.1556645333766937,-0.3585034012794494,0.5472569465637207,0
250251,0.0068945423699915,-0.0083532193675637,0.9685928225517272,-6.152225017547607,-0.3510791659355163,0.1280910670757293,0.0014844292309135,0.814877986907959,0.5094628930091858,0.1890899688005447,-0.354404866695404,0.5451273322105408,0
250301,0.0082328133285045,-0.0088369166478514,0.9745066165924072,-2.853799104690552,-1.8452808856964111,-1.102991223335266,0.001293825218454,0.8090398907661438,0.5105182528495789,-0.0639975443482399,-0.3147478699684143,0.5309391021728516,0
250391,0.0089455042034387,0.0050676153041422,0.9906888008117676,-3.0857863426208496,-1.5558735132217407,0.0182688105851411,-0.0003303021367173,0.8057973384857178,0.5042478442192078,-0.2581005096435547,-0.1894177049398422,0.4698973596096039,0
250461,0.0107828071340918,0.0080015202984213,1.0058091878890991,3.041595935821533,0.5802350640296936,1.7178040742874146,0.0022746725007891,0.805844247341156,0.5005704760551453,-0.3013815879821777,-0.1263900250196457,0.5127841234207153,0
250561,0.0153789380565285,-0.0126693276688456,1.0494890213012695,1.546904683113098,-4.249354362487793,0.0370428003370761,0.0107995830476284,0.8175268173217773,0.4950833916664123,-0.1275913417339325,0.0721198469400405,0.6436198949813843,0
250581,0.0104841496795415,-0.0048843510448932,1.02916157245636,2.311556577682495,-3.16095232963562,0.3850663900375366,0.0098450100049376,0.8197165131568909,0.4947750568389892,-0.0946699753403663,0.154955968260765,0.6483768820762634,0
250681,0.0044492338784039,-0.0117640318349003,1.0373705625534058,1.9791258573532104,-1.6351659297943115,0.3126192092895508,0.0139318024739623,0.8263580203056335,0.4948709607124328,0.0609249174594879,0.2527233064174652,0.6872298717498779,0
250761,0.0159878134727478,-0.008774765767157,1.0025886297225952,6.942054748535156,-1.851093888282776,-0.1912496089935302,0.0165485851466655,0.8347097039222717,0.490994244813919,0.4529083669185638,0.2720527350902557,0.7154222130775452,0
250771,-0.0020777483005076,-0.0151529991999268,0.995802402496338,2.214049816131592,-1.8625264167785645,-0.4207906424999237,0.0185774080455303,0.8380839228630066,0.4909971952438354,0.5056210160255432,0.2783218026161194,0.7162036299705505,0
250911,0.0050622872076928,-0.0092640575021505,0.9965117573738098,1.9554733037948608,3.72704029083252,0.0213331431150436,0.0176355969160795,0.849662184715271,0.5039430260658264,0.6596067547798157,0.2008149176836013,0.6713286638259888,0
251071,0.0054388539865612,-0.0085340905934572,0.9627361297607422,-4.732204437255859,2.320332288742065,-1.2821292877197266,0.0130768697708845,0.8552936911582947,0.5120345950126648,0.575977623462677,-0.0277571808546781,0.5089800953865051,0
251101,0.0058254702016711,-0.0066485889256,0.9743163585662842,-3.3784255981445312,1.7239309549331665,-1.9762251377105715,0.0135684646666049,0.854090690612793,0.5116298794746399,0.4508325755596161,-0.0961350947618484,0.4615150094032287,0
