timestamp,acc.x,acc.y,acc.z,gyro.x,gyro.y,gyro.z,stateEstimate.x,stateEstimate.y,stateEstimate.z,stabilizer.roll,stabilizer.pitch,stabilizer.yaw,groundtruth
7665,0.0174578167498111,0.0052654407918453,1.000453233718872,0.1114637106657028,-0.0553824752569198,-0.1553786247968673,0.0006607832037843,0.0007612320478074,0.0205758903175592,0.2498120814561844,1.0603421926498413,-0.01353052072227,0
7755,0.0207390002906322,0.0071488805115222,1.0000079870224,-0.0629656240344047,0.1641770154237747,-0.0059429174289107,0.0001709304342512,3.66757667507045e-05,0.0220252368599176,0.2832330167293548,1.0830618143081665,-0.0113923586905002,0
7935,0.0198387447744607,0.0068737678229808,1.001578450202942,0.0206817351281642,0.1131308525800705,-0.0109970970079302,0.0009021274163387,4.69290062028449e-05,0.0226652435958385,0.2757183909416199,1.0461632013320925,-0.0172717962414026,0
7955,0.0193771012127399,0.0053940257057547,1.000821232795715,-0.2491657733917236,0.2469385713338852,-0.0010994815966114,0.0011272337287664,4.121485471841879e-05,0.0227416846901178,0.2765672504901886,1.032607913017273,-0.0168063212186098,0
7965,0.0203406605869531,0.0053905583918094,1.002434492111206,0.0319077596068382,0.0012711599702015,-0.1977769136428833,0.0011272337287664,4.121485471841879e-05,0.0227416846901178,0.2765672504901886,1.032607913017273,-0.0168063212186098,0
8105,0.0203243382275104,0.0040663736872375,0.9993186593055724,-0.0463928580284118,0.3212897777557373,0.1540867686271667,0.0002803693932946,6.088663576520048e-05,0.0199993774294853,-0.0010696788085624,-0.0026100610848516,0.0013214071514084,0
8115,0.0209955889731645,0.0045766476541757,1.0009018182754517,0.0360482521355152,-0.2383030503988266,0.0368516780436039,0.0004728444037027,0.0002048051101155,0.0199958253651857,-0.0338442325592041,0.017654487863183,0.0024339570663869,0
8125,0.0203215721994638,0.0039395126514136,1.0016510486602783,-0.1047345846891403,0.0976100116968154,0.0654039904475212,0.0006192168802954,0.0002541187568567,0.0199949033558368,-0.0336893238127231,0.0170864947140216,0.0035570405889302,0
8275,0.020827729254961,0.0058668167330324,0.99832683801651,-0.1203763857483863,0.1306780129671096,-0.0462423264980316,0.0011558826081454,0.0006065326160751,0.0215176828205585,0.0501142516732215,0.4970151782035827,0.005776057485491,0
8275,0.020827729254961,0.0058668167330324,0.99832683801651,-0.1203763857483863,0.1306780129671096,-0.0462423264980316,0.0011558826081454,0.0006065326160751,0.0215176828205585,0.0501142516732215,0.4970151782035827,0.005776057485491,0
8295,0.0194626189768314,0.0033509447239339,0.9991804361343384,0.240816980600357,0.3433369100093841,-0.0738885328173637,0.0012950261589139,0.0002620473969727,0.0209375265985727,0.1487046778202057,0.5513491034507751,0.0044545214623212,0
8305,0.0202980320900678,0.0043024183250963,1.000131130218506,0.0169260911643505,0.2021328806877136,-0.0092129344120621,0.0014628482749685,0.0002974691160488,0.0209291502833366,0.1480604261159896,0.5499989986419678,0.004188239108771,0
8465,0.0212536286562681,0.0053208675235509,0.9980320334434508,-0.0115966778248548,-0.4049194157123565,0.0119534665718674,0.0004085296823177,0.0007481698994524,0.022017627954483,0.1467763930559158,0.8970209956169128,0.0062681059353053,0
8525,0.0217136684805154,0.0037710405886173,1.0005736351013184,0.0644417628645896,-0.0930146127939224,-0.0614780895411968,0.0014770523412153,-2.0106985175516456e-05,0.0216782689094543,0.2432070970535278,0.8604112863540649,0.0052324049174785,0
8605,0.0192078277468681,0.0044819433242082,0.9993212819099426,-0.1349681168794632,-0.1431707888841629,0.128095731139183,0.0014248326187953,0.0003711742465384,0.0200041942298412,0.2248328775167465,0.9173941612243652,0.0065727294422686,0
8625,0.0200510900467634,0.0065140901133418,1.0004748106002808,0.0764073953032493,0.5620781779289246,-0.199549913406372,0.0006373956566676,0.0012902490561828,0.021395644173026,0.1740695685148239,0.9818251132965088,0.0072699580341577,0.0
8625,0.0200510900467634,0.0065140901133418,1.0004748106002808,0.0764073953032493,0.5620781779289246,-0.199549913406372,0.0006373956566676,0.0012902490561828,0.021395644173026,0.1740695685148239,0.9818251132965088,0.0072699580341577,0
8715,0.0185558535158634,0.0062258392572402,1.0003867149353027,-0.250916451215744,0.2713451683521271,-0.0152110736817121,0.0011148913763463,0.0002365206601098,0.0217563435435295,0.2511555254459381,0.9761244654655457,0.00670205662027,0
8755,0.019985307008028,0.0052844458259642,0.999543309211731,0.1885089874267578,0.1047379747033119,0.1251195818185806,0.0011434539919719,0.0002580397122073,0.0217138994485139,0.2532268166542053,0.981133997440338,0.0060206763446331,0
8785,0.0188096463680267,0.0054627931676805,0.999392867088318,-0.2493625432252884,-0.3659182488918304,-0.0151196792721748,0.0009763741400092,0.0001992676698137,0.0217792987823486,0.2581381797790527,0.9955373406410216,0.0082415323704481,0
8905,0.0201253592967987,0.0039812652394175,0.9982182383537292,-0.13709557056427,-0.0397889837622642,-0.0724918320775032,0.0010677539976313,0.0001905855169752,0.0206483174115419,0.2629773020744324,1.0057803392410278,0.0120579851791262,0
8905,0.0201253592967987,0.0039812652394175,0.9982182383537292,-0.13709557056427,-0.0397889837622642,-0.0724918320775032,0.0011332642752677,0.0002071834169328,0.0206193160265684,0.2617859542369842,1.0046192407608032,0.0127698304131627,0
9035,0.0198611672967672,0.0047585922293365,0.997519552707672,-0.1311712861061096,-0.1547685116529464,-0.1295433640480041,0.001007565180771,0.0001831439585657,0.0206492748111486,0.2632473111152649,1.015989065170288,0.0137814860790967,0
9065,0.0210649166256189,0.0065782163292169,1.0007100105285645,0.1076145246624946,0.1839089095592498,-0.2568802535533905,0.0008924971334636,-0.0002001791435759,0.0205823145806789,0.277587890625,1.0233464241027832,0.0130318515002727,0
9175,0.0195491462945938,0.0071601551026105,1.0003159046173096,0.0285793375223875,-0.107482336461544,0.0949480533599853,-0.0002089958725264,-0.001437654485926,0.0211763270199298,0.3193681240081787,1.0618103742599487,0.0094040296971797,0
9185,0.0186389032751321,0.0068053258582949,0.9990248084068298,0.0295074749737977,-0.0593654178082942,0.1848814487457275,0.0005713644204661,0.0013634151546284,0.0212189015001058,0.2223955988883972,1.0354416370391846,0.0125833703204989,0
9265,0.0211573485285043,0.0056667434982955,0.9996095895767212,-0.0703224912285804,0.1679802685976028,-0.0613434053957462,0.0010358375729992,0.0002205907658208,0.0210999939590692,0.2670246064662933,1.02559494972229,0.0142331849783658,0
9345,0.0195181909948587,0.005854083225131,1.0004397630691528,-0.1630243360996246,-0.0188991706818342,0.1079005971550941,0.000780118338298,0.0001293696550419,0.0212767962366342,0.2705104947090149,1.0336971282958984,0.0146349817514419,0
9355,0.0212252475321292,0.0050529697909951,0.9996559023857116,0.0440137088298797,0.1543908864259719,-0.0203538760542869,0.0008262731134891,0.0001469896378694,0.0212832428514957,0.2704521715641022,1.0304741859436035,0.0144089935347437,0
9455,0.0205209031701087,0.00359852402471,0.9997504353523254,-0.0709998980164527,0.0061050616204738,0.1571757942438125,0.0008812968735583,-0.0002238005545223,0.0215537995100021,0.2868223190307617,1.0331021547317505,0.0138061298057436,0
9465,0.0182190909981727,0.004408405162394,0.9983858466148376,-0.1550794690847396,-0.088289625942707,0.0077952649444341,0.0009277006611227,-0.0002219610178144,0.0215715765953063,0.286974161863327,1.0322033166885376,0.0146272182464599,0
9505,0.020347986370325,0.004899033345282,0.9996803998947144,-0.054201029241085,0.1541389673948288,0.0064620119519531,0.000540106149856,-0.0002203395997639,0.0204644538462162,0.2886462807655334,1.0418599843978882,0.0137748355045914,0
9575,0.0192454103380441,0.0059499167837202,1.003273606300354,-0.1008338704705238,0.2691535055637359,-0.1173620820045471,0.0009480834123678,-0.0002312741999048,0.0218958407640457,0.2863274216651916,1.023544192314148,0.0154664209112524,0
9615,0.0189308151602745,0.0040721087716519,0.9970579147338868,-0.0195817742496728,0.1336488127708435,0.1264106929302215,0.0008409916772507,-0.000242914960836,0.0220840871334075,0.2832379341125488,1.027519941329956,0.0159489810466766,0
9745,0.019736886024475,0.0053939414210617,1.000967264175415,-0.004034771118313,0.0009434300591237,-0.0403356105089187,0.0006763119017705,9.068539657164364e-05,0.0210520662367343,0.273773044347763,1.015679121017456,0.0162556711584329,0
9785,0.0201446954160928,0.0052282633259892,0.9996243119239808,-0.0406600497663021,-0.0806475356221199,-0.0833996012806892,0.0006463847239501,7.863700739108026e-05,0.0222661886364221,0.2713104486465454,1.0129612684249878,0.0153982490301132,0
9785,0.0201446954160928,0.0052282633259892,0.9996243119239808,-0.0406600497663021,-0.0806475356221199,-0.0833996012806892,0.0006463847239501,7.863700739108026e-05,0.0222661886364221,0.2713104486465454,1.0129612684249878,0.0153982490301132,0
9825,0.017996797338128,0.0078408876433968,1.0026860237121582,0.0417101718485355,0.1949935853481292,0.0126501759514212,0.0006430380162782,7.899975753389299e-05,0.0218868814408779,0.2723655700683594,1.0179095268249512,0.0146915530785918,0
9835,0.0191854648292064,0.0055731544271111,1.0022573471069336,-0.3143514096736908,-0.039197452366352,0.1135556548833847,0.0006430380162782,7.899975753389299e-05,0.0218868814408779,0.2723655700683594,1.0179095268249512,0.0146915530785918,0
9915,0.0213563274592161,0.006690930109471,0.9993099570274352,-0.0320349745452404,-0.2528670132160187,-0.3277640342712402,-0.0014900845708325,-0.0005272604175843,0.0228251572698354,0.2945792078971863,1.0977399349212646,0.0125985303893685,0
9955,0.0204996168613433,0.0061325822025537,1.0022377967834473,-0.0296864639967679,0.0780123323202133,-0.0371438600122928,0.0004925610846839,5.524725929717533e-05,0.0226605851203203,0.2741325199604034,1.025621771812439,0.0118851717561483,0
9955,0.0204996168613433,0.0061325822025537,1.0022377967834473,-0.0296864639967679,0.0780123323202133,-0.0371438600122928,0.0004925610846839,5.524725929717533e-05,0.0226605851203203,0.2741325199604034,1.025621771812439,0.0118851717561483,0
9965,0.0199151337146759,0.0048874905332922,0.9992575645446776,0.0124304154887795,0.0089577632024884,0.2210526168346405,0.0004783634212799,-0.0002126229810528,0.0226997938007116,0.2829639911651611,1.0262011289596558,0.0123674692586064,0
10075,0.0196384564042091,0.0051928679458796,0.9999440908432008,0.1554585099220276,0.2631398141384125,0.0249859131872653,0.0005470845499075,-0.0001948077842826,0.0220078565180301,0.2740874886512756,1.0259073972702026,0.012552810832858,0
10095,0.020552534610033,0.0047729089856147,1.0002487897872925,-0.1316820383071899,-0.0924274027347564,-0.0813735201954841,0.0006488598883152,-0.0001896105823107,0.0219888482242822,0.272436261177063,1.0186957120895386,0.0120624806731939,0
10235,0.0068503958173096,0.0025089120026677,1.0087944269180298,0.9487935304641724,-2.068857431411743,0.7144995331764221,0.0006758902454748,8.427528518950567e-05,0.0214214604347944,0.2497982829809188,0.998046100139618,0.0162699595093727,0
10235,0.0068503958173096,0.0025089120026677,1.0087944269180298,0.9487935304641724,-2.068857431411743,0.7144995331764221,0.0006758902454748,8.427528518950567e-05,0.0214214604347944,0.2497982829809188,0.998046100139618,0.0162699595093727,0
10255,0.0161826740950346,-0.0002051940682576,0.9989575147628784,-0.0648612454533577,0.5917494297027588,0.3537083566188812,0.0005899124662391,-0.0002177569112973,0.0208159238100051,0.2679900527000427,0.9976106286048888,0.0133507652208209,0
10365,0.0125459739938378,0.0173247419297695,1.0131179094314575,-1.4885728359222412,1.2190401554107666,-1.899190902709961,0.0004067805130034,0.0005487279850058,0.0193335823714733,0.2623722553253174,0.9445863962173462,0.1013857275247573,0
10415,0.0257802084088325,-0.0092286169528961,1.073527216911316,8.17396068572998,5.340370655059815,2.870483636856079,0.0035562620032578,0.0012468731729313,0.0188946574926376,0.1636729836463928,0.7743499279022217,0.1774575561285019,0
10435,-0.0088442135602235,-0.0132656088098883,0.996203362941742,4.789969444274902,16.092924118041992,7.535689830780029,0.0060297092422842,0.0010599240195006,0.0188747607171535,0.3046265840530395,0.5404978394508362,0.2417476773262024,0
10495,0.0016189337475225,-0.0015990863321349,1.0205425024032593,-8.029031753540039,-15.007952690124512,14.98632526397705,0.0076176673173904,-0.0070036244578659,0.0197248589247465,-0.0523612312972545,0.0978097692131996,0.8658009171485901,0
10535,0.0233238879591226,-0.0114523470401763,1.0416667461395264,-7.875163555145264,-30.013765335083008,6.255077838897705,0.009678915143013,-0.0093747228384017,0.0186393670737743,-0.3630749583244324,0.749051570892334,1.3787659406661987,0
10625,-0.0058282087557017,-0.0122030610218644,1.0770790576934814,8.785808563232422,47.61561584472656,1.2579801082611084,-0.0002613725955598,-0.0033114999532699,0.0190764255821704,-1.0341856479644775,0.899997353553772,1.7582008838653564,0
10625,-0.0058282087557017,-0.0122030610218644,1.0770790576934814,8.785808563232422,47.61561584472656,1.2579801082611084,-0.0002613725955598,-0.0033114999532699,0.0190764255821704,-1.0341856479644775,0.899997353553772,1.7582008838653564,0
10655,0.006446685642004,-0.0222228243947029,1.0770257711410522,17.70878028869629,15.15953540802002,0.0411202907562255,-0.0073268576525151,0.001246846280992,0.0173083152621984,-0.5984428524971008,-0.6016117930412292,1.751165509223938,0
10665,0.0140247102826833,-0.0186907853931188,1.07429838180542,14.86734676361084,-0.0902105420827865,-0.2348701506853103,-0.0082440515980124,0.0013913878938183,0.0179227516055107,-0.4197999835014343,-0.6985695362091064,1.7498372793197632,0
10815,0.0098843751475214,0.0095525803044438,1.0002042055130005,-20.37146759033203,-14.29711627960205,-0.5604049563407898,-0.0080702528357505,-0.0037673923652619,0.0352225489914417,0.4089955687522888,-1.59938383102417,1.9123777151107788,0
10835,0.0032898981589823,0.0021096661221235,1.0112664699554443,-22.008398056030277,-15.387202262878418,-0.4868029057979584,-0.0074407700449228,-0.0039669852703809,0.0404285974800586,-0.0397251732647419,-1.3078758716583252,1.9056822061538696,0
10975,0.0065137133933603,-0.0184825491160154,0.9623009562492372,-25.3734130859375,-24.935222625732425,-1.7492635250091553,0.0047360090538859,-0.0010576059576123,0.0589462555944919,0.688830554485321,-0.4962553679943084,1.947847962379456,0
10985,0.0162389334291219,-0.0260269585996866,0.977757453918457,-26.717369079589844,-22.001197814941406,-2.408839464187622,0.0068117952905595,-0.0010991225717589,0.0614417307078838,0.2249091267585754,-0.0413415431976318,1.910401940345764,0
11035,-0.0019638389348983,-0.0013832084368914,0.9696590304374696,6.83831787109375,5.319082736968994,-1.0172502994537354,0.010612791404128,-0.0017545642331242,0.0684161707758903,-0.366480678319931,0.1887089312076568,1.830590009689331,0
11125,0.0073175076395273,-0.0086983833461999,0.9762977361679076,-14.125516891479492,-6.8387370109558105,0.6640423536300659,0.0178684219717979,-0.0020146772731095,0.0813357532024383,0.0769380778074264,1.630431890487671,1.8087379932403564,0
11185,0.0120619414374232,-0.0294523369520902,1.0177247524261477,2.6609904766082764,12.369397163391112,-0.7845550179481506,0.0205184184014797,-0.002239228459075,0.0865368172526359,-0.5527099370956421,1.1328316926956177,1.794020175933838,0
11295,0.0041903401724994,-0.012778615579009,1.024558186531067,-9.065570831298828,14.397454261779783,-1.492784857749939,0.0249535571783781,-0.0031335148960351,0.1004654914140701,-0.2688049972057342,0.9375275373458862,1.6227065324783323,0
11335,0.0132487770169973,0.0008699744939804,1.033854365348816,2.415778875350952,-1.192518949508667,-0.9938634037971495,0.0247316975146532,-0.0031629421282559,0.1026463136076927,-0.4573153555393219,0.643913745880127,1.5795056819915771,0
11335,0.0132487770169973,0.0008699744939804,1.033854365348816,2.415778875350952,-1.192518949508667,-0.9938634037971495,0.0251531098037958,-0.0032404300291091,0.1038858816027641,-0.4597066044807434,0.6179406642913818,1.5671833753585815,0
11455,0.0040172399021685,-0.00034838161082,1.0309200286865234,-3.501535177230835,3.48820161819458,-1.6304115056991575,0.0255817901343107,-0.003574383445084,0.1182834729552269,-0.1720010936260223,0.3463134467601776,1.412134289741516,0
11475,-0.0017485744319856,-0.0082275932654738,1.0511761903762815,-1.165400505065918,1.7375473976135254,-1.409273982048035,0.0251911785453557,-0.0031225725542753,0.1198092922568321,-0.2251552194356918,0.3277680575847626,1.3981401920318604,0
11545,0.0103958044201135,0.0024687191471457,1.0353405475616455,3.744653463363648,1.405900478363037,-2.004826307296753,0.027814419940114,-0.0055571813136339,0.1339534223079681,0.0864753127098083,0.0552606880664825,1.2798527479171753,0
11645,0.0044780350290238,-0.0024384523276239,1.0422143936157229,-0.3612754046916961,0.8575082421302795,-0.8945090770721436,0.029085736721754,-0.0066246311180293,0.1503178924322128,-0.1084199398756027,-0.0406243354082107,1.1279654502868652,0
11795,0.0096001727506518,-0.0149182165041565,1.0134963989257812,-0.0881849974393844,2.654839277267456,-0.7556848526000977,0.0261213239282369,-0.0101344715803861,0.1857034564018249,0.1441805511713028,-0.3372335433959961,0.9897180199623108,0
11795,0.0096001727506518,-0.0149182165041565,1.0134963989257812,-0.0881849974393844,2.654839277267456,-0.7556848526000977,0.0261213239282369,-0.0101344715803861,0.1857034564018249,0.1441805511713028,-0.3372335433959961,0.9897180199623108,0
11915,0.0021378681994974,0.0061613535508513,0.9950815439224244,-1.2381367683410645,-0.4106941223144531,-0.7977644205093384,0.0311988983303308,-0.0164269339293241,0.2182989865541458,-0.2409980148077011,-0.234528437256813,0.9819189310073853,0
11925,0.0167133342474699,-0.0135258296504616,1.0034523010253906,0.5393637418746948,0.1168548539280891,0.5527939200401306,0.0311988983303308,-0.0164269339293241,0.2182989865541458,-0.2409980148077011,-0.234528437256813,0.9819189310073853,0
12065,0.0064741885289549,-0.0155751518905162,0.99504154920578,-2.6000020503997803,2.665440082550049,0.4247296750545501,0.0307587943971157,-0.0236121173948049,0.2572710812091827,-0.4841113090515136,0.2632355690002441,1.042250156402588,0
12095,0.0033911785576492,-0.0229974407702684,1.005327582359314,-1.9623849391937256,-0.593612790107727,0.7498831152915955,0.0301730223000049,-0.0244354289025068,0.2675828337669372,-0.5931510329246521,0.2056895941495895,1.0692166090011597,0
12245,0.0178413223475217,-0.0090003320947289,1.00263512134552,-4.554440498352051,1.855196714401245,0.844942033290863,0.0285660829395055,-0.0309479106217622,0.2992432117462158,-0.6286215782165527,0.2328020483255386,1.178646206855774,0
12325,0.0053011504933238,-0.017840189859271,1.0218826532363892,6.08614444732666,0.917426824569702,1.8749340772628784,0.0279794242233037,-0.0321527794003486,0.3173784911632538,-0.7443860769271851,0.0769345313310623,1.3032251596450806,0
12325,0.0053011504933238,-0.017840189859271,1.0218826532363892,6.08614444732666,0.917426824569702,1.8749340772628784,0.0279794242233037,-0.0321527794003486,0.3173784911632538,-0.7443860769271851,0.0769345313310623,1.3032251596450806,0
12395,0.0129149239510297,-0.0139906210824847,1.0044573545455933,1.0655275583267212,1.3892673254013062,1.7674905061721802,0.02883817628026,-0.0325447283685207,0.3354794383049011,-0.5077658295631409,-0.0808872506022453,1.4291094541549685,0
12505,0.0122878588736057,-0.0286968350410461,1.018746256828308,12.35304832458496,-0.871703028678894,0.152970865368843,0.0276227034628391,-0.0182820577174425,0.3541524112224579,-0.468629240989685,-0.0463624037802219,1.528234839439392,0
12515,0.0064105670899152,-0.0341401025652885,1.0217856168746948,13.251192092895508,0.6315670609474182,-0.0993501394987106,0.0269160214811563,-0.0189345628023147,0.356510579586029,-0.3392328917980194,-0.0347315855324268,1.5339127779006958,0
12535,0.0094669349491596,-0.0184469986706972,0.9931614995002748,11.267788887023926,1.421859622001648,0.2937099635601043,0.0265082996338605,-0.0190430656075477,0.3611836433410644,-0.056118257343769,-0.0347826965153217,1.5334080457687378,0
12625,0.0128505667671561,-0.0116481706500053,1.018944501876831,2.28542160987854,-0.7689958214759827,0.4735426902770996,0.0256719142198562,-0.017682122066617,0.3855565190315246,0.3163303434848785,-0.1547650396823883,1.554688572883606,0
12675,0.0053049782291054,-0.0096698841080069,1.009010672569275,1.3344985246658323,2.0554065704345703,0.4742093086242676,0.0264258198440074,-0.0172625686973333,0.4000055193901062,0.5322837233543396,-0.1713232994079589,1.55617356300354,0
12685,0.0092891557142138,-0.0230003949254751,1.010655403137207,2.658270359039306,3.3313119411468506,0.7169798016548157,0.0264258198440074,-0.0172625686973333,0.4000055193901062,0.5322837233543396,-0.1713232994079589,1.55617356300354,0
12715,0.0125258062034845,-0.0276829749345779,1.0203988552093506,-2.3711979389190674,-2.110459089279175,-0.204342246055603,0.0271763522177934,-0.0169628541916608,0.4070809185504913,0.5330666303634644,-0.2055406719446182,1.561001896858215,0
12825,0.0120416264981031,-0.0020685971248894,1.0080517530441284,-1.2132853269577026,-0.1023738607764244,0.2982178628444671,0.03356708958745,-0.0165530890226364,0.4320520162582397,0.3941705822944641,-0.1807425916194915,1.5499852895736694,0
12845,0.0024697105400264,-0.0026177626568824,1.0085439682006836,-3.0169126987457275,-1.7666507959365845,-0.0638510361313819,0.0337266102433204,-0.0164949782192707,0.4345035552978515,0.3774288296699524,-0.1712991297245025,1.5513696670532229,0
12845,0.0024697105400264,-0.0026177626568824,1.0085439682006836,-3.0169126987457275,-1.7666507959365845,-0.0638510361313819,0.0337266102433204,-0.0164949782192707,0.4345035552978515,0.3774288296699524,-0.1712991297245025,1.5513696670532229,0
12965,0.0034753072541207,-0.0080956304445862,0.9533002972602844,0.6373432874679565,2.3738834857940674,-0.4197871088981628,0.0338649675250053,-0.0186176858842372,0.4719880521297455,0.0475325733423233,-0.1113220751285553,1.4663444757461548,0
12985,0.0075452360324561,-0.0169859156012535,0.9436408877372742,0.9076110124588012,0.7528775930404663,-0.3471842408180237,0.0340311378240585,-0.016013815999031,0.4743727445602417,0.0352126099169254,-0.1389448791742324,1.461772084236145,0
13075,0.0098239667713642,-0.0131693230941891,0.9339335560798644,-0.2273660451173782,-3.4736244678497314,-0.466333270072937,0.0437255017459392,-0.0156243219971656,0.4922117292881012,0.0070976610295474,-0.0177947729825973,1.3597368001937866,0
13125,0.0059139998629689,-0.0139830168336629,0.9449668526649476,0.752816379070282,-5.190765857696533,-1.0433589220046997,0.043800015002489,-0.0157842244952917,0.4985736906528473,0.0292599182575941,0.2865325808525085,1.3118826150894165,0
13145,0.004518830217421,-0.0143710868433117,0.9534964561462402,-0.9487621784210204,-2.361435890197754,-0.4619167149066925,0.0436549223959445,-0.0168512295931577,0.5009368062019348,0.04310829564929,0.3873357474803924,1.3022053241729736,0
13205,0.0093684503808617,-0.0088842706754803,0.9527773261070251,0.1923836022615432,2.895170927047729,-0.6141376495361328,0.0417136400938034,-0.0175149105489254,0.5117278695106506,-0.0485838949680328,0.4398878216743469,1.2760289907455444,0
13295,0.0076476237736642,-0.0011314322473481,0.964526116847992,-4.507035255432129,3.266453981399536,-0.842191219329834,0.0392130501568317,-0.0194330289959907,0.517693042755127,0.0135252149775624,0.3947914838790893,1.2060095071792605,0
13325,0.0129046812653541,0.0002113755035679,0.9705639481544496,-1.2428724765777588,3.1618130207061768,-0.2076181322336197,0.0374838896095752,-0.0212988294661045,0.5173870921134949,-0.0808097943663597,0.3205579221248626,1.1885699033737185,0
13325,0.0129046812653541,0.0002113755035679,0.9705639481544496,-1.2428724765777588,3.1618130207061768,-0.2076181322336197,0.035357266664505,-0.0198213569819927,0.5178707838058472,-0.1145882084965705,0.3057998716831207,1.186240553855896,0
13365,0.0115748299285769,-0.0063714855350553,0.9899796843528748,1.2166486978530884,3.742122650146485,-0.7065006494522095,0.0285953227430582,-0.0203728433698415,0.5198979377746582,-0.0721354484558105,0.2471036165952682,1.1566133499145508,0
13425,0.0036370349116623,-0.0100997788831591,1.0062849521636963,-2.274806022644043,3.813814640045166,-1.21509051322937,0.0235124509781599,-0.0198352951556444,0.5194187760353088,-0.1406515091657638,0.0130688026547431,1.108715295791626,0
13495,0.0104962261393666,-0.0080519802868366,1.014980435371399,1.2417281866073608,0.5856256484985352,-0.2426264286041259,0.0175602026283741,-0.0217125918716192,0.5187345147132874,-0.1309766173362732,-0.232371911406517,1.1006760597229004,0
13505,0.01228301320225,-0.0034612051676958,1.0128093957901,1.7026811838150024,0.7546960115432739,-0.6691351532936096,0.0135414022952318,-0.0219216607511043,0.5188764929771423,-0.1121218428015708,-0.2199514508247375,1.100996732711792,0
13515,0.0119233457371592,-0.0068806149065494,1.0150619745254517,-1.3246508836746216,0.0887899920344352,-0.7335996031761169,0.0114241177216172,-0.0205521713942289,0.5191185474395752,-0.1083385571837425,-0.2221266031265258,1.0911210775375366,0
13635,0.008755468763411,-0.0163280740380287,1.02039897441864,2.076507091522217,1.3242602348327637,0.4829802811145782,0.0038234037347137,-0.0218435451388359,0.5258110165596008,-0.1417380720376968,-0.6748501658439636,1.0956631898880005,0
13645,0.0094918245449662,-0.0028607773128896,1.0137920379638672,3.58821702003479,-0.091477945446968,-0.0012872745282948,0.0027242545038461,-0.0211049225181341,0.5285246968269348,-0.0958609506487846,-0.6951332092285156,1.0975521802902222,0
13675,0.0073217833414673,-0.0131136905401945,1.008009672164917,0.8533973693847656,-1.5726189613342283,-0.9455133080482484,-0.0034774953965097,-0.0216178409755229,0.5306267142295837,-0.0310138426721096,-0.6287279725074768,1.080068588256836,0
13805,0.0031962406355887,-0.0060275853611528,0.9636469483375548,0.7585253119468689,-1.4695425033569336,0.6657651662826538,-0.0134694669395685,-0.0215960443019866,0.5432964563369751,-0.0043657254427671,-0.8459302186965942,1.1152734756469729,0
13835,0.013131215237081,-0.0106956586241722,0.9676437973976136,-1.1672536134719849,-1.06913423538208,-0.1066567525267601,-0.0141574013978242,-0.0215570330619812,0.5416216850280762,-0.0167817752808332,-0.8080512881278992,1.127371311187744,0
13915,0.0097584603354334,-0.020032225176692,0.970994770526886,0.685145378112793,-1.6821082830429075,-0.5999535322189331,-0.0173765011131763,-0.0217617638409137,0.5448241829872131,0.0593475438654422,-0.7448013424873352,1.1668238639831543,0
13995,0.0047397944144904,-0.002724980469793,1.0004597902297974,0.3620160520076751,-2.526083469390869,0.441069096326828,-0.0233277324587106,-0.0214828252792358,0.5362753868103027,0.0189248323440551,-0.5475655794143677,1.2116940021514893,0
14015,0.0085795223712921,-0.0126070315018296,1.0034857988357544,-1.2672464847564695,1.6424530744552612,0.4709996283054352,-0.0234560351818799,-0.0195774510502815,0.5358391404151917,0.0171101465821266,-0.5287060737609863,1.2165091037750244,0
14105,0.0075405687093734,-0.0087574208155274,1.031267523765564,1.6175144910812378,0.781984806060791,1.120038986206055,-0.0269207451492548,-0.0211848635226488,0.531740128993988,-0.032241340726614,-0.3999831080436706,1.2814757823944092,0
14155,0.0175592005252838,-0.0020854510366916,1.0264514684677124,-1.9531075954437256,-0.0933278799057006,-0.057995643466711,-0.0272898823022842,-0.023139176890254,0.5291853547096252,0.0146373631432652,-0.403069406747818,1.3143656253814695,0
14175,0.0094656804576516,-0.0102792084217071,1.0427190065383911,-3.197911500930786,-1.1685532331466677,-0.1630445420742035,-0.0250513125211,-0.0222485363483428,0.5296679735183716,-0.0451638214290142,-0.3963459432125091,1.3156168460845947,0
14275,0.0034043053165078,-0.0124002769589424,1.028268337249756,0.1517342925071716,1.223031759262085,-0.4096587598323822,-0.0228309817612171,-0.0235687419772148,0.5309375524520874,-0.076322317123413,-0.159821942448616,1.2804065942764282,0
14345,0.0044606253504753,0.0011910339817404,0.976630926132202,-0.8948158621788025,-2.7744393348693848,-0.8141411542892456,-0.0203036349266767,-0.0208938363939523,0.5340843200683594,-0.061274018138647,-0.0587192587554454,1.2167630195617676,0
14435,0.0074162981472909,-0.0083951745182275,0.9714791774749756,-0.6759292483329773,0.1409422755241394,-1.297581672668457,-0.019150597974658,-0.0213743466883897,0.5441421270370483,0.0401489585638046,0.1072090864181518,1.1176280975341797,0
14495,0.0080760829150676,-0.0185816474258899,0.9579999446868896,1.7710851430892944,-1.7062815427780151,-1.3101712465286257,-0.0185752622783184,-0.0211086459457874,0.54742032289505,0.0150170102715492,0.1400208920240402,1.0637598037719729,0
14495,0.0080760829150676,-0.0185816474258899,0.9579999446868896,1.7710851430892944,-1.7062815427780151,-1.3101712465286257,-0.0185752622783184,-0.0211086459457874,0.54742032289505,0.0150170102715492,0.1400208920240402,1.0637598037719729,0
14635,0.0052902898751199,-0.0082945097237825,0.970350742340088,-0.8828527331352234,1.170519232749939,-0.4113408029079437,-0.0238603856414556,-0.0181689169257879,0.5494984984397888,0.0607091374695301,0.1482134461402893,0.9383219480514526,0
14655,0.0043506678193807,-0.0048477291129529,0.985377550125122,-1.2288199663162231,1.3010085821151731,-0.7409527897834778,-0.0289365351200103,-0.0203058384358882,0.5482877492904663,0.0278158150613307,0.1257832646369934,0.923224151134491,0
14675,0.0137415686622262,-0.0120111284777522,1.0046762228012085,0.0748877003788948,0.1286228150129318,-0.9034603238105774,-0.0291054602712392,-0.0202432870864868,0.5478255152702332,0.0322131365537643,0.1358580440282821,0.9090427160263062,0
14805,0.0087213665246963,-0.0073155430145561,1.0135670900344849,1.6295241117477417,3.8758840560913086,0.6129270195960999,-0.0518830567598342,-0.0177122894674539,0.5351206660270691,0.0052408003248274,-0.2974791526794433,0.8773287534713745,0
14805,0.0087213665246963,-0.0073155430145561,1.0135670900344849,1.6295241117477417,3.8758840560913086,0.6129270195960999,-0.0518830567598342,-0.0177122894674539,0.5351206660270691,0.0052408003248274,-0.2974791526794433,0.8773287534713745,0
14845,0.0087298639118671,-0.0049526640214025,1.015018105506897,2.127625703811645,1.9930860996246336,0.0004418949538376,-0.0503145977854728,-0.0129213351756334,0.533118724822998,0.0927815064787864,-0.4614731669425964,0.9082804322242736,0
14855,0.0120851192623376,0.002392363268882,1.0270836353302002,2.0467236042022705,0.7525917291641235,-0.5799336433410645,-0.0505688525736331,-0.012824741192162,0.5326430201530457,0.114377811551094,-0.4756675362586975,0.9058021306991576,0
14985,0.0055046598426997,-0.0172720830887556,1.0156017541885376,-2.3294708728790283,0.2211267948150634,-0.3101097345352173,-0.054661076515913,-0.0168174374848604,0.5362780094146729,0.2023567855358123,-0.5182649493217468,0.8635470867156982,0
15005,0.0042864233255386,-0.0062089022248983,1.0084757804870603,-2.2400472164154053,1.2876375913619995,-0.0464740619063377,-0.0549534931778907,-0.0167945958673954,0.5368927121162415,0.1493845283985138,-0.5333945155143738,0.85944664478302,0
15025,0.005468787625432,-0.0224451478570699,1.018894076347351,1.353077054023743,-1.3641387224197388,-0.6081528663635254,-0.0575375780463218,-0.0164419636130332,0.5349774360656738,0.1094149053096771,-0.5349352359771729,0.8582481145858765,0
15035,0.0139199336990714,-0.0135463215410709,1.0123341083526611,2.011830568313598,-1.726578950881958,-0.8352630138397217,-0.0576803721487522,-0.0164360627532005,0.5352170467376709,0.1237849816679954,-0.5232521891593933,0.8521880507469177,0
15045,0.0029857284389436,-0.012049451470375,1.004236936569214,1.1431554555892944,-1.736140251159668,-1.2085745334625244,-0.0610654018819332,-0.0169580355286598,0.535440981388092,0.1384230703115463,-0.4858503341674804,0.8417883515357971,0
15175,0.0084566315636038,-0.008987427689135,1.004767894744873,-2.425081729888916,0.5216642618179321,0.0421370454132556,-0.0523045994341373,-0.0148342018947005,0.5360890030860901,0.0942098498344421,-0.3854599893093109,0.7896126508712769,0
15195,0.0062731024809181,-0.032917346805334,1.0159547328948977,-1.2758309841156006,-1.3406732082366943,-0.0783834382891655,-0.0559761673212051,-0.016930267214775,0.5361440777778625,0.057029016315937,-0.3765686452388763,0.791914165019989,0
15325,0.0206488948315382,-0.0350206568837165,1.0085201263427734,0.3509623408317566,-2.543346643447876,-1.0713324546813965,-0.053530815988779,-0.0199274010956287,0.5356025099754333,0.0033675639424473,-0.1113702654838562,0.6967939734458923,0
15375,0.0069322818890213,-0.0186522044241428,0.9828121066093444,-0.1638345569372177,-1.7787092924118042,-0.0405852124094963,-0.0529427155852317,-0.0203760880976915,0.5359638929367065,0.0105994213372468,-0.0188168156892061,0.6668533086776733,0
15385,0.0072408881969749,0.0065844510681927,0.9848932027816772,-0.7270833253860474,-2.6156909465789795,-0.4594097137451172,-0.0503276549279689,-0.0200456567108631,0.5359628200531006,0.0033968894276767,-0.0066265547648072,0.6634086966514587,0
15515,0.0065587949939072,-0.0186094734817743,1.006170630455017,-0.3333003520965576,-0.1504925787448883,-0.2175903171300888,-0.0510444864630699,-0.0227198097854852,0.5361135601997375,-0.1139630079269409,0.2007908672094345,0.5933597087860107,0
15555,0.012634159065783,0.0016837965231388,0.9812434911727904,1.231445074081421,0.3092129230499267,-0.3922297656536102,-0.050688337534666,-0.0230459086596965,0.5315088033676147,-0.1336603313684463,0.1567619889974594,0.5905618071556091,0
15685,0.0042112995870411,-0.006378277670592,0.998138427734375,2.734365940093994,1.5556364059448242,-0.2008180618286132,-0.0500924251973629,-0.0162121523171663,0.533319890499115,-0.0450981631875038,0.1636629849672317,0.5322679877281189,0
15715,0.0044579720124602,-0.0084444815292954,1.0197184085845947,1.0134090185165403,0.5171595215797424,-0.0429987087845802,-0.0495628155767917,-0.0129110030829906,0.5337345004081726,-0.0278121344745159,0.1219636648893356,0.5317667722702026,0
15735,0.0072535760700702,-0.0265426430851221,1.0260330438613892,-0.0170294120907783,-0.1585535556077957,-0.775741696357727,-0.0494398847222328,-0.0096017718315124,0.534048318862915,-0.0125019783154129,0.1064310222864151,0.5311524271965027,0
15755,0.0101150358095765,-0.0114301769062876,1.0042845010757446,0.5290301442146301,1.0906071662902832,-1.0785795450210571,-0.057327888906002,-0.0135465199127793,0.534449577331543,0.0166310928761959,0.1453615576028823,0.5122164487838745,0
15855,0.0039758472703397,-0.0064915693365037,0.9824216961860656,-0.3368890285491943,2.2169711589813232,-0.516327977180481,-0.0577139072120189,0.0008775899768806,0.5344911813735962,0.1831821352243423,0.0321553163230419,0.4442128539085388,0
15875,0.0029575088992714,0.0020069933962076,0.9947336912155152,1.4389439821243286,3.5753023624420166,0.0868446081876754,-0.0623262003064155,-0.0037671574391424,0.5339445471763611,0.2121580690145492,-0.006519014481455,0.4399663507938385,0
15995,0.0073651326820254,-0.0100203640758991,0.987657368183136,0.2182875275611877,3.091513156890869,-0.9096443057060242,-0.077390931546688,0.0019337879493832,0.5358656048774719,0.2689870297908783,-0.2125957161188125,0.3801900148391723,0
16065,0.0048729660920798,-0.0083509236574172,1.0207295417785645,2.03456449508667,-0.3146872520446777,-0.4213446080684662,-0.0802811458706855,0.0021535570267587,0.531619668006897,0.4105619490146637,-0.4690621495246887,0.3604415655136108,0
16075,0.005763376597315,-0.0145666226744651,1.0146030187606812,-0.0286548174917697,-0.9178975224494934,-1.0142905712127686,-0.0802811458706855,0.0021535570267587,0.531619668006897,0.4105619490146637,-0.4690621495246887,0.3604415655136108,0
16235,0.0038376324810087,0.0008941636770032,1.0058891773223877,-5.365617275238037,-0.2579172551631927,-0.7512521743774414,-0.0854887887835502,0.000937309639994,0.5282558798789978,0.2001793980598449,-0.4304238557815552,0.2895196974277496,0
16245,0.0058548478409647,0.0017073762137442,1.0188096761703491,-1.1231968402862549,-0.8246727585792542,-0.5466389656066895,-0.0856231376528739,0.0009087200742214,0.5280894637107849,0.1464345455169677,-0.4209648370742798,0.2810938954353332,0
16335,0.0138067947700619,-0.0081322817131876,1.0138707160949707,-3.787132501602173,-1.577791452407837,-0.1762020736932754,-0.083700031042099,-0.0022559708449989,0.5271704792976379,0.1094155013561248,-0.3149840831756592,0.2889354825019836,0
16375,0.0129396449774503,0.0034373607486486,0.983674943447113,-1.876461625099182,-0.772797703742981,0.234293907880783,-0.0838690400123596,-0.0049523976631462,0.5248581171035767,-0.0273849200457334,-0.260181188583374,0.2912301123142242,0
16415,0.0082989344373345,-0.0134699586778879,1.0198978185653689,1.4143882989883425,0.9421254992485046,0.0186431929469108,-0.0837574005126953,-0.0084668854251503,0.5272074341773987,-0.0420392267405986,-0.2464663237333297,0.2813753485679626,0
16415,0.0082989344373345,-0.0134699586778879,1.0198978185653689,1.4143882989883425,0.9421254992485046,0.0186431929469108,-0.0837553068995475,-0.0086140371859073,0.5271978974342346,-0.0347628146409988,-0.2587880790233612,0.280310183763504,0
16535,0.0131307356059551,-0.0164194907993078,1.025950908660889,2.28240704536438,-2.758450984954834,-0.1463783383369445,-0.0787417069077491,-0.0064355386421084,0.5249633193016052,-0.1536130011081695,-0.0537999235093593,0.2837453782558441,0
16545,0.0058182207867503,-0.012791627086699,1.0168665647506714,2.9666860103607178,-2.670933723449707,-0.5508561134338379,-0.0729281976819038,-0.0069911172613501,0.5248971581459045,-0.1200303509831428,-0.045135274529457,0.2781949341297149,0
16585,0.007302158512175,-0.0100685097277164,1.0106933116912842,-1.1461857557296753,-1.7526081800460815,0.4523089826107025,-0.0713102743029594,-0.0040105059742927,0.529004693031311,-0.0789288729429245,0.0557335764169693,0.2749327719211578,0
16715,0.010565223172307,-0.0102287624031305,0.9817156195640564,-1.407326340675354,-1.5727615356445312,-0.117654338479042,-0.0699793919920921,0.0017231312813237,0.5337536334991455,-0.0240056999027729,0.2641785144805908,0.2814470827579498,0
16715,0.010565223172307,-0.0102287624031305,0.9817156195640564,-1.407326340675354,-1.5727615356445312,-0.117654338479042,-0.0707495883107185,-0.001174314180389,0.5339124202728271,-0.0132343582808971,0.2826768457889557,0.2782708406448364,0
16755,0.0239001866430044,0.0036093031521886,0.9634174704551696,-0.9498772025108336,1.381525993347168,0.0202326886355876,-0.0705736801028251,0.0021807292941957,0.5321374535560608,-0.0665164217352867,0.3120486140251159,0.2814724743366241,0
16875,0.0112850507721304,-0.0123514691367745,1.0019490718841553,0.4912191033363342,2.8116137981414795,0.8380119204521179,-0.0693543255329132,0.0077997441403567,0.5252840518951416,0.0879960805177688,0.1718526780605316,0.2935743331909179,0
16895,0.0065628611482679,-0.0238004513084888,1.0388246774673462,1.997955083847046,-1.1941580772399902,0.6596528887748718,-0.0718594565987587,0.0075496672652661,0.5245281457901001,0.0999768525362014,0.1512100249528885,0.3097054362297058,0
16935,-0.0025803463067859,-0.0013380153104662,1.0190675258636477,2.7389533519744877,1.1499485969543457,0.3013490736484527,-0.0719490498304367,0.0100542409345507,0.5298636555671692,0.2052689492702484,0.2042597383260727,0.3073430359363556,0
17075,0.0183037053793668,-0.0117867859080433,0.9757409691810608,-0.673409104347229,1.8613147735595703,-0.2493272274732589,-0.0816496238112449,0.0159825384616851,0.5316696763038635,0.3107861280441284,0.0056640445254743,0.3062739670276642,0
17155,0.0036821379326283,-0.0016261901473626,0.9595766067504884,-1.605235934257507,2.2285232543945312,0.5637441277503967,-0.0865813791751861,0.0190030224621295,0.5300571322441101,0.3273385167121887,-0.1491191536188125,0.3003098666667938,0
17225,0.0062422538176178,-0.0124408891424536,0.9905926585197448,1.154561996459961,0.316841572523117,-0.0996723845601081,-0.086506962776184,0.0226610712707042,0.5321716666221619,0.3228864073753357,-0.2198295593261718,0.3098353743553161,0
17245,0.0134282233193516,-0.0230010189116001,1.0013041496276855,-1.5523563623428345,0.5545749664306641,0.4231222867965698,-0.0867870971560478,0.0228668916970491,0.5319536924362183,0.3394007086753845,-0.2358210980892181,0.3079409301280975,0
17335,0.0045049414038658,-0.0109664145857095,1.0254120826721191,-0.1536973714828491,-0.7724946737289429,0.2124015986919403,-0.0940174758434295,0.0231021791696548,0.5252817869186401,0.2845257818698883,-0.2829494476318359,0.3409414291381836,0
17415,0.002568487310782,0.0009628112311474,0.9991685152053832,0.4329933822154999,-0.7563914656639099,-0.348968505859375,-0.0907283052802085,0.0241342522203922,0.5261609554290771,0.1949066519737243,-0.289828896522522,0.3772604763507843,0
17415,0.002568487310782,0.0009628112311474,0.9991685152053832,0.4329933822154999,-0.7563914656639099,-0.348968505859375,-0.0907283052802085,0.0241342522203922,0.5261609554290771,0.1949066519737243,-0.289828896522522,0.3772604763507843,0
17545,-0.0044918162748217,0.0048731490969657,1.0270618200302124,-3.312915086746216,-1.44844651222229,0.4092877507209778,-0.0920417681336402,0.0149717517197132,0.5162380933761597,0.0144732734188437,-0.1871824711561203,0.4281826019287109,0
17575,0.0137997986748814,-0.0178342908620834,1.0417897701263428,-0.8248699903488159,0.4640082418918609,0.6560954451560974,-0.0921018719673156,0.0146097531542181,0.5163898468017578,-0.0480816178023815,-0.1709854900836944,0.4409835338592529,0
17585,-0.0046792197972536,0.0032197274267673,1.0284066200256348,-1.074134111404419,0.6478856205940247,1.1190708875656128,-0.0920450836420059,0.0117259426042437,0.5162627100944519,-0.0448930338025093,-0.1810515820980072,0.4493768513202667,0
17725,0.0117368726059794,-0.0029666479676961,1.015857458114624,0.1747281700372696,-0.6037049293518066,0.2668045461177826,-0.089632511138916,0.0055554141290485,0.5118973255157471,-0.2051105350255966,-0.0421698540449142,0.5007355213165283,0
17895,0.009254234842956,0.0002980054414365,0.9695205092430116,-0.0125440200790762,-1.953197360038757,-0.1977496147155761,-0.0868811532855033,0.009681693278253,0.5208730697631836,-0.2550459802150726,0.0134861720725893,0.4698892831802368,0
17925,0.0088486326858401,-0.0033336419146507,0.9831571578979492,1.2118124961853027,0.0785437449812889,0.2574164271354675,-0.0836046412587165,0.0092381797730922,0.5179638862609863,-0.2166291922330856,0.0285955592989921,0.4640507102012634,0
17925,0.0088486326858401,-0.0033336419146507,0.9831571578979492,1.2118124961853027,0.0785437449812889,0.2574164271354675,-0.0836046412587165,0.0092381797730922,0.5179638862609863,-0.2166291922330856,0.0285955592989921,0.4640507102012634,0
17925,0.0088486326858401,-0.0033336419146507,0.9831571578979492,1.2118124961853027,0.0785437449812889,0.2574164271354675,-0.0836046412587165,0.0092381797730922,0.5179638862609863,-0.2166291922330856,0.0285955592989921,0.4640507102012634,0
18065,0.0148147009313106,-0.0172162000089883,0.9948550462722778,1.8917453289031985,0.3604452013969421,0.0446164682507514,-0.0833005383610725,0.0154259679839015,0.520087718963623,-0.0492411591112613,0.1284573823213577,0.4532590210437774,0
18105,0.0048960787244141,-0.0061074015684425,0.980493187904358,2.5646867752075195,-1.0069094896316528,0.0053581623360514,-0.0805393680930137,0.0210463628172874,0.5255430340766907,0.0512905307114124,0.1500395536422729,0.4708741903305053,0
18195,0.0103902900591492,-0.0143067818135023,0.991567611694336,3.358696937561035,-0.3673812448978424,-0.9069216251373292,-0.0744475349783897,0.029865339398384,0.5226948261260986,0.1808656454086303,0.2066504508256912,0.4413685798645019,0
18255,0.0121652027592062,-0.0041186856105923,0.9909074306488036,2.059520959854126,-1.0461345911026,-0.2344319075345993,-0.0783350840210914,0.0306402426213026,0.5224155783653259,0.3166909515857696,0.2572279572486877,0.4289125502109527,0
18295,0.0118715707212686,0.0100156925618648,0.9697946310043336,-0.4554752707481384,0.8811814785003662,0.3559140563011169,-0.0785007551312446,0.0366764217615127,0.5219822525978088,0.3312955200672149,0.2535927593708038,0.4251343309879303,0
18295,0.0118715707212686,0.0100156925618648,0.9697946310043336,-0.4554752707481384,0.8811814785003662,0.3559140563011169,-0.0784633234143257,0.0369210615754127,0.5218435525894165,0.3261627852916717,0.2422218471765518,0.429441899061203,0
18325,0.0082157300785183,-0.0067911930382251,0.9854958057403564,2.6337461471557617,1.1869773864746094,-0.4357142150402069,-0.080872043967247,0.0416091419756412,0.5213302373886108,0.3539378643035888,0.226270392537117,0.4330343306064605,0
18445,0.0060125729069113,-0.0082472367212176,1.0229120254516602,0.382618248462677,5.1360368728637695,0.1634376794099807,-0.0914590060710907,0.0470257811248302,0.5233260989189148,0.4597830772399902,0.0068370276130735,0.4754420220851898,0
18475,0.0130899176001548,-0.0200061053037643,1.009220838546753,2.0651721954345703,3.868649959564209,-0.5267679691314697,-0.0915608331561088,0.044999212026596,0.5204268097877502,0.4979639947414398,-0.0893532037734985,0.4667421877384186,0
18485,0.0115106115117669,-0.0263840928673744,0.9992402791976928,0.786685049533844,3.314887523651123,-0.5312250256538391,-0.0915608331561088,0.044999212026596,0.5204268097877502,0.4979639947414398,-0.0893532037734985,0.4667421877384186,0
18485,0.0115106115117669,-0.0263840928673744,0.9992402791976928,0.786685049533844,3.314887523651123,-0.5312250256538391,-0.0915608331561088,0.044999212026596,0.5204268097877502,0.4979639947414398,-0.0893532037734985,0.4667421877384186,0
18485,0.0115106115117669,-0.0263840928673744,0.9992402791976928,0.786685049533844,3.314887523651123,-0.5312250256538391,-0.0915608331561088,0.044999212026596,0.5204268097877502,0.4979639947414398,-0.0893532037734985,0.4667421877384186,0
18495,0.0046146283857524,-0.0226786937564611,0.9962683320045472,1.3079869747161863,1.637698769569397,0.0765952616930008,-0.0935334712266922,0.0449534282088279,0.5202957391738892,0.5187206864356995,-0.1343313008546829,0.4629514217376709,0
18655,0.0106467586010694,-0.0131963016465306,1.0166579484939575,-2.8613901138305664,1.7521716356277466,-0.3003852367401123,-0.0933850929141044,0.0377297513186931,0.5140694975852966,0.2301634550094604,-0.2788392603397369,0.4268417656421661,0
18685,-0.0044975159689784,-0.0065059792250394,1.034165382385254,-5.353209972381592,-1.5403584241867063,-0.4191820025444031,-0.0958385840058326,0.0318010076880455,0.5115593075752258,0.1196534857153892,-0.2755012810230255,0.4119341075420379,0
18695,0.0050426959060132,-0.0207526795566082,1.0314146280288696,-4.426589012145996,-0.0958247631788253,-0.354715496301651,-0.0931047424674034,0.0331086441874504,0.5113373398780823,0.0628659352660179,-0.2903092503547668,0.4079335033893585,0
18705,0.0082378899678587,-0.0113776177167892,1.005119562149048,-3.268728733062744,-0.6932590007781982,0.1972221881151199,-0.0931047424674034,0.0331086441874504,0.5113373398780823,0.0628659352660179,-0.2903092503547668,0.4079335033893585,0
18815,0.0109081994742155,0.0019578118808567,0.994994580745697,-0.203492671251297,-0.1914481520652771,-0.6425017714500427,-0.0936814695596695,0.026822030544281,0.5168994665145874,-0.1620602160692215,-0.2011224180459976,0.3902180194854736,0
18915,0.0105007365345954,0.00380359753035,0.989462435245514,-1.3244895935058594,-1.213293433189392,-0.7357155680656433,-0.0960517525672912,0.0227146241813898,0.5139949321746826,-0.2742140293121338,-0.0778796151280403,0.330363005399704,0
18925,0.0061402912251651,-0.0074274144135415,0.9815546870231628,-1.0860639810562134,-1.2829819917678833,-0.0998297333717346,-0.0960583090782165,0.0225371476262807,0.5139232873916626,-0.2881712615489959,-0.0629978030920028,0.3278199136257171,0
19025,0.0134732546284794,-0.0224557723850011,1.018454909324646,-1.949774980545044,-1.230842113494873,-0.0157002341002225,-0.0963426604866981,0.0162849705666303,0.5132717490196228,-0.4183657467365265,-0.0205598678439855,0.3037059307098388,0
19065,0.0056815585121512,-0.0068347048945724,1.019771933555603,2.1311821937561035,0.1203246489167213,0.109714575111866,-0.0947587341070175,0.0170797146856784,0.5132186412811279,-0.4485503435134887,0.0069193704985082,0.2862748205661773,0
19075,0.0086137987673282,-0.0069980234839022,1.0151498317718506,-0.3045949935913086,2.339935541152954,0.2499771863222122,-0.0966564491391182,0.0171256884932518,0.5131306052207947,-0.43105548620224,0.0008753951406106,0.2875328958034515,0
19095,0.0029202655423432,-0.0197028052061796,0.995853066444397,0.885921835899353,0.2403560131788253,-0.1019786298274993,-0.0966612175107002,0.0170111134648323,0.5131463408470154,-0.4362873435020447,-0.0206401012837886,0.2874806821346283,0
19275,0.0025951934512704,-0.0038337707519531,0.9899269342422484,3.656667947769165,-0.031404785811901,-0.5547494888305664,-0.0964900478720665,0.0273147877305746,0.5194442272186279,-0.0770301520824432,-0.0105534950271248,0.2326756119728088,0
19285,0.0022362160962074,-0.0072573251090943,0.9959004521369934,3.3594958782196045,-0.2008533477783203,0.0615518726408481,-0.0964840352535247,0.027456684038043,0.5197038650512695,-0.0435476377606391,-0.0127144921571016,0.2312799841165542,0
19435,0.0152561357244849,-0.024408932775259,0.9966161847114564,2.815373420715332,0.496023029088974,-0.3870997130870819,-0.0980638936161995,0.0369951985776424,0.5192535519599915,0.3045320510864258,-0.0884608030319213,0.1422388851642608,0
19465,0.0045908191241323,-0.0088936956599354,0.9930782914161682,2.2710890769958496,-0.015056506730616,-1.1789292097091677,-0.100483551621437,0.0393394157290458,0.5195294618606567,0.3808526694774627,-0.0669025629758834,0.1235499009490013,0
19475,0.007584074512124,-0.0124674150720238,0.988697588443756,2.049598217010498,-0.2356283515691757,-0.8796532154083252,-0.0983692705631256,0.038768246769905,0.5195168852806091,0.4088470041751861,-0.0767732933163642,0.1150637194514274,0
19675,0.0040280665270984,0.0012367806630209,0.9921059012413024,-2.422252655029297,0.3001132607460022,-0.2511211335659027,-0.1029172614216804,0.0438362434506416,0.5174034237861633,0.3944403529167175,-0.0686961188912391,0.0876849293708801,0
19715,0.005186908878386,-0.0138806318864226,1.00895357131958,-0.6484805941581726,-1.229498267173767,-0.0689960643649101,-0.1029753684997558,0.0425959825515747,0.5144771933555603,0.325182169675827,-0.0652108117938041,0.0875222608447074,0
19745,0.0109010972082614,0.0054470188915729,0.989435374736786,-0.9285011291503906,-1.6036957502365112,-0.3701258897781372,-0.1012819707393646,0.0428664870560169,0.5139442682266235,0.3075488209724426,-0.0480170771479606,0.0860355123877525,0
19745,0.0109010972082614,0.0054470188915729,0.989435374736786,-0.9285011291503906,-1.6036957502365112,-0.3701258897781372,-0.1012819707393646,0.0428664870560169,0.5139442682266235,0.3075488209724426,-0.0480170771479606,0.0860355123877525,0
19755,0.0160515196621418,-0.044320672750473,1.0228215456008911,-2.8869009017944336,0.4779217839241028,-0.0370934344828128,-0.0993734821677208,0.0430824644863605,0.5108523368835449,0.2753265798091888,-0.0400376804172992,0.0815249681472778,0
19775,0.0080192629247903,-0.0163168050348758,1.0123558044433594,-0.3620021343231201,-0.6845446228981018,0.5566987991333008,-0.099354401230812,0.0431027263402938,0.5104802250862122,0.2654182314872741,-0.0340053290128707,0.0825053825974464,0
19785,0.0010864911600947,-0.0068934150040149,1.0095964670181274,-0.9721164107322692,0.0164097901433706,0.3483903110027313,-0.0993346720933914,0.0431183166801929,0.5101182460784912,0.2608336508274078,-0.0332525931298732,0.0864517837762832,0
19795,-0.0018543682526797,0.0034826740156859,1.0176514387130735,-1.512493133544922,-1.078378200531006,0.3731862306594848,-0.0993143618106842,0.0431293696165084,0.5097637176513672,0.253494530916214,-0.0327535457909107,0.0897873118519783,0
19965,0.0067064929753541,-0.0118173444643616,1.026300311088562,-0.1223894506692886,2.823692321777344,-0.0831461250782013,-0.0998474359512329,0.0378976054489612,0.5046030282974243,-0.1067728921771049,0.0355786494910717,0.176132783293724,0
20065,0.0019523757509887,-0.0119116744026541,1.0293184518814087,-1.2973291873931885,0.2337362468242645,0.5865665674209595,-0.0993422791361808,0.0359463728964328,0.5014965534210205,-0.1588164865970611,-0.0130580505356192,0.1501495391130447,0
20075,0.0142869297415018,-0.0050540710799396,1.0342191457748413,-0.4061630070209503,0.6332606077194214,0.1915764957666397,-0.0993200466036796,0.0358738750219345,0.5016223192214966,-0.1674051135778427,-0.0067612212151288,0.1537362039089203,0
20075,0.0142869297415018,-0.0050540710799396,1.0342191457748413,-0.4061630070209503,0.6332606077194214,0.1915764957666397,-0.0992976501584053,0.0358042567968368,0.5017769932746887,-0.1686574518680572,-0.0078501105308532,0.1574347019195556,0
20075,0.0142869297415018,-0.0050540710799396,1.0342191457748413,-0.4061630070209503,0.6332606077194214,0.1915764957666397,-0.0993060693144798,0.0337582528591156,0.5019724369049072,-0.1639300137758255,0.0002817741187755,0.1610286384820938,0.0
20075,0.0142869297415018,-0.0050540710799396,1.0342191457748413,-0.4061630070209503,0.6332606077194214,0.1915764957666397,-0.0993060693144798,0.0337582528591156,0.5019724369049072,-0.1639300137758255,0.0002817741187755,0.1610286384820938,0.0
20115,0.011994345113635,-0.011879657395184,1.0103594064712524,-0.2817730605602264,0.6786267757415771,-1.2124216556549072,-0.10154639929533,0.0338777787983417,0.5028172135353088,-0.1730131655931472,0.0121894245967268,0.1466210633516311,0
20115,0.011994345113635,-0.011879657395184,1.0103594064712524,-0.2817730605602264,0.6786267757415771,-1.2124216556549072,-0.1015616282820701,0.0337926521897316,0.5031484961509705,-0.1724274754524231,0.0124866971746087,0.1369871795177459,0
20125,0.0045084804296493,-0.0112866852432489,1.0122843980789185,0.6525266766548157,2.3596694469451904,-0.9765153527259828,-0.0990101099014282,0.0360186360776424,0.50350022315979,-0.1816216707229614,-0.0195557381957769,0.1268774420022964,0
20125,0.0045084804296493,-0.0112866852432489,1.0122843980789185,0.6525266766548157,2.3596694469451904,-0.9765153527259828,-0.0989559367299079,0.0359276570379734,0.5027335286140442,-0.1766477525234222,-0.0545765310525894,0.1178035587072372,0.0
20135,0.0106090754270553,-0.0089660407975316,1.0060995817184448,0.0163250137120485,1.947142481803894,-0.202975258231163,-0.0989559367299079,0.0359276570379734,0.5027335286140442,-0.1766477525234222,-0.0545765310525894,0.1178035587072372,0
20145,0.0110260592773556,-0.0075543723069131,1.0082697868347168,0.368762195110321,1.9951810836791992,-0.3410610258579254,-0.1009664312005043,0.0360611453652381,0.5030430555343628,-0.1901028007268905,-0.0562931895256042,0.1110985875129699,0
20235,-0.0048191077075898,0.0078985281288623,1.021756887435913,-0.1537941843271255,0.4060249626636505,-0.8118808269500732,-0.1011781692504882,0.0336648151278495,0.5104855895042419,-0.1535623520612716,-0.0314318686723709,0.0500967279076576,0
20295,0.0039971154183149,-0.0111620780080556,0.9782503843307496,0.8881106972694397,1.6320942640304563,-0.3418069183826446,-0.0986957103013992,0.035784937441349,0.5136613249778748,-0.1203366816043853,-0.1076978966593742,0.0010943869128823,0
20355,0.0066433157771825,-0.0055860397405922,0.9753864407539368,1.1001482009887695,-1.500994324684143,-0.0934289544820785,-0.099674753844738,0.0372625738382339,0.5178819894790649,-0.0656954795122146,-0.0394085831940174,-0.0511863268911838,0
20475,0.0064655309543013,-0.0006033185636624,0.994841992855072,0.0479297041893005,-1.337719202041626,-0.5918591618537903,-0.0975439101457595,0.0443257577717304,0.5146802067756653,0.0238872040063142,0.03377690538764,-0.0754306018352508,0
20475,0.0064655309543013,-0.0006033185636624,0.994841992855072,0.0479297041893005,-1.337719202041626,-0.5918591618537903,-0.0975439101457595,0.0443257577717304,0.5146802067756653,0.0238872040063142,0.03377690538764,-0.0754306018352508,0
20525,-0.0047568827867507,-0.0033845093566924,0.9894404411315918,2.074829339981079,-1.49541437625885,0.8166629672050476,-0.097809612751007,0.0437825769186019,0.5097333192825317,0.1146821230649948,0.0699127987027168,-0.0498211830854415,0
20585,0.0063880253583192,-0.0224107149988412,0.9970080852508544,1.089299201965332,0.2578828334808349,1.4497244358062744,-0.0954271182417869,0.05119464173913,0.5049133896827698,0.1582177281379699,0.0855132639408111,-0.0210983175784349,0
20655,-0.0037560940254479,0.0015369623433798,1.0281509160995483,1.605793833732605,0.7288936376571655,0.7522423267364502,-0.0946421921253204,0.0521045327186584,0.5022597312927246,0.3237228095531463,0.1778335720300674,0.0103695653378963,0
20675,0.0030600195750594,0.0026014889590442,0.9969196915626526,-1.7309175729751587,-1.1410763263702393,0.3261855244636535,-0.0947737470269203,0.0520868971943855,0.5027546286582947,0.3265225291252136,0.1678441911935806,0.0248182397335767,0
20685,0.0059761176817119,-0.0012370198965072,1.0352784395217896,-0.8128438591957092,2.943324089050293,0.4559558033943176,-0.0947239473462104,0.0522530376911163,0.5024505853652954,0.3135320246219635,0.1836985945701599,0.0302952751517295,0
20875,0.0078855529427528,-0.0081135863438248,1.0128777027130127,1.171679973602295,-0.5288105010986328,-0.2362323254346847,-0.0945286899805069,0.0499655567109584,0.5064254999160767,0.2346947640180587,0.0757628455758094,-0.0013539741048589,0
21035,0.0066964300349354,-0.0079841976985335,0.9662995934486388,-0.6020632982254028,1.070509672164917,-0.4454561173915863,-0.0969746559858322,0.0413640365004539,0.5136420130729675,0.0743695348501205,-0.0196740478277206,-0.0614212602376937,0
21065,0.0156486239284276,-0.0054252026602625,0.9762582778930664,-3.426450252532959,1.8427283763885496,-1.4262481927871704,-0.0966464951634407,0.0420221239328384,0.5168032646179199,-0.000614846823737,-0.0723233669996261,-0.0994933098554611,0
21115,0.0073408647440373,-0.0067964550107717,0.9746497869491576,-1.093327522277832,-0.0039934604428708,-0.7510750889778137,-0.096580296754837,0.035887598991394,0.515216588973999,-0.0732905864715576,-0.1105646565556526,-0.1319180727005005,0
21125,0.0139364004135131,-0.0063653509132564,0.9698571562767028,-1.2156667709350586,0.3306950330734253,-1.3845503330230713,-0.0965936183929443,0.0356638953089714,0.5152493715286255,-0.0819162055850029,-0.1071799919009208,-0.1440371125936508,0
21135,0.0181751977652311,-0.0048444829881191,0.977683961391449,-1.776375651359558,-1.2885291576385498,-1.377806305885315,-0.096620462834835,0.0353618450462818,0.5124244689941406,-0.096377857029438,-0.0997223332524299,-0.1581649482250213,0
21245,0.0103911347687244,-0.0109329642727971,1.011707425117493,-2.3166582584381104,0.5416795015335083,0.1984724700450897,-0.0971959382295608,0.0289162527769804,0.5101678967475891,-0.3790288269519806,-0.0708669871091842,-0.2038801461458206,0
21435,0.0160930473357439,-0.020505940541625,1.051387906074524,3.104146718978882,-1.456261157989502,0.144609197974205,-0.0898577943444252,0.0345305278897285,0.5100744962692261,-0.378801554441452,0.0582307465374469,-0.211726427078247,0
21445,0.0075520505197346,-0.0114062745124101,1.0216362476348877,4.305645942687988,-1.3565161228179932,-0.2718138098716736,-0.0902421474456787,0.0367536582052707,0.5107908248901367,-0.3164319097995758,0.0773771330714225,-0.2116063237190246,0
21605,0.0111218793317675,-0.0052276388742029,0.9753988981246948,1.1544383764266968,-0.2610172033309936,-0.7181036472320557,-0.0882066935300827,0.0509211346507072,0.5131874680519104,0.1527124792337417,0.0919100567698478,-0.2673533856868744,0
21635,0.0057740802876651,-0.0102596404030919,0.9907190203666688,3.534836530685425,1.527837157249451,0.2482896894216537,-0.0887045115232467,0.0494896918535232,0.5131425857543945,0.1846882104873657,0.0994489192962646,-0.2716348469257355,0
21695,0.0109260268509387,-0.0018687651026993,0.9782269597053528,3.4392192363739014,0.2282408028841018,0.2099775075912475,-0.0878121703863143,0.0594949983060359,0.5121368765830994,0.3906647562980652,0.0499538145959377,-0.2778933048248291,0
21805,0.0111584365367889,-0.0173367001116275,0.9983401298522948,0.590089738368988,1.1484549045562744,0.3051955997943878,-0.0882994681596756,0.0668151825666427,0.5089941620826721,0.4976332485675812,0.1105215027928352,-0.2549433708190918,0
21825,0.0160292256623506,-0.0069529307074844,1.0085664987564087,0.7343966960906982,-0.5810567140579224,-0.2652513384819031,-0.0882161259651184,0.06756242364645,0.5097081065177917,0.5239841341972351,0.092778593301773,-0.2542649209499359,0
21825,0.0160292256623506,-0.0069529307074844,1.0085664987564087,0.7343966960906982,-0.5810567140579224,-0.2652513384819031,-0.0882161259651184,0.06756242364645,0.5097081065177917,0.5239841341972351,0.092778593301773,-0.2542649209499359,0
21935,0.0083838459104299,-0.0156071567907929,1.001161813735962,-1.7641626596450806,2.54416823387146,0.3137625753879547,-0.0885744765400886,0.0678512006998062,0.5071757435798645,0.5219506025314331,0.1118464767932891,-0.216925635933876,0
21945,0.0054106940515339,-0.0103629184886813,1.0027613639831543,-1.210901975631714,2.171649217605591,0.8037176132202148,-0.090622030198574,0.0679456442594528,0.5070527791976929,0.5030277967453003,0.1005627736449241,-0.2122142165899276,0
22005,0.0091790072619915,-0.0105283567681908,1.0107200145721436,-1.257623553276062,1.984726428985596,-0.1281598955392837,-0.0905572548508644,0.0683270990848541,0.5061557292938232,0.4550825655460357,0.0097456872463226,-0.2015769779682159,0
22105,0.0042983805760741,-0.0148121053352952,1.01179039478302,-1.2237354516983032,0.3679510056972503,0.3217498958110809,-0.0935352370142936,0.0688510537147522,0.506504237651825,0.255528837442398,-0.0443780682981014,-0.1880263239145279,0
22125,0.0077820369042456,-0.0006158785545267,0.9992091059684752,-1.2434310913085938,0.9557914137840272,0.3461530208587646,-0.0962277501821518,0.0692018866539001,0.5090326070785522,0.2417446821928024,-0.0471702590584754,-0.1797841489315033,0
22135,0.0179772861301898,-0.0115812411531806,1.0405075550079346,-2.318131685256958,1.9221153259277344,-0.0694344341754913,-0.0963326543569564,0.0691946148872375,0.5091828107833862,0.2239990234375,-0.0593200176954269,-0.180453211069107,0
22285,0.0093383938074111,-0.0062110163271427,0.9789037704467772,-2.4533793926239014,1.6799323558807373,-0.0143201658502221,-0.1024141237139701,0.0636712685227394,0.51390540599823,0.0152401234954595,-0.2741158604621887,-0.2378613501787185,0
22305,0.0134026110172271,-0.00785918161273,0.9749672412872314,-2.90277361869812,1.893657684326172,-0.5605960488319397,-0.1026107519865036,0.0635335370898246,0.5112879872322083,-0.0112628750503063,-0.2885367274284363,-0.2378380596637725,0
22305,0.0134026110172271,-0.00785918161273,0.9749672412872314,-2.90277361869812,1.893657684326172,-0.5605960488319397,-0.1055577769875526,0.0642436891794204,0.511247456073761,-0.0387366339564323,-0.2889966070652008,-0.2422008365392685,0
22475,0.0068988557904958,-0.018536489456892,1.0340474843978882,1.816544890403748,-3.492917776107788,-0.2581956684589386,-0.105302944779396,0.061061568558216,0.507129967212677,-0.2208656221628189,-0.2434398531913757,-0.2516706585884094,0
22475,0.0068988557904958,-0.018536489456892,1.0340474843978882,1.816544890403748,-3.492917776107788,-0.2581956684589386,-0.1053516566753387,0.0609757006168365,0.5071131587028503,-0.210417628288269,-0.2164017260074615,-0.2528122663497925,0
22485,-0.0019783098250627,-0.0006590028642676,1.0318135023117063,2.158261775970459,-2.8868815898895264,-0.2329304069280624,-0.1053963080048561,0.0608936138451099,0.507125735282898,-0.1936159878969192,-0.1888448148965835,-0.2539819478988647,0
22505,0.0078522972762584,-0.0146597595885396,1.0100816488265991,0.1391136646270752,-0.3331364691257477,0.4676988422870636,-0.1056346595287323,0.063756063580513,0.507171630859375,-0.1989691704511642,-0.1793627291917801,-0.2532649934291839,0
22705,-0.0009846498724073,-0.0085273431614041,1.0251333713531494,0.1753298640251159,-2.151571750640869,0.071598932147026,-0.1000318750739097,0.0714007467031478,0.5061644315719604,-0.091285653412342,-0.1140365004539489,-0.204718679189682,0
22865,0.0108391474932432,-0.0246447809040546,0.996311604976654,2.1202526092529297,-0.8094738721847534,0.5408462285995483,-0.0945221930742263,0.0762254744768142,0.5096843242645264,0.1291256248950958,0.1298123598098755,-0.2154464572668075,0
22945,0.0133806904777884,-0.0090984506532549,0.9995368123054504,0.536300539970398,-0.945221185684204,0.9191913604736328,-0.0932354182004928,0.0790867283940315,0.5087670087814331,0.273091584444046,0.2282579690217971,-0.2019599080085754,0
22955,0.0116576617583632,-0.0077029904350638,1.001390814781189,0.2586218118667602,-0.6497013568878174,0.122684970498085,-0.0937242209911346,0.0837396010756492,0.5086901783943176,0.2616378664970398,0.2413870394229889,-0.200198695063591,0
23065,0.0101239718496799,-0.0150645216926932,1.0138568878173828,0.5277698636054993,0.5801905393600464,-0.1757741421461105,-0.0909727290272712,0.0864750295877456,0.503316342830658,0.3322667777538299,0.2457828223705291,-0.1595016866922378,0
23185,0.0072308159433305,-0.0096835428848862,1.030199408531189,0.5547865629196167,3.9120030403137207,1.0452860593795776,-0.0962630733847618,0.0898235067725181,0.5009773373603821,0.3252114653587341,0.1865318566560745,-0.0975528955459594,0
23215,0.0005248507950454,-0.0003902101889252,1.0033751726150513,1.3450450897216797,2.597905397415161,0.0262743420898914,-0.0955230295658111,0.0924007892608642,0.502044141292572,0.3466299474239349,0.113396979868412,-0.0748591497540474,0
23225,0.0006241096416488,-0.0065869628451764,1.0095700025558472,1.3008882999420166,2.090829610824585,-0.3123794794082641,-0.100503884255886,0.0918243527412414,0.5020700693130493,0.3619716465473175,0.1149585843086242,-0.0738555267453193,0
23365,0.0150354290381073,-0.0104957930743694,1.003596544265747,-1.431667447090149,1.091033935546875,0.6161066293716431,-0.1019849926233291,0.0873964875936508,0.5077760219573975,0.2715709507465362,-0.1060652062296867,-0.0165700148791074,0
23385,0.0127480728551745,-0.0126907983794808,0.987509310245514,-1.059101104736328,1.2392054796218872,-0.0006746102590113,-0.1015439331531524,0.0850991383194923,0.5068791508674622,0.2546206712722778,-0.1392770707607269,-0.0183401592075824,0
23395,0.0136439772322773,-0.007326251361519,0.9954140782356262,-2.196297645568848,2.4877192974090576,0.0344987884163856,-0.1016472056508064,0.0850121974945068,0.5071343183517456,0.2335643619298935,-0.1623790115118026,-0.0190208088606596,0
23555,0.0078355111181736,-0.0117778666317462,1.0064246654510498,-2.651549816131592,-1.5445255041122437,1.0067870616912842,-0.1024762317538261,0.0757148042321205,0.5017095804214478,-0.1105321049690246,-0.2023806571960449,0.0637020319700241,0
23575,0.0198504272848367,-0.0120316790416836,1.0186371803283691,-4.423193454742432,0.4991713464260101,0.5102864503860474,-0.1024406775832176,0.0740809142589569,0.5012099146842957,-0.1876635253429412,-0.1972961723804474,0.0754639953374862,0
23635,0.0179861895740032,-0.0162811744958162,1.022689938545227,-1.8510856628417969,-0.8381767868995667,0.5229392647743225,-0.10238978266716,0.0715125203132629,0.5001369118690491,-0.3211760520935058,-0.1569823622703552,0.1304958462715149,0
23745,0.0057269483804702,-0.0049200919456779,1.0246930122375488,1.0652109384536743,-1.1606230735778809,-0.2088498473167419,-0.1031340733170509,0.0630625262856483,0.4952098429203033,-0.4576067328453064,-0.1035299971699714,0.2059313058853149,0
23765,0.0030092040542513,-0.0132823819294571,1.020156741142273,0.4998066425323486,-0.7169774174690247,0.7827924489974976,-0.103457286953926,0.0661251991987228,0.4965941905975342,-0.4629179239273071,-0.0804840624332428,0.2101949602365493,0
23775,0.0118720112368464,-0.0049565150402486,1.0464205741882324,0.4943777918815613,0.0709571614861488,0.9923616647720336,-0.1034596934914588,0.0659599378705024,0.496640682220459,-0.4580935537815094,-0.0765001773834228,0.2168170809745788,0
23955,0.0067661893554031,-0.013112380169332,0.982169508934021,2.5935628414154053,-0.1246711090207099,-0.1413478851318359,-0.098660372197628,0.0774539187550544,0.5047703981399536,-0.1726679354906082,-0.0411853976547718,0.2247122526168823,0
24065,0.0137850763276219,-0.0001987421856028,0.9737491011619568,4.029337406158447,-2.455434799194336,-0.5916382670402527,-0.0935919359326362,0.0851778015494346,0.5066348314285278,0.183430939912796,0.0390623174607753,0.1909704953432083,0
24115,0.0083129703998565,-0.0187139324843883,0.9789028763771056,2.651850700378418,-0.6544204354286194,0.6263933181762695,-0.0917964503169059,0.0897960811853408,0.5042626261711121,0.3032353818416595,0.127047449350357,0.1716611385345459,0
24125,0.0126547133550047,-0.0133872935548424,0.9910618662834167,2.597785234451294,-1.2813924551010132,0.2165759205818176,-0.0918813347816467,0.0949514508247375,0.5040208101272583,0.3271583020687103,0.1435240656137466,0.1801706552505493,0
24195,0.0044477940537035,-0.0170795656740665,1.001115798950195,3.634904384613037,-1.4354212284088137,0.158153161406517,-0.0897022783756256,0.0999334678053855,0.5051835775375366,0.5364996194839478,0.1624922752380371,0.1809201538562774,0
24295,0.0053178085945546,-0.0069195493124425,1.0093084573745728,0.5865435004234314,0.8822758197784424,0.3493018448352813,-0.0874853208661079,0.1048757582902908,0.5071602463722229,0.6475079655647278,0.2379562258720398,0.1971082091331482,0
24315,0.0082332687452435,-0.0142990835011005,0.9989855885505676,0.5877635478973389,0.1720423847436905,-0.1271668374538421,-0.0871786922216415,0.1054893881082534,0.5080282092094421,0.6731447577476501,0.239608496427536,0.1987857520580291,0
24315,0.0082332687452435,-0.0142990835011005,0.9989855885505676,0.5877635478973389,0.1720423847436905,-0.1271668374538421,-0.0871786922216415,0.1054893881082534,0.5080282092094421,0.6731447577476501,0.239608496427536,0.1987857520580291,0
24325,0.0067815352231264,-0.0163478553295135,0.9769231081008912,0.7786024212837219,0.5190069079399109,-0.0786650031805038,-0.0870817229151725,0.1056794971227645,0.5081300139427185,0.6814340353012085,0.2379396259784698,0.1980422139167785,0
24475,0.0059043723158538,6.772979395464063e-05,1.0036011934280396,-3.272336483001709,1.1411736011505127,-0.7034401893615723,-0.0837848037481308,0.1016951352357864,0.5071223378181458,0.4934820532798767,0.2396572381258011,0.1906856447458267,0
24495,0.0121485339477658,-0.0055149532854557,1.0080673694610596,-2.703181028366089,0.8200522065162659,-0.5343220233917236,-0.0867605432868003,0.1025689989328384,0.5071120858192444,0.4192033112049103,0.2324409037828445,0.1800488531589508,0
24545,0.0030751249287277,-0.0088982796296477,1.0156123638153076,-3.440256834030152,0.3579287230968475,0.3476482629776001,-0.085561528801918,0.0928089693188667,0.5015403628349304,0.2679597437381744,0.1720630973577499,0.1816688179969787,0
24555,0.0077782245352864,-0.0077582127414643,1.0045276880264282,-3.765681266784668,-0.1424839198589325,-0.0738860070705413,-0.0855557098984718,0.0926039740443229,0.5013158321380615,0.2272132784128189,0.1766153275966644,0.1793708503246307,0
24675,0.007796233985573,-0.0169936716556549,1.0113022327423096,-0.586319088935852,1.5133295059204102,-0.7501769661903381,-0.0909354761242866,0.0841192901134491,0.5074416399002075,-0.2432342320680618,0.0279465988278388,0.1368590146303177,0
24685,0.0052125481888651,-0.0108907120302319,0.9992669820785522,-0.7925800085067749,1.504777908325195,-0.6515234112739563,-0.0910251811146736,0.0838501453399658,0.5077404379844666,-0.2511451542377472,0.0122665297240018,0.1310341507196426,0
24805,0.0173859279602766,-0.0017358765471726,0.9754600524902344,-1.237746238708496,-0.2318826168775558,0.1584089994430542,-0.0922900438308715,0.0770150199532508,0.5046485066413879,-0.4603972434997558,-0.1811976432800293,0.0548315905034542,0
24865,0.0221247151494026,-0.0040950831025838,1.0070011615753174,-0.4283053576946258,1.505260705947876,0.3931085765361786,-0.0946644842624664,0.0755344182252883,0.5013388991355896,-0.5078299045562744,-0.1925981789827346,0.0303561296314001,0
25035,0.0010865443618968,-0.0118349688127636,1.0137555599212646,4.288422584533691,-4.406562805175781,0.1256979554891586,-0.0942156612873077,0.081250824034214,0.5016173720359802,-0.3028476238250732,-0.1042777225375175,0.0300791151821613,0
25065,0.003255552612245,-0.0143032455816864,1.0141465663909912,0.6960588097572327,-0.1285674422979354,-1.0265825986862185,-0.0919572860002517,0.0811257064342498,0.5023145079612732,-0.2329967021942138,-0.0565843805670738,0.0222910083830356,0
25115,0.0178913976997137,-0.0209423284977674,1.0061123371124268,3.1995062828063965,-0.3665968775749206,0.0623655244708061,-0.0921345576643943,0.08345727622509,0.5060911178588867,-0.1240295618772506,-0.047345396131277,0.0060108504258096,0
25235,0.0206945743411779,-0.0169271025806665,0.9907882213592528,1.455365538597107,-0.0869970247149467,-1.4594767093658447,-0.0886565446853637,0.0890362411737442,0.5057876110076904,0.1707303673028946,0.1394865959882736,-0.0907769203186035,0
25255,0.0124495606869459,-0.0114511689171195,0.9834942817687988,1.8464903831481931,-0.5242214202880859,-0.4785329699516296,-0.0868483558297157,0.0901642739772796,0.5058457255363464,0.1982481479644775,0.132930189371109,-0.1172317340970039,0
25365,0.0104964561760425,-0.0053623435087502,0.99107164144516,1.108085870742798,0.1881861239671707,-0.3480428755283355,-0.084668256342411,0.0962735190987587,0.5041993856430054,0.3537338376045227,0.2047497034072876,-0.2031225264072418,0
25425,0.0212404578924179,-0.0135603100061416,1.007139801979065,0.0203557349741458,1.49260413646698,-0.2586908042430877,-0.0824772268533706,0.1003827527165412,0.5056617259979248,0.3765973150730133,0.1918742358684539,-0.2312260568141937,0
25445,0.0032152398489415,-0.0031077428720891,0.9999208450317384,0.9308034181594848,-0.5320445895195007,-0.2390443831682205,-0.0823969617486,0.1005610078573226,0.5057300925254822,0.3798264563083648,0.18189238011837,-0.2325473874807357,0
25535,0.0092215929180383,-0.0063277236185967,1.0012744665145874,-0.8874563574790955,0.4338397979736328,-0.7213878035545349,-0.0818043500185012,0.1037631779909133,0.5035272240638733,0.4291642308235168,0.2060183584690094,-0.2731249928474426,0
25645,0.0150686493143439,-0.0106356218457221,0.9961267709732056,-1.8572386503219604,0.54676753282547,-0.2687921822071075,-0.0792650580406189,0.1046130359172821,0.5033336877822876,0.3157359063625335,0.1419973969459533,-0.2956721484661102,0
25645,0.0150686493143439,-0.0106356218457221,0.9961267709732056,-1.8572386503219604,0.54676753282547,-0.2687921822071075,-0.0792650580406189,0.1046130359172821,0.5033336877822876,0.3157359063625335,0.1419973969459533,-0.2956721484661102,0
25805,0.0125647392123937,-0.0151947876438498,0.9989588856697084,-0.2701013088226318,1.764378786087036,-0.4927385449409485,-0.0761343091726303,0.1002044677734375,0.5005022287368774,0.150636225938797,0.1229225173592567,-0.3420667648315429,0
25865,0.0190871804952621,-0.0102278841659426,0.994174063205719,-4.4738078117370605,-0.2136808335781097,-0.3373794555664062,-0.0785312131047248,0.0960183516144752,0.5014959573745728,0.0748144462704658,0.1182076930999755,-0.3680981695652008,0
25965,0.0120829585939645,-0.0105652352795004,1.0113810300827026,-2.869426965713501,-0.6221205592155457,-0.3325382471084595,-0.0736308172345161,0.0892797410488128,0.5025646090507507,-0.1935547739267349,0.0792700424790382,-0.4118875861167907,0
25985,0.0083705596625804,-0.0232730209827423,1.003331422805786,-2.343710660934448,-1.696943759918213,0.0636924728751182,-0.0766674578189849,0.0908249989151954,0.5026214122772217,-0.2487019747495651,0.1234111860394477,-0.4129253029823303,0
25995,-0.0034719670657068,0.0092439539730548,1.0171544551849363,-2.700471878051758,-0.9296181201934814,-0.0841309502720832,-0.0744521990418434,0.0915530994534492,0.5047629475593567,-0.2791646718978882,0.1185504421591758,-0.41493821144104,0
26125,0.0110838776454329,-0.0120680537074804,0.9830383062362672,0.7031486630439758,0.9583668112754822,-0.3126828074455261,-0.0746651887893676,0.0879486203193664,0.5039135217666626,-0.3441353738307953,0.1601763218641281,-0.4740360081195831,0
26165,0.0065391822718083,-0.0154184130951762,0.9984869360923768,-1.379392385482788,-0.9867742657661438,-1.1723731756210327,-0.0698999017477035,0.0877670720219612,0.503832221031189,-0.314578652381897,0.1336681693792343,-0.4840690195560455,0
26165,0.0065391822718083,-0.0154184130951762,0.9984869360923768,-1.379392385482788,-0.9867742657661438,-1.1723731756210327,-0.0698323398828506,0.0876679718494415,0.5027076601982117,-0.3224462866783142,0.1442603170871734,-0.4964181780815124,0
26175,0.0032670784275978,-0.0131093496456742,1.0032083988189695,0.2278443723917007,-1.0678211450576782,-1.0716673135757446,-0.0698323398828506,0.0876679718494415,0.5027076601982117,-0.3224462866783142,0.1442603170871734,-0.4964181780815124,0
26305,0.0101104183122515,-0.0119582209736108,0.988572120666504,2.988466262817383,0.2219231873750686,-0.1398016959428787,-0.0754877626895904,0.0907134562730789,0.5039393901824951,-0.2068800330162048,0.0550818555057048,-0.5768570303916931,0
26325,0.0160645823925733,-0.0201077200472354,1.0116522312164309,4.0366058349609375,-0.196191057562828,-0.9405891299247742,-0.0732084065675735,0.0921263098716735,0.5040648579597473,-0.136712372303009,0.0474196970462799,-0.5890180468559265,0
26375,0.011206760071218,0.0032644213642925,0.9928068518638612,1.164409637451172,0.2474053502082824,-0.0714974403381347,-0.0769113004207611,0.095659352838993,0.5038406252861023,-0.0701737701892852,0.014915719628334,-0.6093661785125732,0
26485,0.0220780260860919,-0.0027394662611186,0.9943662881851196,2.0789504051208496,-1.677072286605835,-0.6797071695327759,-0.0740008056163787,0.1014792323112487,0.5056895613670349,0.1849923133850097,-0.1438860595226287,-0.6612733602523804,0
26495,0.0136265279725193,-0.0138373523950576,0.9930594563484192,0.2477774620056152,-1.0238890647888184,-0.1497875601053238,-0.0763907060027122,0.1011996194720268,0.5057222247123718,0.193575844168663,-0.1223882883787155,-0.6645166277885437,0
26515,0.0163378976285457,-0.0073192724958062,1.0001729726791382,1.0547887086868286,0.6694273352622986,0.0275334361940622,-0.0764380767941474,0.1013721674680709,0.5057474970817566,0.2047573924064636,-0.1136551946401596,-0.6645897626876831,0
26645,0.0024722646921873,0.0131266135722398,0.9873459339141846,1.1027863025665283,-1.4829517602920532,-0.8313144445419312,-0.0740952938795089,0.1018214225769043,0.5072349309921265,0.3231365382671356,-0.1425088942050933,-0.6767907738685608,0
26675,0.0050483783707022,-0.0140926335006952,0.9946926236152648,-0.5664874911308289,-1.2806012630462646,-0.1646744161844253,-0.0720880776643753,0.1039707064628601,0.5073965787887573,0.3224607110023498,-0.1286781579256057,-0.6860554218292236,0
26685,0.0068621104583144,-0.0160186514258384,0.9976403713226318,0.1920639872550964,-2.172302007675171,0.097563125193119,-0.0764764919877052,0.1041373014450073,0.5018353462219238,0.3167940676212311,-0.0737744644284248,-0.6873250007629395,0
26825,0.0079518500715494,-0.0169487297534942,1.0120636224746704,-1.8278170824050903,-0.5128374099731445,0.5342599749565125,-0.0630463659763336,0.103212296962738,0.5002169609069824,0.1957137733697891,0.1236582845449447,-0.6509016752243042,0
26845,0.014206064864993,-0.0049216621555387,1.0064730644226074,-1.952255368232727,-1.925098538398743,0.9562657475471495,-0.061443742364645,0.1055719554424285,0.5001408457756042,0.1638922095298767,0.126713290810585,-0.6455404758453369,0
26945,0.0022909978870302,-0.003988963086158,0.9885076880455016,-2.3318464756011963,-0.6819647550582886,-0.1699845492839813,-0.0609009526669979,0.1011614426970481,0.5049651265144348,0.0549348928034305,0.2743538022041321,-0.6235658526420593,0
26955,0.0035319898743182,-0.0059544630348682,0.9846508502960204,-1.8484936952590945,-0.7714640498161316,-0.8674384355545044,-0.0592591315507888,0.1015589907765388,0.5040460228919983,0.0318504758179187,0.2696253359317779,-0.6243618130683899,0
27015,0.0119943274185061,-0.0080211386084556,0.9854400753974916,-0.8446398973464966,-0.3808577060699463,0.6733046770095825,-0.0577834621071815,0.099659651517868,0.5040909647941589,-0.02924938313663,0.3355833292007446,-0.6418694853782654,0
27025,0.0083870319649577,-0.0030277573969215,0.9877949357032776,-0.989694595336914,0.5485388040542603,-0.0053668543696403,-0.0597199946641922,0.0998597592115402,0.5041133761405945,-0.0387775190174579,0.3446196019649505,-0.6426365971565247,0
27165,0.0102842189371585,-0.0070283678360283,1.0117673873901367,0.882954478263855,0.5997613668441772,0.7231781482696533,-0.0625899136066436,0.0982705950736999,0.5034816265106201,-0.0857578516006469,0.2218745052814483,-0.6238738894462585,0
27185,0.0074966051615774,0.0001393106940668,1.0030618906021118,-0.5513004660606384,2.048607587814331,0.093592494726181,-0.0626429170370101,0.0981627851724624,0.5033167600631714,-0.0921828672289848,0.1863987892866134,-0.6162331104278564,0
27235,0.0085344137623906,-0.0110092023387551,1.0069297552108765,-0.7232226729393005,3.467484951019287,0.0076406244188547,-0.064530074596405,0.0982364639639854,0.5060175061225891,-0.1041374430060386,0.1100710779428482,-0.6236585378646851,0
27345,0.018524257466197,-0.0184691753238439,1.0082513093948364,0.6479007005691528,1.7055920362472534,0.4840860962867737,-0.0696254521608352,0.0999312922358512,0.5051953196525574,-0.0965041741728782,-0.0750185474753379,-0.6187289953231812,0
27365,-0.0001431852579116,-0.0117727909237146,1.0002117156982422,1.6924840211868286,0.0480069853365421,-0.224540114402771,-0.06911451369524,0.0995504111051559,0.505264937877655,-0.0646864846348762,-0.1218688860535621,-0.6161855459213257,0
27365,-0.0001431852579116,-0.0117727909237146,1.0002117156982422,1.6924840211868286,0.0480069853365421,-0.224540114402771,-0.06911451369524,0.0995504111051559,0.505264937877655,-0.0646864846348762,-0.1218688860535621,-0.6161855459213257,0
27465,0.0026453456375747,-0.0111368698999285,0.9769407510757446,1.2488378286361694,0.379225879907608,-0.8951168060302734,-0.0683793351054191,0.1027386859059333,0.5056065917015076,0.033644326031208,-0.2251853495836258,-0.631644606590271,0
27565,0.0214906297624111,-0.0081328675150871,0.9968576431274414,0.5654322504997253,0.700798511505127,-0.1455929279327392,-0.0685208812355995,0.1075785830616951,0.503480076789856,0.0662748143076896,-0.209796518087387,-0.6269453763961792,0
27585,0.0052635497413575,-0.0109550962224602,1.0036016702651978,-0.1737071573734283,1.8187737464904783,0.4759811460971832,-0.0703523904085159,0.1074438691139221,0.5029608011245728,0.0698672756552696,-0.2253118604421615,-0.6201857924461365,0
27695,0.0089616021141409,-0.0092596476897597,0.9769686460494996,-1.242573618888855,-0.1321508437395095,0.5164151787757874,-0.0691319927573204,0.1116946786642074,0.5014334917068481,0.160376101732254,-0.158131718635559,-0.6181305050849915,0
27695,0.0089616021141409,-0.0092596476897597,0.9769686460494996,-1.242573618888855,-0.1321508437395095,0.5164151787757874,-0.0673397555947303,0.1114319339394569,0.5011793971061707,0.1660121381282806,-0.1525865942239761,-0.6156190037727356,0
27725,0.0165791381150484,-0.0072130602784454,1.0009419918060305,1.5255087614059448,-2.4221363067626958,-0.1016584187746048,-0.067285306751728,0.1115613058209419,0.500902533531189,0.1810208559036255,-0.133677139878273,-0.616642951965332,0
27865,0.007215660996735,-0.0043025184422731,1.0275835990905762,-0.3404778838157654,0.6373769640922546,0.2131080776453018,-0.0632716119289398,0.1111816391348838,0.4979676902294159,0.2370532304048538,0.0844369381666183,-0.5722158551216125,0
27895,0.0007750542717985,-0.0058484519831836,1.0103634595870972,-0.4745435714721679,-2.45022964477539,-0.888615608215332,-0.0649539306759834,0.1113969385623931,0.5004655718803406,0.2074033170938491,0.163727194070816,-0.5861348509788513,0
27905,0.0161461569368839,0.0020839502103626,1.0147318840026855,-1.006706714630127,-2.523183584213257,0.018043864518404,-0.0649539306759834,0.1113969385623931,0.5004655718803406,0.2074033170938491,0.163727194070816,-0.5861348509788513,0
28045,0.0061441962607204,-0.012622907757759,1.0218926668167114,-0.5408965945243835,0.0779593884944915,0.0749407187104225,-0.0632604956626892,0.1102410331368446,0.5012674331665039,0.0625716894865036,0.1766790896654129,-0.6484872102737427,0
28055,0.0021102966275066,-0.0092022866010665,0.986806094646454,-1.0277206897735596,-0.1672181487083435,-0.4500371515750885,-0.0632412955164909,0.1102158054709434,0.5013893842697144,0.0566455908119678,0.1755634546279907,-0.6466967463493347,0
28085,0.016572656109929,-0.0059334766119718,0.98271644115448,-2.4831063747406006,-0.4389084279537201,-0.9076880812644958,-0.0634272545576095,0.1085012555122375,0.5039980411529541,0.0061944662593305,0.1755662560462951,-0.6703298091888428,0
28185,0.01467867475003,0.0003513295669108,0.9804101586341858,-0.8703140020370483,1.4027278423309326,-1.7021185159683228,-0.0628961995244026,0.1063143759965896,0.5073458552360535,-0.0556364543735981,0.0621299371123313,-0.773429811000824,0
28245,0.0115107148885726,-0.0140158869326114,1.0034124851226809,0.136904239654541,-0.9956167936325072,-0.5564630627632141,-0.0654580071568489,0.1041798964142799,0.5039389729499817,-0.0918105989694595,0.0585587173700332,-0.809384286403656,0
28355,0.0255578774958848,-0.0248076785355806,1.0303692817687988,-1.335130214691162,1.4125242233276367,-1.0870612859725952,-0.0715396925806999,0.1035713627934455,0.5075346231460571,-0.1396881192922592,-0.0177416279911994,-0.8688563704490662,0
28425,0.0192842744290828,-0.0119125908240675,0.9919784665107728,1.7909693717956543,3.71040940284729,-0.0999838560819625,-0.0721698775887489,0.1040106564760208,0.5112450122833252,-0.1279368996620178,-0.1851393580436706,-0.8888994455337524,0
28455,0.006306666880846,-0.0157257989048957,0.97988760471344,0.7681938409805298,0.3186907172203064,-0.8774160742759705,-0.071978211402893,0.1068593636155128,0.511320173740387,-0.0992558151483535,-0.1811839640140533,-0.9006800055503845,0
28515,0.0064586447551846,-0.004146690480411,0.986746311187744,2.068594217300415,1.106474995613098,0.0264078453183174,-0.0708257108926773,0.1087033227086067,0.513416051864624,-0.0697339624166488,-0.2504317462444305,-0.9243162274360656,0
28625,0.0146381827071309,-0.0262836962938308,0.9955812096595764,0.2336359918117523,0.0625146180391311,-0.2045490145683288,-0.0738084986805915,0.1123647689819336,0.5035325884819031,0.0790324732661247,-0.1889847218990326,-0.9718721508979796,0
28655,0.002533403923735,-0.0069899396039545,0.9838442206382751,0.0490093901753425,-0.0635482892394065,-0.5744608640670776,-0.0711337402462959,0.1178034394979476,0.5021321773529053,0.0380931422114372,-0.1945199221372604,-0.98272305727005,0
28665,0.0149970250204205,-0.0189617462456226,0.9799193143844604,-0.2182375639677047,0.9622807502746582,-0.2186391055583953,-0.0711332187056541,0.1179597973823547,0.5017769932746887,0.0414300858974456,-0.1955283135175705,-0.9835339784622192,0
28725,0.0118558751419186,-0.0152234602719545,1.031065583229065,3.157546281814575,-4.66785192489624,1.2734110355377195,-0.0670917704701423,0.1172138229012489,0.4994938671588897,0.1649706214666366,-0.0737997889518737,-0.9264063835144044,0
28735,-0.0035423054359853,-0.0007360595627687,1.0641450881958008,2.654073715209961,-3.688102960586548,0.943906307220459,-0.0670173689723014,0.1173389554023742,0.4991698861122131,0.1843233108520507,-0.0431034192442894,-0.916474223136902,0
28865,0.0174452774226665,-0.0109143313020467,1.049666166305542,0.3929947912693023,-0.3083904981613159,0.1393527239561081,-0.0614492334425449,0.1214761734008789,0.4923783242702484,0.267528772354126,0.1548998951911926,-0.8520368933677673,0
28875,0.0115259243175387,0.0031922708731144,1.0306581258773804,-0.9869316220283508,-0.0825469121336937,0.4448702335357666,-0.0588324591517448,0.1213729009032249,0.4923917949199676,0.2647202014923095,0.1405926793813705,-0.8468320369720459,0
28925,0.003583102254197,-0.0042744339443743,1.0193346738815308,0.704364538192749,-3.222745180130005,0.0890141502022743,-0.0604005306959152,0.1234916821122169,0.4926042556762695,0.2506703436374664,0.2121774852275848,-0.8172622323036194,0
29045,0.0123460795730352,0.0006237708730623,1.0192545652389526,-0.7189401388168335,1.2773971557617188,-0.6715222597122192,-0.0609846785664558,0.1232826337218284,0.4930246770381927,0.245130643248558,0.2690572738647461,-0.7825002074241638,0
29065,0.0142283644527196,-0.0097012994810938,1.000752091407776,-1.832748889923096,1.521007418632507,0.3649727702140808,-0.0608908459544181,0.1233667209744453,0.4918124377727508,0.2290069758892059,0.2631965577602386,-0.7884049415588379,0
29175,0.0164312329143285,-0.0129240229725837,0.9825857281684875,-1.453708529472351,2.922177314758301,1.114791989326477,-0.0632112696766853,0.1205726116895675,0.4977817237377167,0.0633490234613418,0.2558562457561493,-0.7082076668739319,0
29235,0.0091455653309822,-0.0164163988083601,1.007842779159546,-2.561396360397339,0.1735010296106338,0.8687041401863098,-0.0671626701951026,0.1212685108184814,0.5043743848800659,-0.0336724556982517,0.0964060202240943,-0.610141396522522,0
29355,0.0121902329847216,-0.0054426630958914,0.9731069207191468,-0.902834951877594,-0.2730311453342438,0.1589694023132324,-0.0699061304330825,0.1207233294844627,0.5056388974189758,-0.0142462281510233,-0.1479759365320205,-0.5338084697723389,0
29375,-0.0003089047095272,-0.015899334102869,0.949407160282135,-1.4996106624603271,1.635352373123169,0.5207430720329285,-0.0721051096916198,0.1211836189031601,0.5026246905326843,-0.0494492389261722,-0.1491596102714538,-0.5259150266647339,0
29435,0.0042463787831366,-0.010294328443706,0.9961413741111756,1.3176153898239136,0.2233095467090606,1.7898190021514893,-0.0713554546236991,0.119021400809288,0.4998419284820556,-0.0349161624908447,-0.2390215694904327,-0.4308204650878906,0
29585,0.0218053478747606,-0.0259439684450626,1.072750210762024,2.8094077110290527,-3.173250675201416,0.8409052491188049,-0.0717860460281372,0.1228634491562843,0.4882553815841675,-0.0108851110562682,-0.1110843271017074,-0.195766344666481,0
29605,0.0092041809111833,-0.0080835865810513,1.0178824663162231,0.4113741815090179,0.5398336052894592,0.8682394027709961,-0.0718679726123809,0.122944064438343,0.4880409240722656,0.0136874699965119,-0.1100148484110832,-0.1776043325662613,0
29665,-0.0008612339734099,-0.0072139385156333,1.067089319229126,-0.6253355145454407,-1.1209443807601929,0.7177537679672241,-0.0708249732851982,0.1258575618267059,0.490041971206665,-0.0163414198905229,-0.1638785749673843,-0.1071156561374664,0
29765,0.0150991082191467,-0.0136804543435573,0.9994925260543824,1.3783315420150757,1.2206162214279177,0.1459061056375503,-0.073403924703598,0.130264550447464,0.4988373816013336,0.2303925901651382,-0.1213559135794639,-0.0482872501015663,0
29795,0.0106864022091031,0.0079477401450276,0.9635789394378662,0.6676479578018188,0.7081223130226135,-0.1269690841436386,-0.0734676867723465,0.1305853724479675,0.5000893473625183,0.2255455106496811,-0.1483667939901352,-0.0495773814618587,0
29805,0.0100586079061031,0.006780398543924,0.9700284600257874,-0.5522367358207703,0.4697030782699585,-0.8039814829826355,-0.0734841227531433,0.1306826770305633,0.5005553960800171,0.2212291806936264,-0.1456669121980667,-0.057043794542551,0
29945,0.0101363053545355,-0.0101644974201917,1.0073827505111694,0.2753055095672607,-2.1780779361724854,0.4361098110675812,-0.070132702589035,0.1368751972913742,0.4983127117156982,0.253303587436676,-0.1291552633047104,-0.0745857954025268,0
29965,0.0111980708315968,-0.0044954731129109,0.9964102506637572,1.9612174034118648,-4.647293567657471,1.220145583152771,-0.070020742714405,0.137080505490303,0.4981176853179931,0.2691877782344818,-0.0765211284160614,-0.0617512315511703,0
30015,0.0140033233910799,0.0013447806704789,1.0085183382034302,-1.747994899749756,-0.1961401104927063,0.2128946185111999,-0.0690460801124572,0.1334778815507888,0.4976112842559814,0.2794863581657409,0.154369905591011,-0.037238024175167,0
30115,0.0114374691620469,-0.007537065539509,1.0333304405212402,-1.0021803379058838,-1.916126728057861,0.0188919156789779,-0.0712125971913337,0.1276116520166397,0.5015401244163513,0.1683905869722366,0.1535333544015884,-0.0028336206451058,0
30145,0.0075616012327373,-0.0105671761557459,0.9942429661750792,-2.162335157394409,2.000377893447876,0.1635977625846862,-0.0686715990304946,0.1287255138158798,0.5015241503715515,0.1405732035636901,0.1672013252973556,0.0005512844654731,0
30135,0.0053580030798912,-0.008346970193088,1.0051672458648682,-0.2590058147907257,0.1328539401292801,0.2739574909210205,-0.0686715990304946,0.1287255138158798,0.5015241503715515,0.1405732035636901,0.1672013252973556,0.0005512844654731,0
30155,0.0117315985262393,-0.004803767427802,0.994803547859192,-1.7407556772232056,2.3939528465271,0.0131704099476337,-0.0709624961018562,0.1293713152408599,0.5018133521080017,0.1170756891369819,0.1556979566812515,0.0026883564423769,0
30285,0.0141840791329741,-0.0015942595200613,0.9941598773002625,-1.9684934616088867,0.9280166029930116,0.4958459436893463,-0.0706671699881553,0.1250123977661132,0.5024750232696533,-0.0487301126122474,0.0798953548073768,0.0178434886038303,0
30295,0.0054323216900229,-0.0133765116333961,0.9936861991882324,-1.1186331510543823,1.2710694074630735,0.5302270650863647,-0.0706786885857582,0.1248881295323371,0.5024959444999695,-0.0614850744605064,0.0679288133978843,0.0220480449497699,0
30315,0.0064184651710093,0.0009131776168942,0.9755032658576964,-2.297091007232666,0.9220914244651794,0.0828496664762497,-0.0707054510712623,0.1246403306722641,0.5022640228271484,-0.1076938137412071,0.0628266930580139,0.0293313525617122,0
30325,0.0061789108440279,0.0005828930297866,0.9796971082687378,-2.3031985759735107,-0.7796880006790161,0.4944515526294708,-0.0737321525812149,0.1254564523696899,0.5022026300430298,-0.1383749395608902,0.0828526392579078,0.0365680381655693,0
30475,0.0046316138468682,-0.0116832936182618,1.000278115272522,0.2696813344955444,-1.2219537496566772,1.2629772424697876,-0.0735887214541435,0.1247542724013328,0.500543475151062,-0.1731113195419311,-0.0067808437161147,0.1727892309427261,0
30485,0.0068890457041561,-0.024272259324789,1.0113364458084106,0.0301542486995458,0.0222849156707525,0.89052414894104,-0.073695383965969,0.1246375814080238,0.5005660653114319,-0.1705411970615387,0.0010560419177636,0.1926671117544174,0
30585,0.0079663386568427,0.0001073116945917,1.0032507181167605,0.2547476589679718,-0.4049547016620636,0.9206051230430604,-0.0773178189992904,0.1243766769766807,0.4996432662010193,-0.1695009469985962,-0.0277470406144857,0.2649734616279602,0
30605,0.0080063780769705,-0.0089646140113472,1.002631425857544,0.5772638320922852,-0.1145140454173088,0.7970431447029114,-0.0775021761655807,0.1243269816040992,0.4995895326137543,-0.1710902601480484,-0.0272719655185937,0.2762480676174164,0
30655,0.0109340716153383,-0.0086821466684341,1.014492750167847,2.0792670249938965,1.5715121030807495,1.2695791721343994,-0.0803875476121902,0.1274879574775695,0.4971505999565124,-0.1319315731525421,-0.1027119532227516,0.3178108632564544,0
30705,0.011570343747735,0.0004692931834142,1.0313925743103027,3.216652631759644,-1.7578049898147583,0.7372229099273682,-0.0793602690100669,0.1333681941032409,0.4936622679233551,-0.0013985299738124,-0.1440324038267135,0.3693991899490356,0
30775,0.0044269473291933,-0.0042335912585258,1.0248887538909912,2.425395965576172,-1.493778109550476,1.1053167581558228,-0.0795346796512603,0.1385510116815567,0.4960610568523407,0.0907059982419014,-0.1215170994400978,0.4662652313709259,0
30775,0.0044269473291933,-0.0042335912585258,1.0248887538909912,2.425395965576172,-1.493778109550476,1.1053167581558228,-0.0795346796512603,0.1385510116815567,0.4960610568523407,0.0907059982419014,-0.1215170994400978,0.4662652313709259,0
30785,0.0054166261106729,-0.0032534592319279,1.0072084665298462,4.074365615844727,-1.2161140441894531,0.2114521414041519,-0.0795897841453552,0.1387016624212265,0.4970074892044067,0.125290498137474,-0.1095909252762794,0.4673642516136169,0
30925,0.0055175386369228,-0.0202058721333742,1.005225419998169,2.713701009750366,-0.8850054740905762,0.40849569439888,-0.0828710198402404,0.1544213145971298,0.4928345680236816,0.3889018893241882,-0.1657689958810806,0.5515769124031067,0
30935,0.017627066001296,-0.0223337039351463,1.0132330656051636,2.2938382625579834,-1.443348407745361,0.5623278617858887,-0.0829262807965278,0.1546987891197204,0.492754727602005,0.4074439704418182,-0.1509429961442947,0.5547939538955688,0
31085,0.0132358931005001,0.003199566854164,0.9778282046318054,-0.8162519335746765,-0.9733888506889344,0.1093311682343483,-0.0770610049366951,0.1563642770051956,0.5020624399185181,0.5519620776176453,-0.0978364124894142,0.5687865614891052,0
31105,0.0065684611909091,-0.0025150144938379,1.0071449279785156,-0.6907886862754822,-0.7239907383918762,0.0543656982481479,-0.0768785700201988,0.1567761301994323,0.5012859106063843,0.5338402390480042,-0.0664482936263084,0.5728421807289124,0
31115,0.0091832559555768,0.00214986782521,0.9923511147499084,0.241608515381813,-0.7570983171463013,0.0645892098546028,-0.0768168121576309,0.1568758338689804,0.5015285611152649,0.5310174822807312,-0.0588301084935665,0.571729302406311,0
31265,0.0121763758361339,-0.0036950195208191,1.0040295124053955,-2.3895962238311768,0.0100742382928729,-0.1501325070858001,-0.0727369263768196,0.144775316119194,0.494475781917572,0.2580420076847076,0.140030026435852,0.5447339415550232,0
31275,0.0125817004591226,-0.0072253989055752,1.0098607540130615,-1.053321361541748,0.3134245872497558,0.2245420068502426,-0.0725489780306816,0.1444435268640518,0.4939959347248077,0.2196053862571716,0.1304041296243667,0.5481422543525696,0
31335,-0.0069586331956088,0.0045843170955777,1.0072330236434937,-5.175437927246094,0.2220487147569656,-0.6974599957466125,-0.0732186883687973,0.1394087523221969,0.4944435060024261,-0.0752614438533783,0.1438285410404205,0.5439277291297913,0
31435,0.01433627307415,-0.0100187556818127,0.9888508319854736,-1.727641463279724,1.1169538497924805,-0.9243414998054504,-0.0742460191249847,0.1287584453821182,0.4997085332870483,-0.2876206636428833,0.1796431690454483,0.51985102891922,0
31465,0.0076558417640626,-0.0068424912169575,0.9971715807914734,-2.4000024795532227,2.5847342014312744,0.14887136220932,-0.0734708681702613,0.1267881840467453,0.5000842809677124,-0.3350697159767151,0.1188565343618393,0.5142935514450073,0
31465,0.0076558417640626,-0.0068424912169575,0.9971715807914734,-2.4000024795532227,2.5847342014312744,0.14887136220932,-0.0734708681702613,0.1267881840467453,0.5000842809677124,-0.3350697159767151,0.1188565343618393,0.5142935514450073,0
31465,0.0076558417640626,-0.0068424912169575,0.9971715807914734,-2.4000024795532227,2.5847342014312744,0.14887136220932,-0.0734520107507705,0.1264819055795669,0.5002676844596863,-0.3593573272228241,0.0923198536038398,0.5154822468757629,0
31525,0.0059463707730174,-0.0007007053936831,0.9987650513648988,-1.963324189186096,-0.2425244450569152,-0.487661749124527,-0.0729800835251808,0.1224057078361511,0.4973174631595611,-0.4884642660617828,0.0703808963298797,0.4904463589191437,0
31625,0.0078682778403162,-0.0179260894656181,1.003080129623413,0.5986820459365845,1.9298405647277832,-0.4930635392665863,-0.0780383720993995,0.1239147558808326,0.5001595616340637,-0.557153582572937,-0.0354402102530002,0.4219901263713836,0
31645,0.0072263679467141,-0.0264308638870716,1.0155699253082275,0.9545759558677672,1.8089109659194944,-0.4134758710861206,-0.0802630931138992,0.1210695654153823,0.5040091276168823,-0.511972188949585,-0.049442745745182,0.4113390147686004,0
31645,0.0072263679467141,-0.0264308638870716,1.0155699253082275,0.9545759558677672,1.8089109659194944,-0.4134758710861206,-0.0824360027909278,0.1233224794268608,0.5044150948524475,-0.504905104637146,-0.0438389331102371,0.4069591760635376,0
31835,0.0101293809711933,-0.0187483876943588,0.9930688142776488,2.5895745754241943,0.8288618326187134,-0.7445502281188965,-0.0887574180960655,0.1303161978721618,0.505593478679657,-0.1332722157239914,-0.2950038313865661,0.3159008622169494,0
31835,0.0101293809711933,-0.0187483876943588,0.9930688142776488,2.5895745754241943,0.8288618326187134,-0.7445502281188965,-0.088882066309452,0.1303984373807907,0.5055932998657227,-0.105836696922779,-0.3028229176998138,0.3096095025539398,0
31975,0.0055132233537733,-0.0159896705299615,1.012974739074707,1.9243181943893437,-0.7047514915466309,-0.1468883901834488,-0.0924380123615264,0.1392223089933395,0.4982737898826599,0.1724575310945511,-0.3152908384799957,0.2332305610179901,0
31995,0.0181423146277666,-0.0044675758108496,1.02438485622406,2.8543622493743896,-1.2748706340789795,0.6082162857055664,-0.0925971791148185,0.1395809203386306,0.4959237277507782,0.2147146612405777,-0.3045217394828796,0.2402040064334869,0
32035,0.0091607104986906,-0.0051794010214507,1.0343749523162842,1.6966233253479004,-2.3076467514038086,-0.0865044444799423,-0.0924911424517631,0.140268012881279,0.4946827590465545,0.2699357867240906,-0.3103538751602173,0.2583071887493133,0
32185,0.0091054840013384,-0.0018543439218774,0.9935745000839232,0.4310573637485504,-1.7213125228881836,-0.4751202762126922,-0.0925310254096984,0.1424446851015091,0.4969411492347717,0.3800743520259857,-0.2160123586654663,0.2464311271905899,0
32195,0.0042192041873931,-0.0021993562113493,0.9765180349349976,1.0136895179748535,-3.634539604187012,-0.722612202167511,-0.0924267768859863,0.1426216214895248,0.4987412691116333,0.3933346569538116,-0.1308182328939438,0.2164644747972488,0
32215,0.0154995070770382,-0.0004634202341549,0.9912741780281068,-1.0163992643356323,-1.8078888654708865,-1.3997300863265991,-0.0924267768859863,0.1426216214895248,0.4987412691116333,0.3933346569538116,-0.1308182328939438,0.2164644747972488,0
32225,0.0051216627471148,-0.019783766940236,1.007137417793274,-2.3554282188415527,-0.7389546632766724,-1.092477560043335,-0.0923917442560195,0.1426739245653152,0.4989124536514282,0.3789474070072174,-0.1211407333612442,0.2042828798294067,0
32365,0.0065472703427076,-0.0016810857923701,0.9701833128929138,-2.122164726257324,-0.4814600646495819,-1.0422283411026,-0.0931570827960968,0.1364511400461197,0.506445050239563,0.1844578385353088,-0.0510476902127265,0.087595410645008,0
32405,0.0076469234190881,-0.0091358330100774,0.9677992463111876,-2.190141439437866,1.2275928258895874,-1.0990324020385742,-0.0945771783590316,0.1343443542718887,0.5095874071121216,0.0818246155977249,-0.0811777561902999,0.0263569857925176,0
32425,0.0112783024087548,-0.0031932382844388,0.9605665802955629,-1.5231550931930542,-1.0993168354034424,-1.073539972305298,-0.0945633128285408,0.1342068910598755,0.5091673135757446,0.0621521100401878,-0.0776285603642463,0.0183065924793481,0
32555,0.0042579839937388,-0.0244081858545541,0.9953370690345764,-1.0446858406066897,1.4726773500442505,-0.7245509624481201,-0.1045001298189163,0.1290166974067688,0.5116581320762634,-0.1977748870849609,-0.0471377745270729,-0.1089751422405242,0
32565,-0.012643177062273,0.00611038133502,0.9799147844314576,-1.9684466123580933,2.1671268939971924,-0.8335468173027039,-0.1040346324443817,0.1274707019329071,0.5117461681365967,-0.2050827890634536,-0.071881927549839,-0.1182399988174438,0
32585,0.0086853941902518,-0.0199140440672636,0.995839774608612,-1.9802628755569456,2.779862880706787,-0.9169107675552368,-0.1036009341478347,0.1298237591981887,0.5118695497512817,-0.2632801532745361,-0.1301017105579376,-0.1361802369356155,0
32725,0.002130769426003,-0.010354146361351,0.9933610558509828,-0.797073245048523,-0.5970858335494995,0.0857779756188392,-0.1048342585563659,0.1234732344746589,0.5013142228126526,-0.3002598881721496,-0.1829852759838104,-0.1160376369953155,0
32755,0.0123290624469518,-0.0048007639124989,1.0179551839828491,-0.6916828751564026,0.1637769192457199,0.1141926869750022,-0.1049408763647079,0.1231813207268714,0.500582754611969,-0.3173244893550873,-0.1725594103336334,-0.1184946000576019,0
32755,0.0123290624469518,-0.0048007639124989,1.0179551839828491,-0.6916828751564026,0.1637769192457199,0.1141926869750022,-0.104989655315876,0.1230433508753776,0.5002174973487854,-0.3202605247497558,-0.1683411747217178,-0.118245892226696,0
32765,0.0033629648387432,-0.0129141667857766,1.018932580947876,0.7718730568885803,-1.849305868148804,0.6515272855758667,-0.1050258874893188,0.1229205802083015,0.5006957054138184,-0.3228563964366913,-0.1727626472711563,-0.1151767671108245,0
32865,0.0187888424843549,0.000669568311423,1.0237661600112915,-0.3495016098022461,1.734315037727356,0.3538142144680023,-0.1002897694706916,0.1223651468753814,0.5024631023406982,-0.2714268863201141,-0.1294823288917541,-0.0841920599341392,0
32935,0.0054913228377699,-0.0076783234253525,1.0012818574905396,3.564775228500366,-0.6451960206031799,0.1667620539665222,-0.1007401868700981,0.1233662441372871,0.5040104985237122,-0.1776353418827057,-0.0258528739213943,-0.0740108117461204,0
32935,0.0054913228377699,-0.0076783234253525,1.0012818574905396,3.564775228500366,-0.6451960206031799,0.1667620539665222,-0.1007401868700981,0.1233662441372871,0.5040104985237122,-0.1776353418827057,-0.0258528739213943,-0.0740108117461204,0
33005,0.0107905119657516,-0.0045981183648109,0.9936304688453674,-0.9497738480567932,1.053144454956055,-0.1793884485960006,-0.1003676056861877,0.1260571926832199,0.5028430819511414,-0.0903875455260276,0.0012104063061997,-0.0799431875348091,0
33125,0.0123430183157324,-0.0214447528123855,0.998485505580902,290.23785400390625,-227.89991760253903,-398.0656127929688,-0.0973956361413002,0.1278188675642013,0.5059844255447388,1.0292695760726929,1.0711499452590942,-1.0170170068740845,1
33135,0.0149515690281987,-0.0339280888438224,0.9948431849479676,383.6530456542969,-154.90628051757812,-751.1580200195312,-0.0973956361413002,0.1278188675642013,0.5059844255447388,1.0292695760726929,1.0711499452590942,-1.0170170068740845,1
33135,0.0149515690281987,-0.0339280888438224,0.9948431849479676,383.6530456542969,-154.90628051757812,-751.1580200195312,-0.1588710099458694,0.0648514181375503,0.5059595704078674,4.480916976928711,3.5224523544311523,-5.128604888916016,1
33275,0.0150510063394904,-0.2191761136054992,0.9024556279182434,-140.35504150390625,53.78076171875,214.27232360839844,-0.1805261671543121,-0.1992945969104766,0.480258584022522,10.632506370544434,-12.819502830505373,-24.582555770874023,1
33295,0.019429987296462,-0.2335555851459503,0.8947005867958069,-133.04928588867188,-6.519357204437256,181.59259033203125,-0.1290231645107269,-0.1915936470031738,0.4851682782173157,8.468673706054688,-13.211833000183104,-20.559459686279297,1
33305,0.0213665217161178,-0.2389391809701919,0.8918110132217407,-126.5720443725586,-43.28781127929688,157.527099609375,-0.1130014881491661,-0.1753346174955368,0.4838259518146515,7.362388610839844,-12.964262962341309,-18.820993423461918,1
33455,0.0306863281875848,-0.2491033673286438,0.886620819568634,-151.50650024414062,-107.87828826904295,-5.506145000457764,-0.0821782797574997,-0.0532313734292984,0.539548933506012,-11.600339889526367,18.595643997192383,-15.269155502319336,1
33475,0.0305207911878824,-0.2478544563055038,0.887304425239563,-97.41927337646484,0.4420986473560333,43.155517578125,-0.1023317947983741,-0.0116227380931377,0.5436293482780457,-15.028100967407228,20.43545150756836,-14.551305770874023,1
33585,0.0089975222945213,-0.0927589461207389,1.1595258712768557,135.6100311279297,96.50511932373048,77.34501647949219,-0.0336681492626667,0.2038161754608154,0.4660583734512329,2.6950161457061768,9.787113189697266,-9.745221138000488,0
33665,0.0060809017159044,-0.0774582549929618,1.35335373878479,12.876708984375,-11.718369483947754,51.97737121582031,0.0172870121896266,0.3221306502819061,0.422186017036438,2.835421085357666,3.322951078414917,-3.4444479942321777,0
33675,0.0014079232932999,-0.0791153088212013,1.3624069690704346,36.05972671508789,-24.419740676879883,48.9504280090332,0.0232474207878112,0.3537513017654419,0.4278993904590606,3.702356338500977,3.6819353103637695,-2.024634838104248,0.0
33685,-0.0061857355758547,-0.0748711377382278,1.359613299369812,60.29215621948242,-29.470685958862305,46.088600158691406,0.0332465879619121,0.3737627267837524,0.4259257316589355,4.151777744293213,3.8399834632873535,-1.531632900238037,0
33835,-0.0100916270166635,-0.0637239217758178,1.0873512029647827,29.574148178100582,-27.890140533447266,0.5340648293495178,0.0895909741520881,0.5307662487030029,0.4729417860507965,10.46835994720459,-0.0039079175330698,1.346852421760559,0
33855,-0.0267471671104431,-0.0628800690174102,1.03130304813385,33.38914489746094,-24.65140724182129,-0.2277114242315292,0.0920984670519828,0.5405489206314087,0.4859621226787567,10.828656196594238,0.2438634932041168,1.372840166091919,0
33865,-0.0392625667154789,-0.0638124942779541,0.9955686330795288,30.85609245300293,-19.713132858276367,-0.6752337217330933,0.100541315972805,0.5585952997207642,0.4933654069900512,11.339133262634276,0.5625701546669006,1.2607734203338623,0
34025,-0.0296665001660585,-0.0513640604913234,0.7891367077827454,4.182708740234375,-30.9326114654541,-9.483519554138184,0.1683655232191085,0.6652858853340149,0.5645889043807983,10.631054878234863,1.0306777954101562,-0.3148081004619598,0
34095,-0.0296820122748613,-0.0385601967573165,0.7908031940460205,-13.603127479553224,-20.05471611022949,-5.773696899414063,0.200129747390747,0.699629545211792,0.5740686058998108,10.338850021362305,2.04129958152771,-1.2182306051254272,0
34185,-0.0367921777069568,-0.0468932203948497,0.877415657043457,-3.195241451263428,-28.73027992248535,0.7910918593406677,0.2591836154460907,0.7475489377975464,0.5778146386146545,8.683765411376953,3.5066051483154297,-2.2064688205718994,0
34205,-0.0307959299534559,-0.039712905883789,0.8869444131851196,-2.9622602462768555,-27.18375015258789,2.096660614013672,0.2751757204532623,0.7596386671066284,0.5769908428192139,8.489337921142578,4.252148151397705,-2.3650333881378174,0
34215,-0.0366565734148025,-0.03384954854846,0.9058246612548828,-5.91708517074585,-26.03253746032715,2.689281702041626,0.2858726680278778,0.7655731439590454,0.5759317278862,8.365949630737305,4.363609313964844,-2.472400188446045,0
34225,-0.0417021848261356,-0.0297787897288799,0.9227755069732666,-7.347350120544434,-24.97823905944824,3.1351072788238525,0.294658362865448,0.7710617780685425,0.572674036026001,8.256528854370117,4.488810062408447,-2.5460526943206787,0
34375,-0.032259214669466,-0.0370605364441871,1.0516862869262695,-10.71265697479248,-19.97955322265625,8.538551330566406,0.4041563868522644,0.8339097499847412,0.5451943278312683,6.263075828552246,7.011976718902588,-2.78000807762146,0
34385,-0.0448046326637268,-0.0670305639505386,1.0937224626541138,-11.005742073059082,-16.536897659301758,8.932592391967773,0.4178699254989624,0.8422605991363525,0.5414377450942993,5.929099082946777,7.303691864013672,-2.6944713592529297,0
34445,-0.0291088391095399,-0.0349427200853824,1.0829788446426392,-1.47539484500885,-8.86365795135498,7.727272033691406,0.4565650224685669,0.8595471978187561,0.538389265537262,5.260200500488281,7.758980751037598,-2.5022919178009038,0
34545,-0.05280577018857,-0.0338570773601532,1.091986894607544,-6.384943008422852,-7.7266316413879395,5.934433460235596,0.5332431197166443,0.8957343697547913,0.5225762128829956,4.618654251098633,8.060853004455566,-2.128194093704224,0
34565,-0.0261991526931524,-0.0376644618809223,1.0766615867614746,-6.2065935134887695,-6.881137371063232,5.430214405059815,0.5522879362106323,0.9039770364761353,0.520051121711731,4.334700107574463,8.16487979888916,-2.0102009773254395,0
34565,-0.0261991526931524,-0.0376644618809223,1.0766615867614746,-6.2065935134887695,-6.881137371063232,5.430214405059815,0.5522879362106323,0.9039770364761353,0.520051121711731,4.334700107574463,8.16487979888916,-2.0102009773254395,0
34575,-0.0296328384429216,-0.0366578176617622,1.0901155471801758,-3.962792158126831,-6.005457878112793,5.374688148498535,0.5605010986328125,0.9069965481758118,0.5227714776992798,4.223482131958008,8.141395568847656,-2.002434730529785,0
34675,-0.0288143325597047,-0.0007772292592562,1.036968231201172,-6.710964202880859,1.841420292854309,5.4396491050720215,0.6191035509109497,0.9283490180969238,0.5266517400741577,3.678431034088135,7.815105438232422,-1.6258639097213743,0
34765,-0.0326397567987442,-0.0182625148445367,0.9644426107406616,-0.4049363434314728,-1.3028892278671265,2.808520555496216,0.6758323907852173,0.9510388374328612,0.528177797794342,3.0843746662139893,7.00601053237915,-1.2882719039916992,0
34815,-0.0267527494579553,-0.0139658693224191,0.9955320358276368,0.2291587144136428,-1.9824213981628416,1.827804923057556,0.7131953835487366,0.9634345769882202,0.5265545845031738,2.909233570098877,6.823819637298584,-1.1779783964157104,0
34935,-0.0451046004891395,0.0758957862854003,0.7433699369430542,49.45817184448242,148.23133850097656,-337.01727294921875,0.7899351119995117,0.9911034107208252,0.4489250779151916,5.3754706382751465,6.835357666015625,-6.476276397705078,0
34955,-0.057109635323286,-0.0315449126064777,0.774662971496582,-153.6288299560547,304.7657775878906,-273.3568725585937,0.8095924854278564,1.0049787759780884,0.434807538986206,5.342545509338379,-0.2211667746305465,-15.223359107971191,0
34955,-0.057109635323286,-0.0315449126064777,0.774662971496582,-153.6288299560547,304.7657775878906,-273.3568725585937,0.8095924854278564,1.0049787759780884,0.434807538986206,5.342545509338379,-0.2211667746305465,-15.223359107971191,0
35075,0.4131674170494079,-0.4190077483654022,-0.3320016860961914,-1200.617919921875,1060.87451171875,-402.4166870117188,0.8770979046821594,1.019199013710022,0.4644177556037903,-128.41168212890625,-32.220436096191406,-108.64727020263672,0
35145,-0.1972734481096267,-0.0360665284097194,0.9464305639266968,-849.9286499023438,1776.8612060546875,-339.6890563964844,2.557522773742676,1.5712928771972656,0.2681189775466919,123.43507385253906,58.96174240112305,-76.79318237304688,0
35195,0.3623354732990265,-0.6906188726425171,0.5328059792518616,-664.7063598632812,-898.7642822265625,1946.822509765625,2.753438234329224,1.894636154174805,0.1065268516540527,-8.281299591064453,32.90071105957031,52.93000793457031,0
35315,-0.1034370586276054,-0.3057140409946441,0.8089216947555542,390.1855773925781,-34.501224517822266,1724.64599609375,2.031322479248047,3.232020854949951,-0.437723696231842,80.13516998291016,-58.61019134521485,-49.24446487426758,0
35425,0.0085381176322698,-0.2998673617839813,0.682661235332489,1174.066162109375,-469.0843811035156,-821.0841064453125,0.8490803837776184,7.748128414154053,0.5694320201873779,-116.5962371826172,39.308589935302734,163.21676635742188,0
35445,-0.0076897288672626,-0.300235390663147,0.6989682912826538,1159.4324951171875,-629.3160400390625,-842.9568481445312,0.758352518081665,7.975723266601562,0.7904034852981567,-108.65714263916016,57.21609878540039,-160.84933471679688,0
35455,0.0073300255462527,-0.2795619964599609,0.6791968941688538,1111.953369140625,-703.1394653320312,-814.801025390625,0.7406012415885925,8.05488395690918,0.860523521900177,-113.39388275146484,62.54961395263672,-142.32240295410156,0
35595,-0.0370709784328937,-0.0585407055914402,0.7717598676681519,-22.682518005371094,-575.5711669921875,-499.8960571289063,0.6944016218185425,9.33472728729248,1.7662510871887207,-170.54806518554688,-8.921520233154297,35.40122604370117,0
35605,-0.0211445726454257,-0.0701222121715545,0.7881168723106384,-40.24044036865234,-525.2955322265625,-477.9469604492188,0.7067420482635498,9.51132583618164,1.878904938697815,-168.013427734375,-18.475725173950195,47.79213333129883,0
35705,3.3998899459838867,5.4893951416015625,1.1024072170257568,846.355712890625,-711.6133422851562,-627.1444702148438,0.6385565400123596,10.38254165649414,2.3019399642944336,-130.0360870361328,-28.252490997314453,110.50003051757812,0
35715,-0.0471089594066143,0.9733539819717408,0.4415007531642914,877.2806396484375,-688.9879760742188,-436.10107421875,0.6247159838676453,10.4732666015625,2.3303542137146,-117.05730438232422,-28.25655937194824,120.17597198486328,0
35785,-1.8880958557128904,-1.853282332420349,-3.466552972793579,-251.32220458984372,1442.9864501953125,-271.4725952148437,-0.002391031011939,-0.0072086947038769,1.919213056564331,31.685321807861328,-5.966047763824463,-5.282830238342285,0
35885,-3.248022079467773,0.6733568906784058,-2.086768627166748,409.614013671875,36.5360107421875,511.900390625,-0.0245354603976011,0.0296055320650339,0.3886013925075531,24.70027732849121,11.512092590332031,-14.365234375,0
35975,-2.567588329315185,-0.3235887885093689,-5.7987565994262695,365.3973083496094,-63.83395385742188,264.5672607421875,-0.0976062938570976,0.1267358809709549,0.2788374125957489,44.544227600097656,7.453604698181152,48.03376770019531,0
36115,-0.450005829334259,0.2309357970952987,-1.143566608428955,373.3397216796875,-193.5521697998047,30.04973793029785,-0.5273652672767639,0.1963018327951431,0.393693745136261,85.89263153076172,26.901512145996094,46.71413040161133,0.0
36125,-0.2161544412374496,0.0217228569090366,-0.4760373532772064,72.7713394165039,116.6093292236328,107.30953979492188,-0.5273652672767639,0.1963018327951431,0.393693745136261,85.89263153076172,26.901512145996094,46.71413040161133,0
36125,-0.2161544412374496,0.0217228569090366,-0.4760373532772064,72.7713394165039,116.6093292236328,107.30953979492188,-0.5273652672767639,0.1963018327951431,0.393693745136261,85.89263153076172,26.901512145996094,46.71413040161133,0
36255,0.0005070593324489,-0.0016211430775001,-1.0380324125289917,-0.0232988540083169,0.4692530632019043,0.100438006222248,-0.9963058233261108,0.1812952756881714,0.0586401633918285,84.02426147460938,20.26314163208008,41.114295959472656,0
36285,0.0092306369915604,0.0014891942264512,-1.030390977859497,-0.0677424222230911,0.1587750315666198,-0.1766041070222854,-1.11699116230011,0.2126566767692566,-0.0592945404350757,83.90116119384766,19.263931274414062,39.70323181152344,0
36335,0.0077252788469195,0.0018688982818275,-1.031302809715271,0.0312379319220781,0.220937117934227,-0.1089321747422218,-1.82880175113678,0.712554931640625,0.0951833054423332,97.00643157958984,1.703104019165039,14.336345672607422,0
36355,0.0080589894205331,0.0016131517477333,-1.0302958488464355,-0.1195133775472641,-0.0877133160829544,-0.1468322277069091,-1.9112427234649656,0.7573405504226685,0.0269995294511318,96.83589935302734,1.6795743703842163,14.322574615478516,0
36455,0.0058057373389601,0.0013537980848923,-1.0308239459991455,0.1570763885974884,-0.0055495891720056,-0.1841729432344436,-2.2937469482421875,1.0047491788864136,-0.3246920704841614,96.07154846191406,1.5738134384155271,14.24620246887207,0
36475,0.007162514142692,0.003113754093647,-1.030273675918579,-0.0625571757555008,-0.0867830440402031,-0.1959943175315857,-2.4254133701324463,1.103803038597107,-0.4584783315658569,95.81842803955078,1.5390247106552124,14.220362663269045,0
36485,0.0078493934124708,0.0004610135511029,-1.031822681427002,-0.2580757141113281,0.1428330242633819,-0.0499229952692985,-2.4254133701324463,1.103803038597107,-0.4584783315658569,95.81842803955078,1.5390247106552124,14.220362663269045,0
36615,0.0088109243661165,0.004132111556828,-1.032667875289917,-0.0123412441462278,0.0452082157135009,-0.1193128153681755,-3.399627685546875,1.835969090461731,-0.7975469827651978,109.48632049560548,1.3557308912277222,10.40196132659912,0
36625,0.0093572940677404,0.0004912583972327,-1.030137538909912,0.2277838289737701,-0.0762633606791496,0.0836436599493026,-3.4523987770080566,1.8830324411392207,-0.8421350717544556,109.39298248291016,1.3472617864608765,10.397412300109863,0
36635,0.0058140149340033,-0.0002054701762972,-1.0306084156036377,0.0791910961270332,0.0611453503370285,0.1207232996821403,-3.5584194660186768,1.9797720909118648,-0.9334945678710938,109.20793914794922,1.3294862508773804,10.388681411743164,0
36745,0.0055889603681862,0.0004763772303704,-1.0321152210235596,0.057029090821743,-0.3282482028007507,-0.0267934128642082,-4.226891994476318,2.620652437210083,-1.3256279230117798,113.42533111572266,-0.0574588291347026,9.911246299743652,0
36815,0.0075495191849768,0.0019585543777793,-1.0306416749954224,-0.0523783564567565,-0.1131939589977264,0.0013371384702622,-4.796567440032959,3.3125550746917725,-1.5024969577789309,119.79936981201172,-2.173330545425415,9.30866527557373,0
36905,0.0072241416200995,-0.000250391458394,-1.0331182479858398,-0.037483837455511,0.2282320111989975,0.0402801632881164,-5.5304999351501465,4.215768337249756,-1.6950007677078247,127.16845703125,-1.5028022527694702,9.76869010925293,0
