timestamp,acc.x,acc.y,acc.z,gyro.x,gyro.y,gyro.z,stateEstimate.x,stateEstimate.y,stateEstimate.z,stabilizer.roll,stabilizer.pitch,stabilizer.yaw,groundtruth
7064,0.0190806668251752,-0.0057873525656759,1.0011441707611084,-0.2438880950212478,0.0542604029178619,-0.0831659361720085,0.0007410838734358,0.0009254282340407,0.0222575049847364,-0.4578703939914703,0.9105134606361388,0.0470430068671703,0
7094,0.0192237999290227,-0.0072533944621682,1.0018198490142822,-0.031049758195877,0.0168108530342578,0.0187717974185943,0.0007451467681676,-0.0001195038857986,0.0214619357138872,-0.412374883890152,0.9157050848007202,0.0468501485884189,0
7094,0.0192237999290227,-0.0072533944621682,1.0018198490142822,-0.031049758195877,0.0168108530342578,0.0187717974185943,0.00073519005673,-0.0008890398894436,0.0214404109865427,-0.3805482387542724,0.9162018299102784,0.0449292622506618,0
7184,0.0169299002736806,-0.0076158698648214,0.9992835521697998,-0.206472709774971,0.0526882447302341,0.044322270900011,0.0007212247583083,-0.0008425916894339,0.0224263109266757,-0.3777791857719421,0.9160497784614564,0.0447258539497852,0
7224,0.0167392883449792,-0.0068297428078949,0.9991955161094666,0.1650304198265075,-0.1686858087778091,0.2101761698722839,0.0007327368366532,-0.0001040343267959,0.0225565023720264,-0.4121833741664886,0.9122666716575624,0.0457047559320926,0
7334,0.0172473415732383,-0.0071090930141508,1.0008782148361206,0.1222268044948577,0.2612145543098449,0.1877918988466262,0.0009367072489112,-0.0007651471532881,0.0223296359181404,-0.3830739557743072,0.9090976119041444,0.0488658882677555,0
7364,0.0169230569154024,-0.0080521879717707,0.9983357191085817,-0.0061769732274115,-0.1306219398975372,0.0038894324097782,0.0007065990939736,0.0007663646247237,0.0230755414813756,-0.4481402039527893,0.91637921333313,0.0508822351694107,0
7374,0.0199193265289068,-0.0097179384902119,1.0003598928451538,0.0694345086812973,0.5174859762191772,0.0460985861718654,0.0007065990939736,0.0007663646247237,0.0230755414813756,-0.4481402039527893,0.91637921333313,0.0508822351694107,0
7414,0.0207290817052125,-0.0095282718539237,0.9985665678977966,0.1049989759922027,0.1076445057988166,0.0949929282069206,0.0007425372023135,-9.977634181268512e-05,0.0215764809399843,-0.4084897041320801,0.9127255082130432,0.0512028485536575,0
7494,0.0174110457301139,-0.0053961649537086,1.001593828201294,-0.0380797870457172,0.0529802814126014,0.0066051953472197,4.538697976386175e-05,-0.0001475250755902,0.0220001377165317,-0.0042624347843229,-0.0091319270431995,-0.0003379601112101,0
7524,0.0151674961671233,-0.0081253629177808,1.000475525856018,0.0707955658435821,0.2872971594333648,0.0784754604101181,0.0001367133227176,2.838571708707605e-05,0.0205052569508552,-0.1899785548448562,0.0491032674908638,-0.0009458896238356,0
7534,0.0169157870113849,-0.008433336392045,0.9992679953575134,-0.1512289643287658,-0.0481744445860385,-0.025571109727025,0.0002075070224236,2.714577021833975e-05,0.0204915795475244,-0.1894563138484954,0.0480745621025562,-0.0015607691602781,0
7544,0.0186330005526542,-0.0081582684069871,0.9993935823440552,0.1619434207677841,0.1581035852432251,-0.0943081900477409,0.0002075070224236,2.714577021833975e-05,0.0204915795475244,-0.1894563138484954,0.0480745621025562,-0.0015607691602781,0
7574,0.0173040591180324,-0.007122628390789,0.9977437257766724,0.0194326154887676,0.2440767288208007,-0.179771676659584,0.0004107989079784,-0.0003843670710921,0.0204672068357467,-0.0513217858970165,0.1144489124417305,-0.000694430724252,0
7654,0.0172549784183502,-0.0070412633940577,1.000223994255066,-0.0123467147350311,0.1457773894071579,-0.0600338280200958,0.0008153109811246,-0.0005990539793856,0.0213722996413707,-0.2080065906047821,0.3923985660076141,-0.0010822342010214,0
7674,0.0159786567091941,-0.0088256010785698,0.9997594356536864,-0.0807825848460197,0.2162352800369262,0.0317181572318077,0.0016187746077775,-0.0006543467752635,0.0212318059056997,-0.2278782576322555,0.2593078911304474,-0.0010137907229363,0
7684,0.0173535943031311,-0.0086125135421752,0.999885618686676,0.0900749266147613,0.0345796830952167,0.0630747377872467,0.0016187746077775,-0.0006543467752635,0.0212318059056997,-0.2278782576322555,0.2593078911304474,-0.0010137907229363,0
7744,0.0191840436309576,-0.0073775677010416,0.9986814856529236,-0.0932605788111686,-0.2215980440378189,0.3432998359203338,0.0009128341916948,0.0004043400113005,0.0207167100161314,-0.4948166608810425,0.5980156660079956,0.0053145643323659,0
7804,0.0168601833283901,-0.0084381308406591,0.9978256225585938,0.101285196840763,-0.0139888962730765,0.1011473312973976,0.0007385781500488,-0.0006139963516034,0.0225633513182401,-0.3332318067550659,0.7339105010032654,0.0052949138917028,0
7844,0.0170931089669466,-0.0053801457397639,0.9988706707954408,-0.059985414147377,-0.0845455974340438,0.0621754899621009,0.0008484669961035,-0.000697691226378,0.022954024374485,-0.3267644643783569,0.7578341364860535,0.0051113339141011,0
7854,0.0146518712863326,-0.0063957027159631,0.9988343715667723,-0.1747626513242721,-0.0368520766496658,-0.013698635622859,0.0009355591027997,-0.0007378410664387,0.023032322525978,-0.3273142278194427,0.7571520209312439,0.006314511410892,0
7864,0.0167627856135368,-0.0049026785418391,0.9981658458709716,0.2779677510261535,0.0538413971662521,0.1981795132160186,0.0018304798286408,-0.0007126102573238,0.0231077894568443,-0.3348304033279419,0.666312575340271,0.0069570401683449,0
7934,0.0141804534941911,-0.0070075942203402,1.000502347946167,-0.1662562489509582,0.0744882747530937,0.0391859784722328,0.0007013832801021,0.0002056045195786,0.0228974018245935,-0.4348615705966949,0.8222165107727051,0.0081601962447166,0
8034,0.016634089872241,-0.0073436629027128,0.9998647570610046,-0.0877647399902343,0.0738310813903808,-0.1021565645933151,0.0006681981030851,0.0005522323772311,0.0226947460323572,-0.4549321830272674,0.8559961915016174,0.0121480543166399,0
8044,0.0187931209802627,-0.0074399886652827,1.0009889602661133,0.0720410868525505,-0.0035020653158426,0.278234601020813,0.0009462532470934,0.0005341296782717,0.0227150600403547,-0.4496332108974457,0.837557852268219,0.011798096820712,0
8054,0.018515096977353,-0.0077040428295731,1.0023249387741089,-0.1674871146678924,0.4566623568534851,0.0217617154121398,0.0006103100022301,-0.0015070207882672,0.0217101275920867,-0.3103105425834656,0.8643068671226501,0.0092654628679156,0
8064,0.0168429762125015,-0.0059899073094129,1.001402497291565,0.2016502916812896,-0.308838814496994,-0.2237080335617065,0.0014474429190158,-0.000340593396686,0.0216864552348852,-0.3920406103134155,0.8124854564666748,0.0126873385161161,0
8194,0.0172219071537256,-0.0054993005469441,1.0003827810287476,-0.0153775811195373,0.1080672368407249,-0.1442099809646606,0.0008038686355575,-0.0014705267967656,0.0215323492884635,-0.332158088684082,0.8852360844612122,0.0082707423716783,0
8194,0.0172219071537256,-0.0054993005469441,1.0003827810287476,-0.0153775811195373,0.1080672368407249,-0.1442099809646606,0.0008038686355575,-0.0014705267967656,0.0215323492884635,-0.332158088684082,0.8852360844612122,0.0082707423716783,0
8204,0.01668656244874,-0.0079627884551882,0.9968259334564208,0.0541491918265819,-0.2066019028425216,0.1176951751112937,0.0005062213749624,-0.0017294473946094,0.0215136036276817,-0.3214644491672516,0.9038203954696656,0.0081100594252347,0
8214,0.0165947619825601,-0.0084361210465431,0.9980221390724182,0.0661325752735138,-0.0396876744925975,0.0364467799663543,0.0004930683062411,-0.0005867902655154,0.021505044773221,-0.3841957449913025,0.9050478339195251,0.0095519823953509,0
8364,0.0147330127656459,-0.0087955193594098,1.0000994205474854,0.1053639277815818,-0.4456886351108551,-0.2494648396968841,0.000467361183837,-0.0014142098370939,0.021492850035429,-0.3541150689125061,0.9095801115036012,0.0152002600952982,0
8434,0.0180899314582347,-0.0082568526268005,0.9995306730270386,0.111060693860054,-0.0207081232219934,-0.101893164217472,0.0004440092307049,-0.0016371613601222,0.0216530673205852,-0.354493111371994,0.9144006967544556,0.0147829446941614,0
8434,0.0180899314582347,-0.0082568526268005,0.9995306730270386,0.111060693860054,-0.0207081232219934,-0.101893164217472,0.0004303858149796,-0.0002577193663455,0.0216601435095071,-0.4147328734397888,0.9147032499313354,0.0169011354446411,0
8434,0.0180899314582347,-0.0082568526268005,0.9995306730270386,0.111060693860054,-0.0207081232219934,-0.101893164217472,0.0004440092307049,-0.0016371613601222,0.0216530673205852,-0.354493111371994,0.9144006967544556,0.0147829446941614,0
8444,0.0177748445421457,-0.007175522390753,0.9995562434196472,0.094868466258049,-0.1571201086044311,0.0856504738330841,0.0004303858149796,-0.0002577193663455,0.0216601435095071,-0.4147328734397888,0.9147032499313354,0.0169011354446411,0
8454,0.0170060507953166,-0.0078260945156216,0.999935507774353,-0.1328330338001251,0.3140324652194977,-0.184852197766304,0.0004226895689498,-0.0005185561021789,0.0209654998034238,-0.4055799841880798,0.9154872298240662,0.0166249610483646,0
8464,0.0174768846482038,-0.0077758911065757,1.0001282691955566,-0.0304140113294124,-0.2620924115180969,-0.1479772329330444,0.0004030265845358,0.0002622843894641,0.0208948627114295,-0.4406930804252624,0.9189169406890868,0.0174680184572935,0
8504,0.0155487852171063,-0.009201874025166,0.999283492565155,-0.1582064032554626,0.5207412838935852,-0.0234228186309337,0.000393385766074,-0.0002581596199888,0.0204752497375011,-0.4152074158191681,0.9192294478416444,0.0163878351449966,0
8514,0.0164642874151468,-0.0087173273786902,1.0004783868789673,-0.0767751559615135,0.0297041051089763,-0.024342929944396,0.000393385766074,-0.0002581596199888,0.0204752497375011,-0.4152074158191681,0.9192294478416444,0.0163878351449966,0
8534,0.0191994030028581,-0.0083756102249026,1.0002533197402954,-0.0904101505875587,0.0086584677919745,-0.100498616695404,0.0003837136609945,-0.0014884810661897,0.0203054137527942,-0.3648481070995331,0.9188917875289916,0.013695822097361,0
8634,0.016797000542283,-0.0066464291885495,1.0017026662826538,-0.0786120221018791,-0.0753097087144851,-0.1515327990055084,0.0003100062313023,-0.0004950167494826,0.023569531738758,-0.4072845578193664,0.9190018177032472,0.0131637202575802,0
8644,0.017530433833599,-0.0083707133308053,0.9999351501464844,-0.023189540952444,0.1069351434707641,0.1686387062072754,0.0003028381324838,0.0002111228968715,0.0237777028232812,-0.4344518184661865,0.916195034980774,0.0147786410525441,0
8664,0.0181670133024454,-0.0071232626214623,1.0010160207748413,0.3136151432991028,-0.1206754222512245,0.2412099838256836,0.0003222788800485,0.0002332460135221,0.0238822046667337,-0.4334888458251953,0.916596293449402,0.0150090679526329,0
8694,0.0161011982709169,-0.0088743576779961,1.001719951629639,-0.1940809935331344,0.3112387955188751,-0.0202217679470777,-0.0003921375900972,-0.0007423263741657,0.0228526014834642,-0.3960311114788055,0.944591224193573,0.0145945707336068,0
8794,0.0181853808462619,-0.0065448954701423,0.9999094605445862,-0.0111433388665318,0.1589317917823791,-0.0378156416118145,0.0003428435011301,0.000438315764768,0.0219644382596015,-0.4499912858009338,0.9122299551963806,0.0186528712511062,0
8834,0.0167905129492282,-0.0052864928729832,0.9999610781669616,-0.1907447129487991,0.1284983456134796,0.0755668804049491,0.0003280672535765,-0.0005068460013717,0.0215017348527908,-0.4071612060070038,0.9178942441940308,0.0197880305349826,0
8844,0.0159959513694047,-0.0064074457623064,0.999219298362732,-0.0095759518444538,-0.0267260447144508,0.1128393784165382,0.0005598975694738,-0.001192677184008,0.0214663725346326,-0.3779542148113251,0.90840345621109,0.0203886311501264,0
8964,0.0169398933649063,-0.0075789173133671,1.000174641609192,0.0584463104605674,-0.3212288916110992,-0.0338689908385276,0.0003416678227949,0.0001902524672914,0.021850561723113,-0.4360968172550201,0.923246204853058,0.0250483900308609,0
9004,0.016036506742239,-0.0077490056864917,1.0003468990325928,0.1447957903146743,-0.5772363543510437,-0.0409040637314319,0.0003428082854952,-0.0004897663020528,0.0219718609005212,-0.4048886597156524,0.9160438179969788,0.0252422634512186,0
9094,0.0181522835046052,-0.0089564463123679,1.0002751350402832,0.0663368552923202,0.2832963764667511,-0.1418353617191314,0.0003796911914832,0.0001983914116863,0.0205575134605169,-0.4355936348438263,0.9228595495224,0.0292383804917335,0
9104,0.016074351966381,-0.0092318449169397,0.9992831945419312,-0.0967954769730568,0.0793099701404571,-0.0263671819120645,0.0003649358113761,-0.0005184375913813,0.0204629953950643,-0.4007942080497741,0.9232842326164246,0.0280392058193683,0
9124,0.0169125460088253,-0.0034432720858603,0.9993866682052612,-0.0771654322743415,0.3031258583068847,0.071359597146511,0.0003660010988824,-0.0012576481094583,0.0214232355356216,-0.3671802580356598,0.9234817624092102,0.0274332482367753,0
9174,0.0159892458468675,-0.006988319568336,1.002281904220581,0.0617255121469497,-0.1179312095046043,0.069272294640541,0.0003386986209079,-0.0012247068807482,0.0216856822371482,-0.3701386153697967,0.9258913993835448,0.0267338156700134,0
9264,0.0168676413595676,-0.0087659386917948,0.9992949962615968,-0.1877437829971313,0.2889381051063537,-0.0955223143100738,0.000390633882489,-0.0012903219321742,0.0219181980937719,-0.365352988243103,0.9254393577575684,0.0266580283641815,0
9284,0.0181275252252817,-0.007760155480355,1.0003207921981812,0.1403418183326721,0.1601797193288803,-0.1114904582500457,0.0001223683211719,-0.0012690634466707,0.0223541613668203,-0.3677165508270263,0.9382375478744508,0.025669815018773,0
9294,0.0188547298312187,-0.0072491373866796,0.9997445940971376,0.170507863163948,0.2355704754590988,-0.1218569129705429,0.0001223683211719,-0.0012690634466707,0.0223541613668203,-0.3677165508270263,0.9382375478744508,0.025669815018773,0
9344,0.016212373971939,-0.0053415694274008,1.000221848487854,0.0502667240798473,-0.0178573802113533,-0.0785420387983322,0.0003379227418918,-0.0005033382331021,0.0219709519296884,-0.3941019475460052,0.9312213063240052,0.0268848109990358,0
9434,0.017344968393445,-0.0054685282520949,1.0018610954284668,-0.0381630957126617,-0.0815438404679298,-0.036845289170742,0.0003510504611767,-0.0014320013578981,0.0213721897453069,-0.359178215265274,0.9320622086524964,0.0279586091637611,0
9454,0.016724394634366,-0.0070556323044002,0.999725341796875,0.2340779900550842,0.102275513112545,-0.0888093411922454,0.0003773394564632,-0.001494753290899,0.0213522277772426,-0.3591639101505279,0.9308249354362488,0.0291771683841943,0
9564,0.0164222903549671,-0.008123654872179,1.000486135482788,-0.0907680243253707,0.1374711096286773,0.1294534653425216,0.0003427921619731,0.0002202688046963,0.0232983659952878,-0.4341810345649719,0.92690771818161,0.0339868701994419,0
9714,0.0113452617079019,-0.0093339318409562,0.9832603931427002,-0.4957892000675201,0.0568948127329349,0.2998570203781128,0.0015922237653285,-6.863313319627196e-05,0.0218860302120447,-0.4128639101982116,0.8321124315261841,0.034287005662918,0
9724,0.0141117488965392,-0.0264856703579425,1.0025898218154907,-0.4986703097820282,0.4242699742317199,-0.1001040041446685,0.0015153571730479,1.6807404108476476e-06,0.0215090326964855,-0.4153380990028381,0.829592227935791,0.0327958203852176,0
9744,0.0105857532471418,0.0023426848929375,0.9746515154838562,1.3455376625061035,-1.1332578659057615,-0.6323896050453186,0.0012748142471536,0.0005041885888203,0.0214283857494592,-0.4325954914093017,0.8355488181114197,0.0346270017325878,0
9784,0.0085578327998518,-0.0201362445950508,0.998443841934204,-1.4287941455841064,-2.836848497390747,-1.0286129713058472,0.0016117979539558,0.0005225917557254,0.0202936697751283,-0.4045624136924743,0.8111147284507751,0.017725808545947,0
9874,0.0226412713527679,-0.0233698245137929,0.98659348487854,-3.24552583694458,-1.3120417594909668,-1.5819389820098877,0.0008720438927412,0.0019703856669366,0.0194558817893266,-0.3351403176784515,0.7300822734832764,0.0023977691307663,0
9884,0.0057813497260212,-0.0085955178365111,1.0053602457046509,-0.7895564436912537,-3.155728578567505,-0.123297095298767,0.0006520066526718,0.0021543845068663,0.0193674471229314,-0.3481942117214203,0.7312296628952026,-0.0122858239337801,0
9944,0.0064550223760306,-0.0127115538343787,1.0170029401779177,-10.88087272644043,-3.301098346710205,4.037814617156982,0.0020122078713029,0.003650241298601,0.0190009865909814,-0.3041157126426697,0.3903498947620392,0.0329753458499908,0
10014,0.0050051570869982,-0.0206235144287347,1.00959312915802,-2.635640859603882,-0.5768601894378662,1.3921327590942385,0.0001451673160772,0.0075245150364935,0.0188769195228815,-0.2830800414085388,0.6865568161010742,0.2006579339504242,0
10044,0.0121884578838944,-0.0119123887270689,1.0040007829666138,7.77689266204834,-2.871007442474365,4.701454639434815,-0.0035920247901231,0.0114447018131613,0.0208368878811597,-0.1741736233234405,0.8439190983772278,0.2895562648773193,0
10134,-0.0108889089897274,0.0006003296002745,1.077621579170227,24.114408493041992,9.825724601745604,8.612253189086914,-0.0112894885241985,0.011752251535654,0.0220243539661169,0.9895592331886292,-0.5070849061012268,1.0159945487976074,0
10194,0.0159049704670906,0.0237476751208305,1.012067198753357,-5.085503101348877,4.336300373077393,2.256796598434448,-0.0072736339643597,0.0094151366502046,0.0192640386521816,2.157586097717285,-1.4608360528945925,1.3810317516326904,0
10274,0.0102185476571321,0.013258084654808,1.0371109247207642,-16.26589012145996,-15.820660591125488,7.309110641479492,0.0058033871464431,-0.0056235454976558,0.0161440074443817,0.4787747859954834,-1.0937891006469729,1.8766639232635496,0
10354,0.0085758287459611,0.0015969357918947,1.0590838193893433,13.430800437927246,-10.200119972229004,5.808247089385986,0.0204440224915742,-0.0101512279361486,0.0267807524651289,0.2690607905387878,0.3436347544193268,2.334458351135254,0
10364,0.0088344728574156,-0.0081548923626542,1.0666931867599487,4.937039375305176,-8.851256370544434,4.795045852661133,0.0212996285408735,-0.0105093251913785,0.0280179847031831,0.3248033225536346,0.4408441185951233,2.3819684982299805,0
10474,0.0203366056084632,-0.0066904830746352,1.019024133682251,29.50246810913086,-27.137056350708008,3.8612773418426514,0.0323248021304607,-0.0136895757168531,0.0458730943500995,-0.7897924184799194,2.1052048206329346,2.802316904067993,0
10494,0.007644451688975,-0.0034222481772303,0.9852626323699952,20.23078727722168,-20.66847801208496,3.979307413101196,0.0332839302718639,-0.0130198653787374,0.047468077391386,-0.5524773597717285,2.370715856552124,2.8445916175842285,0
10624,0.0074804490432143,0.003999447915703,0.9713386297225952,22.1990966796875,-9.163426399230955,1.6561155319213867,0.0363967604935169,-0.0069190696813166,0.0712298825383186,-1.1989357471466064,1.434281587600708,3.2663381099700928,0
10634,0.0011535455705597,-0.0070536127313971,0.977026343345642,24.95227813720703,-10.232040405273438,1.3036848306655884,0.0354884974658489,-0.005876728799194,0.0740689858794212,-0.7849469184875488,1.692030906677246,3.300290822982788,0
10694,0.012556261382997,0.0090687116608023,0.9465234875679016,-2.5507400035858154,25.363201141357425,-1.868574976921081,0.0328886248171329,-0.0014799523632973,0.0848791003227233,-0.0902389585971832,1.334844708442688,3.298715829849243,0
10784,0.0134950429201126,0.0024674995802342,0.9762316942214966,13.960326194763184,1.3790377378463743,-2.74573302268982,0.0284770708531141,0.002587329596281,0.092749685049057,0.3917046189308166,0.0484123565256595,3.0190882682800293,0
10804,0.0084422780200839,-0.0096488473936915,0.9811972975730896,6.060390472412109,4.960396766662598,-1.9088876247406008,0.0277568809688091,0.0037643590476363,0.094691626727581,0.5587056279182434,-0.0104710683226585,2.9737091064453125,0
10864,0.013385385274887,-0.0121348751708865,1.0559206008911133,3.4992024898529053,8.06297492980957,-0.3833135068416595,0.0248925928026437,0.0065099317580461,0.100562185049057,0.6822959780693054,-0.5537928342819214,2.927441358566284,0
10924,0.020044844597578,-0.0132001778110861,1.059353232383728,2.946493625640869,-0.1717917472124099,-1.3519461154937744,0.0228269305080175,0.0085686407983303,0.1049179434776306,0.9442009329795836,-0.5937273502349854,2.8479082584381104,0
10964,0.0188913140445947,0.0037909315433353,1.0470389127731323,-1.7472251653671265,3.736201763153076,-0.9926947951316832,0.0220689699053764,0.0096787717193365,0.1099871844053268,0.9339515566825868,-0.7070402503013611,2.802915573120117,0
10974,0.0070336498320102,-0.0093650398775935,1.0631316900253296,-0.3900394141674042,4.16676139831543,-1.1701170206069946,0.0218251589685678,0.0099221337586641,0.1113349348306655,0.9248698949813844,-0.7488651275634766,2.792673349380493,0
11084,0.0186171103268861,-0.0013110968284308,1.0802708864212036,-6.294886112213135,-4.06906795501709,-0.3629208505153656,0.0196292493492364,0.0148386964574456,0.1273634880781173,0.8719388246536255,-0.5465974807739258,2.678896903991699,0
11104,0.0045586321502923,0.0081440452486276,1.0836716890335083,-5.403610229492188,1.3721539974212646,0.2035945355892181,0.0193959549069404,0.015288908034563,0.1322935074567794,0.7284113168716431,-0.4687178134918213,2.6702587604522705,0
11154,0.0041515971533954,-0.0143933771178126,1.0453689098358154,5.921483993530273,0.5820582509040833,-0.5811226963996887,0.0192210264503955,0.0152251906692981,0.1423337757587433,0.6823912858963013,-0.6122257709503174,2.679331064224243,0
11154,0.0041515971533954,-0.0143933771178126,1.0453689098358154,5.921483993530273,0.5820582509040833,-0.5811226963996887,0.0191315244883298,0.017510125413537,0.1445932686328888,0.6501428484916687,-0.6252642273902893,2.6619558334350586,0
11244,0.0001902575750136,-0.009725802578032,1.0364480018615725,-2.810752391815185,-3.949448347091675,0.7090780735015869,0.0195958819240331,0.0210001431405544,0.1619520783424377,0.7191252112388611,-0.29257932305336,2.597820520401001,0
11254,0.000934226787649,-0.0111148450523614,1.0416749715805054,-2.0726280212402344,-3.122641086578369,0.5080799460411072,0.0194478873163461,0.0225916001945734,0.1667470484972,0.6288392543792725,-0.2147703319787979,2.6002559661865234,0
11304,-0.0026691837701946,-0.0046965251676738,1.019291639328003,3.183140277862549,1.2613378763198853,0.4587608575820923,0.0237132310867309,0.0230098664760589,0.1769802272319793,0.6818303465843201,-0.341648519039154,2.6130926609039307,0
11404,0.0225572176277637,0.0271784402430057,0.9875519871711732,-7.255341529846191,-2.1337194442749023,0.7553234696388245,0.0269432663917541,0.0234393998980522,0.2063914090394973,0.4453408718109131,0.2445949912071228,2.6376888751983643,0
11494,0.0082860207185149,-0.0058105522766709,1.020003318786621,-3.489346027374268,-3.4747116565704346,-0.8828313946723938,0.0297461338341236,0.021905593574047,0.2322640120983123,0.2397522777318954,0.2269222140312194,2.66587233543396,0
11574,0.0079626813530921,-0.0039468486793339,0.985321879386902,-1.2976893186569214,1.809935927391052,-2.5057473182678223,0.0316115990281105,0.0239949002861976,0.2541440725326538,-0.0329128727316856,0.4437690377235412,2.576416254043579,0
11564,0.0094358306378126,0.0043549337424337,0.9843695759773254,-0.8425339460372925,0.0335580185055732,-2.0440194606781006,0.0316115990281105,0.0239949002861976,0.2541440725326538,-0.0329128727316856,0.4437690377235412,2.576416254043579,0
11574,0.0079626813530921,-0.0039468486793339,0.985321879386902,-1.2976893186569214,1.809935927391052,-2.5057473182678223,0.0286410842090845,0.0316467620432376,0.2598107457160949,-0.2387468218803405,0.4598916471004486,2.526336669921875,0
11704,0.0020245877094566,-0.0036662446800619,0.9912722110748292,-1.4767513275146484,2.0164308547973637,-1.9664597511291504,0.0310517698526382,0.0307152085006237,0.2907407879829407,0.302388995885849,0.1535989642143249,2.306140661239624,0
11724,0.005175266880542,0.0044164098799228,0.9971184730529784,-6.265578269958496,-0.3575911223888397,-1.7412214279174805,0.0306871850043535,0.0302773006260395,0.2960432767868042,0.2139583528041839,0.1481758505105972,2.274001121520996,0
11784,0.011818234808743,-0.0069250063970685,0.99211186170578,7.407862186431885,2.2378005981445312,-0.9994258880615234,0.0251029953360557,0.0226714480668306,0.3074989020824432,0.3279276490211487,0.306083470582962,2.1907920837402344,0
11884,0.0097357397899031,-0.001254899892956,1.0084656476974487,-6.512323379516602,-1.7768837213516235,-0.800899088382721,0.0257152374833822,0.0152925830334424,0.3361478447914123,-0.0692221075296402,-0.187230035662651,2.122814416885376,0
11894,0.0088082896545529,-0.0086426688358187,1.023429274559021,-3.197487592697144,-1.5999820232391355,-0.9794510006904602,0.0257152374833822,0.0152925830334424,0.3361478447914123,-0.0692221075296402,-0.187230035662651,2.122814416885376,0
11914,0.0081125311553478,0.0036321154329925,1.0107897520065308,1.49132239818573,-3.2699999809265137,-0.749763548374176,0.0271070841699838,0.0134132886305451,0.3439328670501709,-0.09782225638628,-0.1410559862852096,2.0975372791290283,0
12004,0.0120755843818187,-0.0096819140017032,1.00653076171875,-7.048778057098389,0.8447685241699219,-2.0792489051818848,0.0293119344860315,0.0060387616977095,0.3676768541336059,-0.4228208363056183,-0.2088834792375564,2.029939889907837,0
12054,0.0092871226370334,0.0102062793448567,1.0010571479797363,-0.6998721361160278,-2.0382120609283447,-0.621881365776062,0.0299974139779806,0.0029425648972392,0.3828815817832947,-0.5389009714126587,-0.0857379361987114,1.9920196533203125,0
12084,0.0131489904597401,-0.0108053674921393,0.9794516563415528,-3.09682035446167,0.7732997536659241,-0.7000110149383545,0.0302405320107936,0.0016979913925752,0.38743856549263,-0.5793440937995911,-0.072779856622219,1.973371982574463,0
12214,0.0084210699424147,-0.0223055426031351,1.0252892971038818,0.542044460773468,0.6843005418777466,-1.2779284715652466,0.0335969515144825,-0.010885925963521,0.4202660024166107,-0.7117555141448975,0.0594760291278362,1.851863980293274,0
12224,0.0115246521309018,0.0061285560950636,0.9949896931648254,-1.2632513046264648,3.4330532550811768,-0.771510899066925,0.0353782586753368,-0.0106886839494109,0.4228218197822571,-0.7246188521385193,0.0113739920780062,1.840803146362305,0
12234,0.0116325737908482,0.0068032331764698,0.9758417010307312,-3.312107801437378,3.182592868804932,-1.4615681171417236,0.0346445627510547,-0.01059649605304,0.4253705441951751,-0.7540160417556763,-0.0031597632914781,1.8258039951324463,0
12354,0.0112563055008649,-0.0093252100050449,0.9740740060806274,4.750252723693848,0.7372066378593445,-1.6543744802474976,0.0363646671175956,-0.0140128377825021,0.4551846981048584,-0.6467950940132141,0.0807635709643364,1.6166681051254272,0
12384,0.0048918891698122,0.0009603219805285,0.9466323852539062,5.192289352416992,1.0399028062820437,-1.4402039051055908,0.0377850867807865,-0.0180139411240816,0.4636086225509643,-0.445820540189743,0.0199520345777273,1.572266936302185,0
12404,0.0167067162692546,-0.0203012842684984,0.9624935984611512,3.900906801223755,-1.0507566928863523,-1.465461492538452,0.0338214933872222,-0.0164168644696474,0.4659417271614074,-0.4191746115684509,0.0538264885544776,1.5526115894317627,0
12414,0.0136702973395586,-0.0074035520665347,0.9529570937156676,2.525721788406372,-1.8277870416641235,-1.8413060903549197,0.0356223843991756,-0.0156126469373703,0.4682289659976959,-0.3929972052574157,0.0391631573438644,1.538082718849182,0
12524,0.0067439242266118,-0.0154706500470638,0.958907663822174,1.5484886169433594,0.1073716580867767,-0.7895123362541199,0.0373062640428543,-0.0060870754532516,0.4903426468372345,-0.5316876173019409,0.0218194015324115,1.3500937223434448,0
12544,0.013134628534317,-0.0102078961208462,0.9718344211578368,4.453742980957031,1.1894396543502808,-0.1051405146718025,0.0333250164985656,-0.0164987463504076,0.4936736524105072,-0.3717093169689178,0.0451968125998973,1.3419355154037476,0
12604,0.0072547956369817,-0.0188339333981275,0.9587975144386292,5.011451244354248,0.323748767375946,-0.6237764954566956,0.0389547199010849,-0.014287075959146,0.5012900233268738,-0.1438147723674774,-0.0432324595749378,1.3337485790252686,0
12684,0.0058630695566535,-0.0038969868328422,0.9480386972427368,-1.1437389850616455,-0.9825174808502196,-1.3425124883651731,0.0364020578563213,-0.007451775483787,0.5136066675186157,-0.2213747203350067,0.0385712534189224,1.2493491172790527,0
12724,0.0110791567713022,-0.0178290978074073,0.9640348553657532,5.189564228057861,-0.8402408957481384,-1.1827625036239624,0.0364123620092868,-0.0201484281569719,0.5178052186965942,-0.0420193709433078,0.0522222071886062,1.1995205879211426,0
12734,0.0168693680316209,-0.0186883434653282,0.9695969820022584,5.062991142272949,-0.4665917456150055,-1.2735316753387451,0.0362286046147346,-0.0172921512275934,0.5215693712234497,-0.0124302105978131,0.0644144117832183,1.185791015625,0
12884,0.0052927518263459,-0.0103935962542891,0.972908616065979,0.4108673334121704,1.1194965839385986,-0.1766674220561981,0.0280257407575845,-0.0470355972647666,0.5269484519958496,0.0646362677216529,-0.0011799804633483,1.1064233779907229,0
12894,0.0062466072849929,-0.0235511437058448,0.9972072243690492,-0.817173421382904,0.555361807346344,-0.0839120522141456,0.0279326494783163,-0.0475320145487785,0.5272802710533142,0.0768741592764854,-0.0072765205986797,1.1037306785583496,0
12964,-0.0011187696363776,0.0007758504943922,1.0172069072723389,-7.86721134185791,0.2846874296665191,0.3935881555080414,0.0301714707165956,-0.0479329191148281,0.527289092540741,-0.3644430935382843,-0.2004929333925247,1.1130996942520142,0
13064,0.0078558726236224,-0.0028452551923692,1.007691740989685,0.9218049645423888,0.4281987249851227,1.102642059326172,0.0371040515601635,-0.0501237921416759,0.5234105587005615,-0.700811505317688,-0.0450875125825405,1.173674702644348,0
13104,0.0322315581142902,-0.0546295344829559,0.9880282878875732,0.4140245020389557,1.378936529159546,1.6011368036270142,0.0390867516398429,-0.0469650104641914,0.5309487581253052,-0.70726078748703,-0.1470363736152649,1.233635663986206,0
13154,0.0108064031228423,-0.0152061460539698,1.0000879764556885,2.828334093093872,-3.07086181640625,0.6456207633018494,0.0413714088499546,-0.0457964986562728,0.5317074060440063,-0.6862305998802185,-0.0741549804806709,1.2749505043029783,0
13194,-0.005143117159605,-0.0181426797062158,0.9812814593315125,2.9479846954345703,-4.254391670227051,-0.2656894624233246,0.0494260303676128,-0.043456345796585,0.5382907390594482,-0.5673296451568604,0.0941134840250015,1.282894730567932,0
13284,0.005447769537568,-0.0096476599574089,0.9764417409896852,3.5212559700012207,0.3809597790241241,-0.0692314207553863,0.0549112893640995,-0.0376050248742103,0.5375514626502991,-0.1923358291387558,0.3458061516284942,1.2852782011032104,0
13304,0.0052267024293541,-0.0121251689270138,0.99388587474823,0.4900335669517517,1.4441035985946655,-0.2829384803771972,0.0569055639207363,-0.0360742807388305,0.5414396524429321,-0.1329518109560012,0.3056589663028717,1.2869232892990112,0
13444,0.0101371137425303,-0.0028002772014588,0.9851749539375304,0.1461494714021682,0.4976186454296112,0.4144466817378998,0.0631547942757606,-0.0216357093304395,0.5424864888191223,0.2210342735052108,0.4813118875026703,1.315200924873352,0
13484,0.011031468398869,-0.0205553341656923,0.9884783029556274,3.196280241012573,0.0518099814653396,-0.0232056770473718,0.0652473643422126,-0.0214615054428577,0.5436169505119324,0.2290442436933517,0.4607855081558227,1.3284367322921753,0
13524,-0.0130133731290698,-0.0170959308743476,1.0138628482818604,4.294427394866943,-0.1163856461644172,0.4758881032466888,0.0672786608338356,-0.0151068614795804,0.542226254940033,0.3674102425575256,0.4306932687759399,1.347498059272766,0
13584,0.0108764292672276,-0.0100841494277119,0.998320698738098,0.3543468415737152,-0.8822186589241028,0.3774292469024658,0.0701676979660987,-0.0101955309510231,0.5405831933021545,0.501321017742157,0.474562793970108,1.372721791267395,0
13634,0.015363248065114,-0.0079248901456594,1.0082650184631348,-0.0568929426372051,1.0110667943954468,0.3521809875965118,0.0701702982187271,-0.0046498272567987,0.5451430678367615,0.5304720401763916,0.4599628448486328,1.4118831157684326,0
13654,0.0089668007567524,-0.009052637964487,0.9916684031486512,0.9587957859039308,1.8296267986297607,-0.1183047965168953,0.0703328549861908,-0.000909800408408,0.5453552603721619,0.5194745659828186,0.4394433498382568,1.409976363182068,0
13774,0.0084526892751455,-0.0173001941293478,1.0068237781524658,-1.9847595691680908,0.1491612643003463,-0.7214663624763489,0.0756037980318069,0.0043742461130023,0.5552816390991211,0.6294952034950256,0.2871916890144348,1.3200575113296509,0
13794,0.0092033483088016,-0.0178963765501976,0.9869759678840636,-0.102927379310131,0.3445757329463959,-1.0968036651611328,0.07569220662117,0.0046202451921999,0.5557745695114136,0.6127440929412842,0.2876858115196228,1.3104772567749023,0
13854,0.0133030246943235,-0.0192077998071908,0.964013695716858,-0.7982950210571289,1.598289966583252,-0.6776059865951538,0.0761569365859031,0.0059638353995978,0.5551750659942627,0.6267180442810059,0.1891665160655975,1.2551831007003784,0
13864,0.0167365577071905,-0.020141378045082,0.9790452122688292,-1.118311882019043,0.3391866683959961,-1.13688862323761,0.0762239843606948,0.0061579430475831,0.5544911026954651,0.614912748336792,0.1727294027805328,1.2483701705932615,0
13944,0.0001822530612116,-0.0046281698159873,0.983367681503296,-2.784548044204712,-1.533348560333252,-0.6423482894897461,0.0787599682807922,0.0059969536960124,0.550320565700531,0.387562483549118,0.1702858507633209,1.173417091369629,0
13964,0.0056999828666448,-0.0080974651500582,0.9964035749435424,-2.096479654312134,-1.0933260917663574,-0.9642144441604614,0.0785805732011795,0.0040523633360862,0.5499700307846069,0.3654943108558655,0.17519411444664,1.1634849309921265,0
14044,0.0120043512433767,-0.0243328306823968,1.0477970838546753,-4.811365604400635,-1.4047390222549438,-0.2101558446884155,0.0785392299294471,0.0003537370939739,0.5462055802345276,0.1311407536268234,0.1960792243480682,1.161083459854126,0
14054,0.0134892165660858,-0.0189092867076396,1.0126564502716064,-3.425828218460083,-1.523100972175598,-0.2999516427516937,0.0785392299294471,0.0003537370939739,0.5462055802345276,0.1311407536268234,0.1960792243480682,1.161083459854126,0
14094,0.0155470082536339,-0.0193248987197875,1.0040048360824585,-0.0948177725076675,0.3389396667480469,-0.7387397289276123,0.0784504488110542,-0.0020245544146746,0.544830858707428,0.0454907789826393,0.2106066644191742,1.1403735876083374,0
14094,0.0155470082536339,-0.0193248987197875,1.0040048360824585,-0.0948177725076675,0.3389396667480469,-0.7387397289276123,0.0784567147493362,-0.0021109674125909,0.5445889234542847,0.0450510680675506,0.2097269296646118,1.1332881450653076,0
14134,0.0044810893014073,-0.0086714057251811,1.025962233543396,0.3556106388568878,1.5283184051513672,0.1223921775817871,0.0813515931367874,0.0006614712183363,0.5476401448249817,0.0776571929454803,0.1861238628625869,1.1181800365447998,0
14214,0.0106890993192791,-0.0075354408472776,1.014418363571167,-1.1642742156982422,0.2050957083702087,-1.3231195211410522,0.0820247232913971,-0.0049612410366535,0.5423066020011902,-0.1510071605443954,0.0997477620840072,1.0468147993087769,0
14254,0.0118525261059403,0.0037477160803973,0.9952019453048706,0.212031289935112,-0.0470722503960132,-0.242126390337944,0.0820726305246353,-0.0053705018945038,0.53985196352005,-0.1164991557598114,0.1034168526530265,1.0258443355560305,0
14374,0.0052806646563112,-0.0086727989837527,1.00821852684021,2.3211052417755127,-1.4527795314788818,-0.0767454132437706,0.0885744243860244,-0.0031490512192249,0.5445817708969116,-0.1674510389566421,0.0986312106251716,1.0026994943618774,0
14394,-0.0015382242854684,0.0025097914040088,1.0171343088150024,0.9290395379066468,-2.128716468811035,-0.2163436561822891,0.0887030661106109,-0.0031942271161824,0.5452500581741333,-0.1434153467416763,0.1375809013843536,0.9972580671310424,0
14394,-0.0015382242854684,0.0025097914040088,1.0171343088150024,0.9290395379066468,-2.128716468811035,-0.2163436561822891,0.0887030661106109,-0.0031942271161824,0.5452500581741333,-0.1434153467416763,0.1375809013843536,0.9972580671310424,0
14414,0.0180898960679769,-0.0411414690315723,0.9790168404579164,-1.187355637550354,-1.052331805229187,-0.4520896673202514,0.0888955220580101,-0.0032662341836839,0.5429873466491699,-0.1655583977699279,0.1601475179195404,0.989903211593628,0
14484,0.0089785484597086,-0.0103489896282553,0.9904231429100036,1.594233155250549,0.1256390661001205,-1.2364500761032104,0.0895456299185752,0.003654699306935,0.5454868674278259,-0.0798158422112464,0.056877389550209,0.9410908222198486,0
14534,0.0102940378710627,-0.0135301742702722,0.9991706609725952,0.5666728019714355,-1.2365853786468506,-0.0045382897369563,0.089913822710514,0.0041802730411291,0.5395811796188354,-0.0725419744849205,0.1283145695924759,0.9131309390068054,0
14614,0.0012153425486758,-0.0100240856409072,0.9854157567024232,2.255502939224243,-0.447101891040802,-0.1959373354911804,0.0933270826935768,0.0094306170940399,0.5467056035995483,0.001375233521685,0.1194231957197189,0.9062137603759766,0
14694,-0.0027656636666506,-0.0124962124973535,0.9804180860519408,1.9061988592147827,-0.1751081049442291,0.0649129226803779,0.0965452343225479,0.023958496749401,0.5423372387886047,0.1672131270170211,0.1747285425662994,0.8599052429199219,0
14724,0.0128640299662947,-0.0132207497954368,1.0091062784194946,0.0104761589318513,-0.5880663990974426,-0.1912624388933181,0.096773624420166,0.0249642170965671,0.5433666706085205,0.1699263304471969,0.2009515315294265,0.8457632660865784,0
14744,0.0055768671445548,-0.0101905986666679,1.002111554145813,3.717786073684693,-3.125236988067627,-1.2283183336257937,0.096773624420166,0.0249642170965671,0.5433666706085205,0.1699263304471969,0.2009515315294265,0.8457632660865784,0
14864,0.0053947945125401,-0.0173217393457889,1.015946865081787,1.0523297786712646,-1.3329976797103882,0.5054726004600525,0.1043992266058921,0.036262422800064,0.5382936596870422,0.410984456539154,0.1200765445828437,0.8185744881629944,0
14884,0.0126930624246597,-0.0227359123528003,1.0092045068740845,3.2920000553131104,-3.003880023956299,0.5935500264167786,0.1029182076454162,0.0338015221059322,0.5417438745498657,0.4851448535919189,0.1880296766757965,0.8364831805229187,0
14894,0.0114063266664743,-0.0126628009602427,1.0084925889968872,3.3522181510925293,-2.328226089477539,0.5495378375053406,0.1029870063066482,0.0340206064283847,0.5418004989624023,0.5239500403404236,0.2153051495552063,0.8389460444450378,0
14894,0.0114063266664743,-0.0126628009602427,1.0084925889968872,3.3522181510925293,-2.328226089477539,0.5495378375053406,0.1029870063066482,0.0340206064283847,0.5418004989624023,0.5239500403404236,0.2153051495552063,0.8389460444450378,0
15034,0.0043938755989074,-0.0179024767130613,1.0427634716033936,-0.9743571877479552,-0.3475552499294281,0.1648848205804824,0.1066958680748939,0.0406997762620449,0.5417515635490417,0.5555478930473328,0.1649741977453231,0.7959801554679871,0
15084,0.0163840427994728,-0.0030258866026997,1.004297137260437,-3.3435816764831543,1.6363698244094849,-0.1123262643814086,0.1035920679569244,0.0375127606093883,0.5411129593849182,0.5005306005477905,0.1458221971988678,0.7972731590270996,0
15154,0.0134362448006868,-0.0053386623039841,0.981115460395813,-0.4886271953582763,-0.4811051189899444,-0.0051343077793717,0.1063897535204887,0.0344919227063655,0.5450817942619324,0.2565494179725647,0.1399992257356643,0.7699999213218689,0
15214,0.0045810118317604,-0.0029470336157828,0.9713538885116576,-4.952393531799316,1.4838141202926636,-0.4831364154815674,0.106833204627037,0.0286904741078615,0.5468005537986755,0.1546966284513473,0.098437875509262,0.7559124231338501,0
15214,0.0045810118317604,-0.0029470336157828,0.9713538885116576,-4.952393531799316,1.4838141202926636,-0.4831364154815674,0.106833204627037,0.0286904741078615,0.5468005537986755,0.1546966284513473,0.098437875509262,0.7559124231338501,0
15224,0.0139841735363006,-0.0030773018952459,0.9700322151184082,-4.253671646118164,0.8669298887252808,-0.9819608330726624,0.1068455651402473,0.028568310663104,0.5468953251838684,0.1116026192903518,0.0893062502145767,0.7511663436889648,0
15354,0.0102603668347001,-0.0129441739991307,0.985942840576172,-1.4281553030014038,0.6438457369804382,-0.7936800122261047,0.1072864159941673,0.0215457919985055,0.5464381575584412,-0.2915377616882324,0.0656862631440162,0.637564480304718,0
15364,0.0164338666945695,-0.014890044927597,0.9885736107826232,0.0182931926101446,0.011206554248929,-0.3664396107196808,0.1072770282626152,0.0211632531136274,0.5441582202911377,-0.3060941994190216,0.0560605227947235,0.6237520575523376,0
15434,0.0171273183077573,-0.0033221626654267,1.006728172302246,0.448620468378067,0.7055248618125916,-0.6741623878479004,0.1077197566628456,0.0218172557651996,0.5366379022598267,-0.3418862819671631,0.0140274735167622,0.5786883234977722,0
15554,0.0109668830409646,0.0110215386375784,1.0163006782531738,3.141565322875977,-0.3661210536956787,-0.5124216675758362,0.1105433702468872,0.0295822881162166,0.5342744588851929,-0.2416355609893798,0.0394086502492427,0.5862353444099426,0
15594,0.0182353779673576,-0.0225551594048738,1.0071955919265747,2.9711740016937256,0.5429093837738037,-0.0281827673316001,0.1102388650178909,0.0306572467088699,0.5353106260299683,-0.1236385703086853,0.0613940320909023,0.5656201839447021,0
15624,0.0103587517514824,-0.019625961780548,1.0266417264938354,1.3234028816223145,0.4488475620746612,0.1265839189291,0.1135474070906639,0.0328669697046279,0.5384023189544678,-0.0638173073530197,0.0380113571882247,0.5668376088142395,0
15634,0.0032979361712932,-0.024023350328207,1.026929497718811,2.1309256553649902,0.939712941646576,0.3576349020004272,0.1135887280106544,0.0329783633351326,0.5386996865272522,-0.0426283329725265,0.0305597446858882,0.570825457572937,0
15744,0.024164130911231,-0.0053174109198153,0.9916810989379884,0.955431580543518,-0.8547306060791016,-0.517744779586792,0.113862819969654,0.0452592745423316,0.535921037197113,0.1499101668596267,0.0261552631855011,0.5075206756591797,0
15784,0.0108775040134787,-0.0028927095700055,0.9857320189476012,1.6369799375534058,-0.9481780529022216,-0.7990456819534302,0.1185467466711998,0.0466498509049415,0.535926342010498,0.187197208404541,0.0481057688593864,0.4721328616142273,0
15794,0.0111976489424705,-0.0025207661092281,0.995078146457672,0.289514422416687,-0.6269470453262329,-1.052255392074585,0.118597038090229,0.0467171259224414,0.5407724380493164,0.1920094788074493,0.0535736046731472,0.4626652002334595,0
15874,-0.002416493371129,-0.0112354382872581,0.9870953559875488,0.8535943627357483,-3.4594149589538574,-1.3598378896713257,0.1235827505588531,0.0577386617660522,0.5415391325950623,0.3305464088916778,0.1818791627883911,0.3931138813495636,0
15954,0.0112605597823858,-0.0155143188312649,0.9915555715560912,1.6778912544250488,0.7303966283798218,-0.6779707074165344,0.1247331947088241,0.061205081641674,0.5384340286254883,0.5188853740692139,0.2858529388904571,0.3272053003311157,0
15954,0.0112605597823858,-0.0155143188312649,0.9915555715560912,1.6778912544250488,0.7303966283798218,-0.6779707074165344,0.1247331947088241,0.061205081641674,0.5384340286254883,0.5188853740692139,0.2858529388904571,0.3272053003311157,0
16114,0.0047815460711717,-0.0094045884907245,0.9975857734680176,1.5497488975524902,-0.2149901688098907,-1.2579454183578491,0.1253638416528701,0.0745228603482246,0.5380260348320007,0.5911076664924622,0.2060342133045196,0.1572787463665008,0
16124,0.0148220732808113,-0.008847426623106,1.0064976215362549,0.6620716452598572,0.2345914095640182,-0.8318560719490051,0.1253638416528701,0.0745228603482246,0.5380260348320007,0.5911076664924622,0.2060342133045196,0.1572787463665008,0
16124,0.0148220732808113,-0.008847426623106,1.0064976215362549,0.6620716452598572,0.2345914095640182,-0.8318560719490051,0.1253848522901535,0.0747392177581787,0.5380107760429382,0.6026113629341125,0.2063001841306686,0.1471675783395767,0
16284,0.0154166594147682,-0.0158433839678764,1.000947117805481,-2.767613172531128,-1.8843817710876465,-0.5804839134216309,0.1281386613845825,0.0814434587955474,0.5363694429397583,0.5194537043571472,0.1570369154214859,0.0128432167693972,0
16314,0.0186941064894199,0.0035799655597656,0.9908373951911926,-2.087246894836426,1.126831293106079,0.3179137110710144,0.1281182616949081,0.0815851315855979,0.538445770740509,0.4547154903411865,0.1727230697870254,0.0082080392166972,0
16384,0.0130989663302898,-0.0091399997472763,0.9981073141098022,-1.5048528909683228,0.5348154902458191,-1.0009435415267944,0.128193199634552,0.079532079398632,0.5410528779029846,0.3494300246238708,0.0724231749773025,0.0109718646854162,0
16474,0.011228178627789,-0.0005522120627574,0.9840849041938782,-5.103030681610107,0.2605540752410888,-0.9726178646087646,0.131157174706459,0.0777148082852363,0.5327203273773193,0.1635166704654693,0.0978808850049972,-0.0174822080880403,0
16474,0.011228178627789,-0.0005522120627574,0.9840849041938782,-5.103030681610107,0.2605540752410888,-0.9726178646087646,0.131157174706459,0.0777148082852363,0.5327203273773193,0.1635166704654693,0.0978808850049972,-0.0174822080880403,0
16574,0.0170175824314355,-0.0077076982706785,1.0241777896881104,-1.446943759918213,0.903491735458374,-0.0019633695483207,0.1338518559932708,0.0774381980299949,0.5257025361061096,-0.0197149030864238,0.1634569615125656,-0.0541028305888175,0
16584,0.02050157263875,-0.0012015078682452,1.0103954076766968,-2.258678436279297,2.3275864124298096,0.2788703739643097,0.1316528916358947,0.0782117545604705,0.5253759026527405,-0.0462841838598251,0.1533453613519668,-0.0519498027861118,0
16654,0.0135459760203957,-0.0045215832069516,1.0228228569030762,4.4646897315979,-3.877495288848877,-0.6166131496429443,0.1311015337705612,0.075348176062107,0.5228906273841858,-0.1079478114843368,0.178135871887207,-0.0628290250897407,0
16694,0.0056000198237597,-0.0108265513554215,1.0426398515701294,-0.509161651134491,1.6532679796218872,-0.0143299363553524,0.1314742565155029,0.0805827304720878,0.5207210183143616,-0.0255304127931594,0.1796289533376693,-0.0736064612865448,0
16734,0.0182597152888774,-0.0136371441185474,1.014854907989502,-3.492220640182495,2.254121780395508,-0.5728123784065247,0.1355591714382171,0.0814366266131401,0.5204343199729919,-0.11940947920084,0.0544488094747066,-0.0767516419291496,0
16854,0.0174611341208219,-0.0095619158819317,0.9854017496109008,1.832764744758606,3.162687063217163,-1.4238792657852173,0.13194639980793,0.0876766592264175,0.5352296829223633,0.0445828773081302,-0.0053384252823889,-0.1268363744020462,0
16874,0.0077719194814562,-0.0124767264351248,0.975388765335083,2.7044684886932373,3.86017656326294,-1.2441974878311155,0.1310048997402191,0.092314600944519,0.5330972075462341,0.0662423372268676,-0.0741050988435745,-0.1521514356136322,0
16894,0.0068108914420008,-0.0106671592220664,0.9712194800376892,2.1095685958862305,1.4542211294174194,-0.9802822470664978,0.130947008728981,0.0924791544675827,0.5334318280220032,0.0947856679558754,-0.1001416072249412,-0.1642732769250869,0
17024,0.0122653348371386,-0.005248786881566,0.9868823885917664,-1.3429547548294067,0.0968330129981041,-1.045576810836792,0.1305440813302993,0.1022131145000457,0.5335129499435425,0.3331135511398315,-0.1290038228034973,-0.2870135307312011,0
17034,0.0116291642189025,0.0024904573801904,0.9784507155418396,-0.4409444332122803,-0.2893164455890655,-0.6737796664237976,0.1303415596485138,0.1055980026721954,0.5320962071418762,0.3070762157440185,-0.1203291267156601,-0.3053682446479797,0
17064,0.0079205818474292,-0.004932933486998,1.0074687004089355,1.303244948387146,0.1727163344621658,-0.1356104165315628,0.1302850395441055,0.1060892790555954,0.531760036945343,0.2944762408733368,-0.105123832821846,-0.3213997483253479,0
17064,0.0079205818474292,-0.004932933486998,1.0074687004089355,1.303244948387146,0.1727163344621658,-0.1356104165315628,0.1302594989538192,0.1063273623585701,0.5315820574760437,0.3047631680965423,-0.1023307740688324,-0.3231620192527771,0
17224,0.0283565483987331,-0.0096306530758738,1.0105911493301392,1.774603247642517,-0.0273512601852417,0.5409103631973267,0.1351087540388107,0.1179093122482299,0.5268193483352661,0.4762702882289886,-0.0207140725106,-0.3064238727092743,0
17374,0.0074570854194462,-0.0101925628259778,1.0007812976837158,-2.04552960395813,0.6604896783828735,-0.4124437570571899,0.1393467485904693,0.1230911165475845,0.5280205607414246,0.4617757797241211,0.0862229391932487,-0.253892183303833,0
17384,0.0037055723369121,-0.0099116340279579,0.9970422387123108,-1.4598581790924072,-0.2135336995124817,-0.092154823243618,0.1394660174846649,0.1233113035559654,0.5245712995529175,0.4473310708999634,0.0903887003660202,-0.256576269865036,0
17404,0.0077187549322843,-0.015890784561634,1.016560673713684,-0.8280504941940308,-2.855063199996948,-0.3618375062942505,0.1355713605880737,0.1234857216477394,0.5244017243385315,0.4259984791278839,0.159923106431961,-0.2650516629219055,0
17414,0.0119054391980171,-0.017291260883212,1.026037573814392,-0.131878986954689,-2.9724953174591064,-0.1054883599281311,0.1355713605880737,0.1234857216477394,0.5244017243385315,0.4259984791278839,0.159923106431961,-0.2650516629219055,0
17534,0.0072962390258908,-0.013619314879179,1.0436244010925293,-0.4782164692878723,-1.3443610668182373,-1.3963679075241089,0.1349802017211914,0.117971695959568,0.525537371635437,0.1434528827667236,0.1447011828422546,-0.3364607989788055,0
17544,0.0078269764780998,-0.0082081062719225,1.022852063179016,-0.171379417181015,-0.6124294400215149,-0.5259731411933899,0.1349573731422424,0.1179162859916687,0.5257663130760193,0.1427142918109893,0.14959716796875,-0.3423686623573303,0
17684,0.0120832342654466,-0.0138147426769137,1.0095833539962769,0.0149146011099219,-0.8441371917724609,-0.5632925033569336,0.1354691237211227,0.1159266158938407,0.5311548113822937,-0.0569178760051727,0.0092056402936577,-0.4689041078090668,0
17804,0.0108061991631984,-0.0147880930453538,0.964528262615204,-1.1198365688323977,-0.3715482354164123,-0.8851027488708496,0.1364496648311615,0.1183613538742065,0.5411010980606079,-0.2035596370697021,-0.0611136481165885,-0.5844640731811523,0
17804,0.0108061991631984,-0.0147880930453538,0.964528262615204,-1.1198365688323977,-0.3715482354164123,-0.8851027488708496,0.1364462524652481,0.1183419004082679,0.5415132641792297,-0.2145119160413742,-0.0597624108195304,-0.594710111618042,0
17854,0.0024469767231494,-0.0049798246473073,0.9535874128341676,4.055222988128662,-0.1626543849706649,-0.77711021900177,0.1351499557495117,0.1176714822649955,0.5346791744232178,-0.1700441539287567,0.0438142381608486,-0.62119460105896,0
17974,0.016105780377984,-0.0151319671422243,1.0201988220214844,3.807307004928589,-1.324795842170715,0.8670676350593567,0.1358848959207534,0.1275513172149658,0.5223811864852905,-0.1424692273139953,-0.0020675475243479,-0.6302237510681152,0
18074,0.005060264840722,0.0012333043850958,1.0278961658477783,2.3167712688446045,0.0706695020198822,0.7739437222480774,0.1356009989976883,0.1395609080791473,0.5162914991378784,0.2250897288322448,0.0605130046606063,-0.5391219854354858,0
18154,0.0183120407164096,-0.0162556804716587,1.0099307298660278,6.62750768661499,2.5375208854675293,1.242919921875,0.1361132115125656,0.1488396525382995,0.5158033967018127,0.4569929838180542,0.0317668989300727,-0.4806471765041351,0
18164,0.0064280740916728,-0.01977807469666,1.0306522846221924,6.120600700378418,-0.5599254965782166,0.638253927230835,0.1360802799463272,0.1489939391613006,0.5198060274124146,0.5197895765304565,0.0099448375403881,-0.4695191979408264,0
18304,0.0111181754618883,-0.0078364554792642,0.99104505777359,3.797894954681397,2.3937859535217285,-0.2240472137928009,0.1373921781778335,0.1687836199998855,0.5196511745452881,0.8362517356872559,-0.0418620631098747,-0.48895063996315,0
18324,0.0102516235783696,-0.0024389191530644,0.9859201908111572,1.8280484676361084,1.0508618354797363,-0.3987824916839599,0.1373962461948394,0.1691202670335769,0.5197464227676392,0.8497206568717957,-0.0522428825497627,-0.4946984052658081,0
18454,0.0016285796882584,-0.0088912611827254,1.001636624336243,-2.467977523803711,-2.2700119018554688,-0.3182633221149444,0.1430456340312957,0.1705910563468933,0.5178210735321045,0.7582456469535828,0.0494196116924285,-0.4793931245803833,0
18494,0.0115215759724378,-0.0030201287008821,1.004287838935852,-4.688080310821533,-1.77047598361969,0.5815179347991943,0.1438849717378616,0.1654141992330551,0.5207259654998779,0.5992892384529114,0.1445493549108505,-0.4835832417011261,0
18624,0.0108058648183941,-0.0165307857096195,1.002652287483215,-8.107077598571777,0.4544338583946228,0.0600631982088089,0.146581619977951,0.1597841531038284,0.5195494890213013,0.1621758788824081,0.1542174518108368,-0.4171677529811859,0
18664,0.008365198969841,-0.0105930343270301,1.0009114742279053,0.9525168538093568,-1.0756618976593018,0.7368893623352051,0.146528959274292,0.154805988073349,0.5190202593803406,0.0142822284251451,0.1661418080329895,-0.4056711792945862,0
18794,0.0098569132387638,-0.0025934290606528,0.9808498024940492,1.994264006614685,-0.4883948862552643,0.1389215141534805,0.1478074193000793,0.1517539322376251,0.5253309607505798,-0.273044228553772,0.0935098305344581,-0.3770531713962555,0
18804,0.008156512863934,-0.0104712564498186,0.9805428385734558,2.117013454437256,-0.8505120277404785,-0.4475031793117523,0.1451999247074127,0.1539484858512878,0.5278615951538086,-0.2479676902294159,0.1215382888913154,-0.3792861402034759,0
18834,0.0092131337150931,-0.0122118666768074,0.9795738458633424,-3.340648412704468,0.4737557172775268,-0.1724689155817031,0.1471860110759735,0.1532177478075027,0.5284201502799988,-0.2817566096782684,0.1334944814443588,-0.3842212557792663,0
18954,0.003347395453602,0.0021151211112737,0.9820418953895568,0.4392725527286529,0.5631925463676453,-0.1355212926864624,0.1456957310438156,0.1572505980730056,0.5249351859092712,-0.3156633079051971,0.0226365327835083,-0.4043591618537903,0
18964,0.0066638458520174,-0.0031506654340773,0.9938145875930786,1.346432089805603,-0.3610790073871612,0.1717866063117981,0.1455481350421905,0.1593181788921356,0.5245704054832458,-0.3149667680263519,0.0219584088772535,-0.4016212522983551,0
18974,0.0089101204648613,-0.0008584917522966,0.987359583377838,2.282550096511841,-1.451388955116272,0.6501405239105225,0.1476743966341018,0.1588653773069381,0.5257872343063354,-0.2912887036800384,0.0233191531151533,-0.3958665430545807,0
18984,0.0106909535825252,-0.0007686466560699,0.987600326538086,2.2208499908447266,-0.6294797658920288,0.0447300560772419,0.145261213183403,0.1583228111267089,0.5256553292274475,-0.2641894519329071,0.0443184711039066,-0.3943234384059906,0
19094,0.0170044656842947,-0.0125072002410888,1.0220811367034912,1.9817215204238887,-0.4867572784423828,1.3208848237991333,0.1471095532178878,0.1630104184150695,0.519373893737793,-0.0307115875184535,0.0537022612988948,-0.3618348836898803,0
19114,0.0094127124175429,-0.0143382456153631,1.0038703680038452,1.281901478767395,-1.789137840270996,1.082909345626831,0.1447318792343139,0.1663561314344406,0.5156899094581604,0.0140433888882398,0.0952126830816268,-0.3311795592308044,0
19134,0.0062188408337533,-0.0089251343160867,1.01556658744812,1.664993405342102,-0.8545567989349365,0.9202514290809632,0.1446316391229629,0.1666671633720398,0.5148648023605347,0.0422832779586315,0.1062953770160675,-0.3134157657623291,0
19144,0.0091381622478365,-0.0112896123901009,1.0424602031707764,1.460839033126831,-0.2066326141357422,1.0054908990859983,0.1448792368173599,0.1704067289829254,0.5144740343093872,0.0348796248435974,0.1033979356288909,-0.3041498064994812,0
19264,0.0166499838232994,0.0149442600086331,1.016471028327942,1.8891589641571045,0.875224232673645,1.300959587097168,0.1454764008522033,0.1778990775346756,0.5040027499198914,0.3203091919422149,0.0325278416275978,-0.165206179022789,0
19284,0.0193370729684829,-0.0127608701586723,1.0092840194702148,3.077115297317505,1.3556995391845703,1.8054111003875728,0.1457552164793014,0.1794400662183761,0.5031787753105164,0.3525399267673492,0.0199252571910619,-0.1326380670070648,0
19304,0.0037606975529342,-0.007078387774527,1.053017258644104,2.9135162830352783,1.2453620433807373,1.6033040285110474,0.1456714123487472,0.1799556761980056,0.5019958019256592,0.4069324433803558,-0.0017929873429238,-0.0965722501277923,0
19344,0.0090001057833433,-0.0097074033692479,1.0352604389190674,1.6778446435928345,-0.9163150191307068,1.1258100271224976,0.143447145819664,0.1804232597351074,0.5062114000320435,0.5603428483009338,0.0214987508952617,-0.0570477694272995,0
19434,0.0111211398616433,0.0003020749136339,1.010487079620361,2.254194498062134,-1.6020634174346924,-0.8093310594558716,0.1442005187273025,0.1873386055231094,0.5140789747238159,0.6069252490997314,-0.1340224891901016,-0.0114065716043114,0
19454,0.0051375469192862,-0.0105199366807937,1.015163540840149,2.541093349456787,-1.146375298500061,-0.699181079864502,0.1440278440713882,0.1890430450439453,0.5157656073570251,0.6729576587677002,-0.1004385277628898,-0.0323581881821155,0
19504,0.007086812518537,-0.0189494304358959,0.9993236064910888,-1.9584715366363523,1.2367619276046753,-0.8129243850708008,0.142978549003601,0.1909882426261901,0.5181602239608765,0.6739592552185059,-0.1507448554039001,-0.0728744119405746,0
19594,0.0094696599990129,-0.0067018321715295,0.9724140167236328,-3.064359426498413,-1.4094204902648926,-0.1654044687747955,0.1451349556446075,0.1904461532831192,0.5201751589775085,0.4597322642803192,-0.1325748115777969,-0.1301385164260864,0
19614,0.0093230903148651,-0.0125061860308051,0.9999290704727172,-2.276345014572144,-1.2665555477142334,-0.063639648258686,0.1447595953941345,0.1887840926647186,0.5204586386680603,0.4165633022785187,-0.0987948775291442,-0.1349772214889526,0
19704,0.003334445413202,-0.0103150373324751,0.9782925248146056,-3.1314918994903564,-0.3601725101470947,0.1013583540916442,0.1466735005378723,0.1860571056604385,0.5211707353591919,0.1814608722925186,-0.0264846421778202,-0.1348640620708465,0
19754,0.0031094327569007,-0.0041728476062417,0.9898318648338318,-2.4380762577056885,-1.5109096765518188,0.0737896114587783,0.1482733935117721,0.1846702396869659,0.5244902968406677,0.0856487900018692,0.0470931679010391,-0.12471404671669,0
19774,0.0032696502748876,-0.0078086634166538,0.9971579313278198,-1.6992406845092771,-1.8976695537567136,-0.8629911541938782,0.1483411490917205,0.184547945857048,0.5245347619056702,0.0723824352025985,0.065110296010971,-0.1342655271291732,0
19824,0.0056823203340172,-0.0083240354433655,0.9901983141899108,-2.644163131713867,1.1867274045944214,0.3921441435813904,0.1505400985479354,0.1844764202833175,0.5256614685058594,0.0282721556723117,0.0611343644559383,-0.1459580659866333,0
19924,0.0085353087633848,-0.0111762145534157,0.9781203866004944,-2.01238751411438,0.2943895757198334,0.4735039174556732,0.1521435678005218,0.1837283670902252,0.5233967304229736,-0.0956311076879501,0.1792266517877578,-0.1335155069828033,0
19964,0.0146773196756839,-0.0202219579368829,0.990667164325714,-0.5707224011421204,-2.14016056060791,-0.0160956867039203,0.1552755534648895,0.1837990880012512,0.518179714679718,-0.1501407921314239,0.1755487322807312,-0.124086894094944,0
19994,0.017822390422225,-0.0048470213077962,0.9929620027542114,-0.6370947360992432,-2.186961889266968,0.0294967368245124,0.157545194029808,0.1837812662124633,0.5174435973167419,-0.1381498575210571,0.2047286480665207,-0.1210382431745529,0
20104,0.0132956132292747,-0.002111560665071,1.0064762830734253,3.6534249782562256,-1.5675349235534668,0.2433653324842453,0.1587940454483032,0.1935039609670639,0.5129361152648926,-0.054490640759468,0.2604509890079498,-0.0951541513204574,0
20124,0.0100017413496971,-0.0099802818149328,1.0273799896240234,4.188587188720703,-0.2077799439430236,0.4090931117534637,0.1577837914228439,0.1987269073724746,0.5123429894447327,0.0057789683341979,0.3040791153907776,-0.0899230986833572,0
20254,0.0152998818084597,-0.0173575822263956,1.0054727792739868,2.7304046154022217,2.0749411582946777,0.5012146830558777,0.1587210893630981,0.2082489132881164,0.5078649520874023,0.3797783851623535,0.2383879125118255,-0.0084999650716781,0
20264,0.0123511627316474,-0.0208218488842248,1.019299030303955,2.924565076828003,1.6583858728408811,0.403361439704895,0.158728078007698,0.2084964513778686,0.5078415274620056,0.4098743796348572,0.223748505115509,-0.005889038555324,0
20274,0.0114234564825892,-0.0171805210411548,1.0504436492919922,2.544295072555542,-0.127175748348236,0.3519547581672668,0.1587641984224319,0.2126620709896087,0.5099988579750061,0.446422278881073,0.2145436704158783,0.0019609711598604,0
20364,0.0076842908747494,-0.0080602718517184,1.003299593925476,1.305202841758728,2.5338134765625,0.7234605550765991,0.1560754776000976,0.2134425193071365,0.5119685530662537,0.599323034286499,0.1611286699771881,0.0078583844006061,0
20424,0.0011103359283879,-0.0042117945849895,0.9746130108833312,1.7123494148254397,1.9086321592330933,-0.7081592082977295,0.1558588296175003,0.2194063663482666,0.515521764755249,0.6198590397834778,0.0002993214584421,0.0066715972498059,0
20434,0.0044837077148258,-0.0042241201736032,0.9791741967201232,0.9792457222938538,1.4699121713638306,-0.1524345576763153,0.1557850688695907,0.2195940911769867,0.5158178210258484,0.6269525289535522,-0.015527038834989,0.0023917278740555,0
20554,0.0063066827133297,-0.0087565910071134,1.003570795059204,-1.553609848022461,0.8243650794029236,0.4563411772251129,0.1552017778158188,0.218594342470169,0.5082006454467773,0.5286347270011902,-0.1749867349863052,0.0383413285017013,0
20564,0.0026686207856982,-0.0098919412121176,1.0073782205581665,-1.5779112577438354,1.1932494640350342,0.60783851146698,0.1552017778158188,0.218594342470169,0.5082006454467773,0.5286347270011902,-0.1749867349863052,0.0383413285017013,0
20574,0.006812026258558,-0.0073971105739474,1.0061005353927612,-4.245260238647461,1.256621479988098,0.6874023675918579,0.1533813029527664,0.217428520321846,0.5066062808036804,0.4745126366615295,-0.1904155611991882,0.0518948808312416,0
20704,0.015417062677443,-0.0157206654548645,1.0189300775527954,-3.623613595962525,0.7411848902702332,0.1747891902923584,0.1552286297082901,0.2130321860313415,0.506081223487854,0.2693852484226227,-0.1432112008333206,0.0830309316515922,0
20734,0.0219135731458663,-0.025117615237832,0.9875837564468384,-2.8865396976470947,-0.9366305470466614,-0.4154867529869079,0.1552831083536148,0.2111586779356002,0.5102199912071228,0.1676932275295257,-0.1512227952480316,0.0880434811115264,0
20804,0.0022105076350271,-0.0122309466823935,1.0060312747955322,-1.4398027658462524,-1.0412559509277344,0.1147036105394363,0.1597888767719268,0.2096018493175506,0.5102350115776062,0.0436901859939098,-0.0749342516064643,0.0663489997386932,0
20914,0.0066540092229843,-0.0321310572326183,1.0036885738372805,-0.7717933654785156,0.5330781936645508,0.3245666027069092,0.1670065820217132,0.205575093626976,0.5127354264259338,-0.1465584635734558,0.0724688693881034,0.0336024314165115,0
20914,0.0066540092229843,-0.0321310572326183,1.0036885738372805,-0.7717933654785156,0.5330781936645508,0.3245666027069092,0.1670065820217132,0.205575093626976,0.5127354264259338,-0.1465584635734558,0.0724688693881034,0.0336024314165115,0
20934,0.0068165902048349,-0.0106796277686953,0.9897670149803162,-1.3090091943740845,-0.2442658841609954,0.5116037726402283,0.1640051454305648,0.2061177194118499,0.5130683779716492,-0.1814096868038177,0.0879350751638412,0.0376035794615745,0
21074,0.0112149808555841,-0.0145093388855457,1.0046145915985107,2.9047813415527344,-0.901221752166748,-0.6755024194717407,0.1708270609378814,0.2089820057153701,0.5147901773452759,-0.2295371443033218,0.2641994059085846,-0.0029689110815525,0
21244,0.0014166163746267,-0.0014509070897474,1.0012446641921997,2.197075366973877,0.747845470905304,-0.2150367349386215,0.173381507396698,0.2242230325937271,0.5140034556388855,0.161459282040596,0.2946223318576813,-0.0460408106446266,0
21274,0.0065877065062522,-0.0125989289954304,1.0070757865905762,2.2539539337158203,-0.0379590988159179,0.2797774970531463,0.173566535115242,0.2256580293178558,0.5135459303855896,0.2049660235643386,0.269379198551178,-0.0485497005283832,0
21364,0.003310129744932,-0.0112469429150223,1.009533166885376,1.463965892791748,-0.6114461421966553,0.5808632969856262,0.1695979684591293,0.2343982607126236,0.5126174688339233,0.4025460481643677,0.2026269137859344,-0.0187541674822568,0
21444,0.0121667003259062,-0.0041262549348175,1.013197660446167,1.1273183822631836,3.250274896621704,-0.2047190517187118,0.168873593211174,0.2438049912452697,0.5129407644271851,0.5407649278640747,0.0153544414788484,0.0065456461161375,0
21444,0.0121667003259062,-0.0041262549348175,1.013197660446167,1.1273183822631836,3.250274896621704,-0.2047190517187118,0.168873593211174,0.2438049912452697,0.5129407644271851,0.5407649278640747,0.0153544414788484,0.0065456461161375,0
21484,0.0079732555896043,-0.0075040501542389,1.000922441482544,2.2181715965271,3.3976001739501958,-0.6098904609680176,0.1667501777410507,0.2433682531118393,0.5138083100318909,0.6116390228271484,-0.0471053346991539,-0.0031051093246787,0
21514,-0.0002695169241633,-0.0037551096174865,0.9937369227409364,1.478762984275818,1.7860957384109497,0.4078792929649353,0.1649516969919204,0.2447336465120315,0.5139824151992798,0.6729125380516052,-0.1076186671853065,0.0045147174969315,0
21604,-0.00459615746513,-0.0139515530318021,0.99972003698349,-1.7584627866744995,1.624808669090271,-0.1276900321245193,0.1644035279750824,0.2478955388069152,0.5104705691337585,0.6223930716514587,-0.1108577400445938,0.0143146431073546,0
21614,0.0078813210129737,-0.0134465573355555,0.9954046607017516,-2.5761632919311523,1.0898866653442385,-0.2422226518392563,0.1622459441423416,0.2484012693166732,0.5105267763137817,0.5772783756256104,-0.1312025785446167,0.0102155059576034,0
21634,0.0148990182206034,-0.0177215598523616,1.009951114654541,-2.0218231678009038,0.1017865315079689,0.0595410801470279,0.1623065322637558,0.2463365048170089,0.5104095339775085,0.5517627596855164,-0.1377640515565872,0.0073553272522985,0
21764,0.0248157698661088,0.0111189559102058,0.9894711375236512,-0.4217590093612671,-0.1561683267354965,-0.3892878293991089,0.1619393974542617,0.246231660246849,0.5062509179115295,0.3493015766143799,-0.1848782449960708,-0.0287290010601282,0
21794,0.007369415834546,-0.0069442703388631,1.0065441131591797,-1.7048180103302002,0.4097573459148407,-0.2093169242143631,0.1617762595415115,0.2460457384586334,0.5069348216056824,0.3300546705722809,-0.1881120949983596,-0.0402805246412754,0
21794,0.007369415834546,-0.0069442703388631,1.0065441131591797,-1.7048180103302002,0.4097573459148407,-0.2093169242143631,0.1617262661457061,0.2459754198789596,0.5069854855537415,0.3136751055717468,-0.1910546422004699,-0.0432495884597301,0
21814,0.0029107201844453,-0.0014355422463268,0.994453489780426,-2.9365363121032715,-0.4073891639709472,-0.452700525522232,0.1616795510053634,0.2458995282649994,0.5070466995239258,0.290370225906372,-0.2054642885923385,-0.0479408614337444,0
21924,0.0118652954697608,-0.012981685809791,0.9960599541664124,-3.729316234588623,-1.688518524169922,-0.9522044658660888,0.16143798828125,0.2386187016963958,0.5148403644561768,0.0384711027145385,-0.1723257899284362,-0.1056254282593727,0
21934,0.0112821143120527,-0.0159595254808664,0.990767776966095,-3.821303129196167,-1.3491021394729614,-1.526457667350769,0.1641556471586227,0.2393241673707962,0.5156329870223999,-0.0356769561767578,-0.1597544699907302,-0.1310905665159225,0
21944,0.0081559559330344,-0.0246400907635688,0.9923897385597228,-1.935463786125183,-1.1907025575637815,-1.4583969116210938,0.1641556471586227,0.2393241673707962,0.5156329870223999,-0.0356769561767578,-0.1597544699907302,-0.1310905665159225,0
22074,0.0089718829840421,-0.0087042851373553,0.9894216656684875,-0.3295668661594391,-0.1185588762164115,-0.5325099229812622,0.165479376912117,0.2362038642168045,0.507159411907196,-0.2905523777008056,-0.0679705888032913,-0.2457341849803924,0
22084,0.0111308069899678,-0.0139330849051475,0.9946275353431702,-0.0020225320477038,0.2119220495223999,-0.5389024615287781,0.1655527055263519,0.236056238412857,0.5068420767784119,-0.2920635938644409,-0.0716310739517211,-0.2518945038318634,0
22134,-0.0068866503424942,-0.0173813086003065,1.0144357681274414,-0.5915906429290771,-3.941251277923584,-0.2990725338459015,0.1677912771701812,0.2359149008989334,0.5039523839950562,-0.3100076019763946,0.047543965280056,-0.2525952160358429,0
22144,0.0007745815091766,-0.014782665297389,1.0162813663482666,1.22463858127594,-3.2470545768737797,-0.2944898009300232,0.1678944528102874,0.2358053028583526,0.5035863518714905,-0.2985114157199859,0.0803168192505836,-0.2543397545814514,0
22154,0.0094392625615,-0.0091164540499448,1.017467021942139,1.227353572845459,-2.8064513206481934,-0.1803853958845138,0.1671584695577621,0.2386815547943115,0.5032352805137634,-0.302752286195755,0.1094244197010994,-0.255551129579544,0
22144,0.0007745815091766,-0.014782665297389,1.0162813663482666,1.22463858127594,-3.2470545768737797,-0.2944898009300232,0.1671584695577621,0.2386815547943115,0.5032352805137634,-0.302752286195755,0.1094244197010994,-0.255551129579544,0.0
22164,0.0105998674407601,-0.0047533768229186,1.0090196132659912,-0.5275422930717468,-0.5557531118392944,0.4973845481872558,0.1698188185691833,0.2389248013496399,0.5048367381095886,-0.3094955086708069,0.0995751395821571,-0.2524475157260895,0
22294,0.0187362097203731,-0.0059626903384923,1.0062661170959473,2.3634886741638184,-0.0731212720274925,0.0568197444081306,0.1748939603567123,0.2466286420822143,0.5024698972702026,-0.0815814137458801,0.3124753832817077,-0.2172994166612625,0
22314,0.0045905485749244,-0.009868761524558,1.0196162462234497,0.6131488680839539,0.2777885198593139,-0.381085455417633,0.1749577671289444,0.2488684058189392,0.5063267946243286,-0.0457626990973949,0.3019221723079681,-0.2250214964151382,0
22364,0.0114663848653435,-0.0081977862864732,0.9984146356582642,3.348017930984497,-0.1628652065992355,-0.2471352964639663,0.174016535282135,0.2544381618499756,0.505642831325531,0.0210012830793857,0.3219864070415497,-0.2409779727458953,0
22464,0.0075267031788825,-0.002727193525061,0.9896195530891418,3.328428268432617,1.676574468612671,-0.9874854683876038,0.172596275806427,0.2695782780647278,0.5046786665916443,0.3382453322410583,0.2648234665393829,-0.3140504360198974,0
22494,0.0086640855297446,-0.0108371376991271,0.99052894115448,4.389246940612793,1.4993594884872437,-0.9716886878013612,0.1727178990840912,0.2738895714282989,0.5046377182006836,0.4395865499973297,0.2203817367553711,-0.3450709283351898,0
22504,0.0148890735581517,-0.0121112121269106,0.9977511763572692,3.279082536697388,0.5946261286735535,-0.6463903188705444,0.1727015078067779,0.2742972671985626,0.5039651989936829,0.4711452424526214,0.2113803923130035,-0.3531593978404999,0
22644,0.0148926200345158,-0.0105817848816514,1.0130232572555542,1.721482753753662,2.4987001419067383,-0.1702076643705368,0.1692300140857696,0.2840582728385925,0.5046777129173279,0.8092437386512756,0.0079202288761734,-0.4376749992370605,0
22654,0.0107287168502807,-0.0089322952553629,1.0114052295684814,1.3541505336761477,3.4503464698791504,-0.5917437076568604,0.1698829680681228,0.285904198884964,0.5048878788948059,0.8357962965965271,-0.0575582757592201,-0.4447997510433197,0
22774,0.0034524805378168,-0.0068370960652828,1.0072786808013916,-3.2247326374053955,1.0954921245574951,-0.360971450805664,0.1668203473091125,0.2865368723869324,0.5021585822105408,0.7469151020050049,-0.2028694301843643,-0.4881435632705688,0
22834,0.0083740446716547,-0.0022013674024492,1.0142531394958496,-3.757183790206909,0.3410836458206177,-0.9752817749977112,0.166375383734703,0.282153457403183,0.503502607345581,0.6154677867889404,-0.1897424757480621,-0.5201317071914673,0
22884,0.0268736686557531,-0.0001141407847171,0.9968755841255188,-5.63842248916626,-0.6168560981750488,-0.4691818058490753,0.1662887334823608,0.2777650356292724,0.504743754863739,0.4371657967567444,-0.1745763421058654,-0.5141922235488892,0
22964,0.0140243060886859,-0.006864970549941,1.0121456384658811,-5.655012130737305,1.2735671997070312,0.0889673382043838,0.1651123017072677,0.27150958776474,0.5092050433158875,0.062836468219757,-0.0783215686678886,-0.5356408953666687,0
22964,0.0140243060886859,-0.006864970549941,1.0121456384658811,-5.655012130737305,1.2735671997070312,0.0889673382043838,0.167718231678009,0.2706157565116882,0.5094910264015198,0.0079188058152794,-0.1020730137825012,-0.5349919199943542,0
22974,0.017976215109229,-0.008337271399796,0.993720293045044,-5.570203304290772,1.2539616823196411,-0.0528986565768718,0.1655340194702148,0.2719114422798157,0.5097759366035461,-0.0531141608953475,-0.1014601439237594,-0.5364265441894531,0
23114,0.019951369613409,-0.0012226735707372,0.9914469718933104,-1.9057363271713257,-1.1139451265335083,-0.2527773082256317,0.1714601516723632,0.2658249735832214,0.5069975852966309,-0.4835683405399322,0.0031336594838649,-0.589709997177124,0
23134,0.0109116751700639,-0.0099488627165555,0.997922420501709,-0.4571149051189422,-1.4861862659454346,-0.4436045885086059,0.1711246520280838,0.2640371918678283,0.5069076418876648,-0.4798215627670288,0.0181459560990333,-0.5932415723800659,0
23274,0.0091809052973985,-0.0200763791799545,1.019955277442932,3.067710876464844,-0.619613766670227,0.556347131729126,0.1761521250009536,0.2659577131271362,0.5016146302223206,-0.4382908642292022,0.1748128533363342,-0.6132752299308777,0
23294,0.019227035343647,-0.0182789880782365,1.0193994045257568,2.8387820720672607,-0.5871302485466003,0.5364044308662415,0.1781996041536331,0.2692673206329345,0.4978532791137695,-0.3615381717681885,0.1702684760093689,-0.5975404381752014,0
23304,0.0231205951422452,-0.0177803952246904,1.0068416595458984,1.821960687637329,-0.2021421194076538,0.6957935690879822,0.1778461337089538,0.2708471119403839,0.497544914484024,-0.3475089073181152,0.1787024587392807,-0.5926609039306641,0
23454,0.0101141761988401,-0.0169243458658456,1.0287355184555054,3.94226598739624,0.5950807929039001,0.4445431232452392,0.1811957061290741,0.2814971208572387,0.4970307946205139,0.1052015796303749,0.2448576241731643,-0.5670523643493652,0
23464,0.0090735796838998,-0.0124673414975404,1.0291945934295654,4.635329723358154,0.8892465829849243,0.9372161030769348,0.1812451034784317,0.2817232310771942,0.4994148015975952,0.1465200036764145,0.2428139895200729,-0.5603535175323486,0
23604,0.0025824590120464,-0.0039788573049008,0.9814477562904358,3.741875171661377,0.2463005781173706,-0.3728546798229217,0.182300716638565,0.2944496870040893,0.5063791871070862,0.4899311363697052,0.1650389283895492,-0.5480042099952698,0
23754,0.0117399431765079,-0.0067261401563882,1.0047248601913452,-0.5582539439201355,0.1670981049537658,0.1348397433757782,0.1768908053636551,0.3045471608638763,0.5076471567153931,0.6365529894828796,0.0318281389772892,-0.5699042081832886,0
23764,0.0091099757701158,-0.0109376413747668,0.9947614669799804,0.1136617511510849,1.7437204122543335,0.439808189868927,0.1768908053636551,0.3045471608638763,0.5076471567153931,0.6365529894828796,0.0318281389772892,-0.5699042081832886,0
23794,0.0097066452726721,-0.011385322548449,1.0020123720169067,-1.0182448625564575,2.854727268218994,0.2355972677469253,0.1751742213964462,0.3048508167266845,0.5073435306549072,0.6472578048706055,-0.0093315495178103,-0.5576975345611572,0
23844,0.0059434683062136,-0.0134911127388477,1.0054882764816284,-2.789156436920166,-0.5055281519889832,0.1095020323991775,0.1746349930763244,0.3055429756641388,0.5103551149368286,0.5793511867523193,-0.0159319397062063,-0.5329080820083618,0
23934,0.008747630752623,-0.0039399792440235,1.0011861324310305,-0.6512126326560974,-0.5949351191520691,0.3265023529529571,0.1733261942863464,0.3070548176765442,0.5046385526657104,0.4199042022228241,-0.1380909085273742,-0.5180155038833618,0
23954,0.0029560166876763,-0.006974377669394,1.004537582397461,-0.2277987152338028,-1.4826388359069824,0.2040288895368576,0.1731241941452026,0.3071560263633728,0.5042740702629089,0.407478928565979,-0.1157754212617874,-0.5159643292427063,0
24104,0.0066009601578116,-0.0100344652310013,0.9855513572692872,-0.3497205972671509,0.6464748978614807,0.2891362011432647,0.1743026822805404,0.3075305223464966,0.5054420828819275,0.2424512952566146,-0.0495578572154045,-0.4596429467201233,0
24134,0.0068490337580442,0.0011459010420367,0.9772985577583312,-2.599997043609619,-0.1215624138712883,0.490808755159378,0.1740058660507202,0.3055917918682098,0.505405604839325,0.1693519055843353,-0.0646539255976677,-0.4488144218921661,0
24134,0.0068490337580442,0.0011459010420367,0.9772985577583312,-2.599997043609619,-0.1215624138712883,0.490808755159378,0.1740058660507202,0.3055917918682098,0.505405604839325,0.1693519055843353,-0.0646539255976677,-0.4488144218921661,0
24184,0.0157337244600057,-0.0042314608581364,1.0069819688796997,-0.8903876543045044,0.1347604244947433,0.7851779460906982,0.1737812459468841,0.3052214384078979,0.5006614923477173,0.0732638239860534,-0.0106431581079959,-0.4288814961910248,0
24304,0.010808334685862,-0.004189102910459,1.0043660402297974,0.3930793702602386,-0.2266142964363098,-0.2735430598258972,0.178952008485794,0.3071781396865845,0.5002589225769043,-0.0902350023388862,0.0246781110763549,-0.4004744589328766,0
24324,0.0089140515774488,-0.0100637776777148,1.0312669277191162,-0.0361267402768135,0.0386384725570678,0.3265395164489746,0.1790145188570022,0.307142436504364,0.4982023537158966,-0.0828572362661361,0.0265899021178483,-0.4036879241466522,0
24374,0.0100514516234397,7.43744894862175e-05,1.0136983394622805,0.5291820168495178,-1.2964154481887815,-0.6486664414405823,0.1792605817317962,0.3070034682750702,0.4972684383392334,-0.1180869191884994,0.0761054158210754,-0.3932026624679565,0
24384,0.0134743982926011,-0.0037894384004175,1.0143827199935913,0.638757586479187,-1.2499243021011353,-0.285453200340271,0.1792605817317962,0.3070034682750702,0.4972684383392334,-0.1180869191884994,0.0761054158210754,-0.3932026624679565,0
24474,0.001629602513276,-0.0092752920463681,1.028675556182861,1.579683780670166,-2.236029148101806,0.0431046597659587,0.1825386881828308,0.3092390894889831,0.4927280843257904,-0.0574034266173839,0.1242791786789894,-0.3863192498683929,0
24574,0.011871101334691,-0.0018873157678171,1.019607663154602,2.0200533866882324,0.2194709032773971,0.3754424452781677,0.1844043880701065,0.316805750131607,0.4940325617790222,0.0947936251759529,0.2012420296669006,-0.4000973403453827,0
24664,-0.0052085118368268,-0.0118206581100821,1.0216028690338137,-0.2148526012897491,1.7925654649734497,-0.2319085150957107,0.1816085427999496,0.3240698277950287,0.4991212487220764,0.2438705563545227,0.2275069504976272,-0.4055018723011017,0
24664,-0.0052085118368268,-0.0118206581100821,1.0216028690338137,-0.2148526012897491,1.7925654649734497,-0.2319085150957107,0.1816085427999496,0.3240698277950287,0.4991212487220764,0.2438705563545227,0.2275069504976272,-0.4055018723011017,0
24804,0.0142430607229471,-0.0123861348256468,0.9665125608444214,0.5935447812080383,0.5560513734817505,-1.177297592163086,0.1790943145751953,0.336268812417984,0.5111043453216553,0.5095151662826538,0.0176853835582733,-0.4938359260559082,0
24824,0.0122802499681711,-0.0080683501437306,0.9810374975204468,-0.2916423678398132,2.979961633682251,-1.3703097105026243,0.179630622267723,0.3386963605880737,0.5121213793754578,0.509810209274292,-0.0007459154003299,-0.5202153325080872,0
24894,0.0197220239788293,-0.0114514390006661,0.9662716388702391,-0.9931171536445618,1.362354040145874,-0.7390938401222229,0.1771240234375,0.3397612273693084,0.5020294785499573,0.555517315864563,-0.0840611383318901,-0.5573980808258057,0
24994,0.0095368288457393,-0.0086349891498684,1.0204732418060305,-0.8081896901130676,1.0401288270950315,0.0906805023550987,0.1748630106449127,0.3430393934249878,0.5012162327766418,0.460733413696289,-0.1437876373529434,-0.5587183833122253,0
25014,0.0122579922899603,-0.0138900801539421,1.0097655057907104,-1.0091650485992432,-1.4445258378982544,0.2231301367282867,0.1744176298379898,0.3406193256378174,0.503105878829956,0.44686159491539,-0.1460415422916412,-0.5572986602783203,0
25014,0.0122579922899603,-0.0138900801539421,1.0097655057907104,-1.0091650485992432,-1.4445258378982544,0.2231301367282867,0.1744176298379898,0.3406193256378174,0.503105878829956,0.44686159491539,-0.1460415422916412,-0.5572986602783203,0
25064,0.0117164654657244,-0.0085132420063018,1.0061230659484863,-2.830348491668701,0.5969671607017517,0.1189717724919319,0.1766089797019958,0.3405157029628753,0.5025398135185242,0.4687503576278686,-0.0842368379235267,-0.5460695624351501,0
25064,0.0117164654657244,-0.0085132420063018,1.0061230659484863,-2.830348491668701,0.5969671607017517,0.1189717724919319,0.1770061999559402,0.3438533842563629,0.5024998784065247,0.4368531405925751,-0.0843775793910026,-0.5443212985992432,0
25174,0.0104428203776478,0.0092158997431397,0.9846462607383728,-0.7185278534889221,-0.8255011439323425,-0.6840114593505859,0.1770565807819366,0.3424236476421356,0.5027807354927063,0.2376293390989303,-0.0540536791086196,-0.546359658241272,0
25294,0.0129809388890862,-0.0042464546859264,1.0157331228256226,-0.7280563712120056,1.883365273475647,-0.8459939956665039,0.1766346842050552,0.3454890549182892,0.5034884214401245,0.1186162903904914,-0.0157353822141885,-0.6452974677085876,0
25374,0.0201328564435243,-0.0012268648715689,1.0189080238342283,-2.346099853515625,-3.982210636138916,-1.2060930728912354,0.1814335435628891,0.3477440178394317,0.5034507513046265,0.1328277587890625,0.013643586076796,-0.6996110677719116,0
25374,0.0201328564435243,-0.0012268648715689,1.0189080238342283,-2.346099853515625,-3.982210636138916,-1.2060930728912354,0.1832526177167892,0.3480779230594635,0.5035753846168518,0.1144961342215538,0.0465073175728321,-0.7107015252113342,0
25544,0.009129830636084,-0.0006286255083978,0.9903417825698853,0.9972739219665528,0.5339877009391785,0.1381318569183349,0.1861661821603775,0.3541609942913055,0.5027883052825928,0.1350073218345642,0.224022775888443,-0.8760746717453003,0
25594,0.0201745927333831,0.0032987727317959,1.007954478263855,-0.7751929759979248,-1.6053645610809326,-0.7094951272010803,0.1866800338029861,0.360220193862915,0.5056894421577454,0.1061718538403511,0.1782606393098831,-0.8757960200309753,0
25654,0.0093293525278568,-0.0079220198094844,1.0076448917388916,2.2810637950897217,0.73647141456604,0.9722079038619996,0.1897475868463516,0.3708847761154175,0.5043959617614746,0.1397061049938202,0.2288050353527069,-0.8937975168228149,0
25724,0.0198699049651622,0.006458677817136,1.0005431175231934,3.506359815597534,-2.0373177528381348,0.148249089717865,0.1921743601560592,0.3780677914619446,0.5025554895401001,0.2914478182792663,0.2063416689634323,-0.8707941770553589,0
25724,0.0198699049651622,0.006458677817136,1.0005431175231934,3.506359815597534,-2.0373177528381348,0.148249089717865,0.1921743601560592,0.3780677914619446,0.5025554895401001,0.2914478182792663,0.2063416689634323,-0.8707941770553589,0
25734,0.0081765931099653,-0.0103362686932086,1.0087785720825195,3.34661865234375,-1.574430227279663,0.0280492603778839,0.1922756731510162,0.3784891366958618,0.5000983476638794,0.3252163827419281,0.2260483205318451,-0.872580885887146,0
25884,0.0139039503410458,-0.000866251939442,1.0176739692687988,2.197295665740967,3.452446699142456,-0.557483434677124,0.1864108145236969,0.3835805058479309,0.4956139922142029,0.6033579707145691,0.119666151702404,-0.8793947100639343,0
25904,0.0135082229971885,-0.0063089081086218,1.014191746711731,-0.2736945152282715,2.040048360824585,-0.4715274274349212,0.1862193793058395,0.3841579854488373,0.49524587392807,0.6461612582206726,0.033363327383995,-0.893624484539032,0
25914,0.0095999771729111,-0.0093506267294287,1.0250179767608645,-0.9919931292533876,2.1754095554351807,-0.435018926858902,0.1862193793058395,0.3841579854488373,0.49524587392807,0.6461612582206726,0.033363327383995,-0.893624484539032,0
25974,0.0093711586669087,-0.0106781544163823,1.030408263206482,-0.6918544769287109,0.5195693969726562,-0.6776526570320129,0.1802197247743606,0.3851101100444793,0.4994400441646576,0.5429673194885254,0.0507959760725498,-0.9291365146636964,0
26074,0.0146953929215669,0.0033945785835385,0.9942098259925842,-4.746901988983154,-1.0549710988998413,-1.0569250583648682,0.1773139834403991,0.3821992576122284,0.4986287355422973,0.4002633988857269,-0.167007490992546,-1.0101385116577148,0
26094,0.0054525253362953,0.0041601504199206,0.996719479560852,-1.3561370372772217,-1.8080705404281616,-1.3670774698257446,0.1768270581960678,0.3803631961345672,0.4996570944786072,0.3268599510192871,-0.1425123512744903,-1.0337632894515991,0
26184,0.0097279902547597,0.0027248312253504,0.9848017692565918,-5.558744430541992,-2.001708030700684,-0.6267493367195129,0.1748710572719574,0.3750479221343994,0.4999347627162933,0.0472304001450538,-0.2434921264648437,-1.081531047821045,0
26254,0.0092251421883702,-0.012744141742587,0.9938921928405762,-0.6809815764427185,2.1722543239593506,0.2422847747802734,0.177495077252388,0.3711723387241363,0.5006068348884583,-0.1407727897167205,-0.1540256589651107,-1.0902090072631836,0
26264,0.0046960804611444,-0.0121899619698524,0.9980083107948304,-1.3621517419815063,2.670297622680664,0.6753184795379639,0.177495077252388,0.3711723387241363,0.5006068348884583,-0.1407727897167205,-0.1540256589651107,-1.0902090072631836,0
26264,0.0046960804611444,-0.0121899619698524,0.9980083107948304,-1.3621517419815063,2.670297622680664,0.6753184795379639,0.1783837974071502,0.3745696544647217,0.500646710395813,-0.1735375225543975,-0.1899788528680801,-1.0855704545974731,0.0
26414,0.0104566058143973,-0.0059401649050414,1.0244882106781006,-1.516358733177185,0.0820233225822448,0.9134069681167604,0.1785630285739898,0.377124547958374,0.4947266578674316,-0.0777671635150909,-0.1697393059730529,-0.9964990615844728,0
26434,0.0121568581089377,-0.0082071432843804,1.020922303199768,-1.4109954833984375,-2.1002676486968994,0.6844045519828796,0.1785663962364196,0.3770602643489837,0.4950267076492309,-0.1163622215390205,-0.159933790564537,-0.9814425110816956,0
26534,0.0136607233434915,-0.0142451887950301,0.9981949925422668,-0.4672984778881073,0.3918549120426178,0.7029930353164673,0.1860607117414474,0.3792299628257751,0.5016347765922546,0.1038607284426689,-0.0455794855952262,-0.9281820058822632,0
26614,0.0161827243864536,0.0068450486287474,0.9759121537208556,3.459920644760132,-2.2904703617095947,-0.2432274371385574,0.1886641085147857,0.3820807933807373,0.5064624547958374,0.086033746600151,0.1958438009023666,-0.9384928345680236,0
26624,0.0124252261593937,0.0049600745551288,0.9893515110015868,3.024292230606079,-1.2822885513305664,0.0145120546221733,0.1887990981340408,0.3821210563182831,0.5068320631980896,0.1240660026669502,0.215829849243164,-0.941024899482727,0
26724,0.0184879135340452,0.0110014425590634,0.9458361268043518,1.3009090423583984,-2.764195203781128,-0.623863697052002,0.1945409923791885,0.3906811475753784,0.5071929693222046,0.2001298815011978,0.275414764881134,-0.94819837808609,0
26734,0.0174893382936716,-0.0109523516148328,0.9699091911315918,1.2843906879425049,-0.9923583269119264,-0.6180931329727173,0.1947009265422821,0.3908017873764038,0.5071370601654053,0.2154239863157272,0.2985689043998718,-0.9556769132614136,0
26754,0.0042466190643608,-0.0131286699324846,0.97210955619812,2.300492286682129,-0.5869808197021484,0.3246501684188843,0.1948560625314712,0.3909190595149994,0.5070509314537048,0.2343733161687851,0.3082467019557953,-0.9568527936935424,0
26904,0.0106580257415771,0.002224868396297,1.008743166923523,1.4632624387741089,0.1839037239551544,0.8106478452682495,0.1973598897457122,0.4000769853591919,0.5029047131538391,0.3938654661178589,0.2591298222541809,-0.890417754650116,0
27064,0.019233550876379,0.0091860722750425,1.001757264137268,-0.8597409725189209,0.391758382320404,-0.4526301026344299,0.1953106224536895,0.4077803492546081,0.4983648657798767,0.5062823295593262,0.224010556936264,-0.8457369804382324,0
27074,0.0201822649687528,0.0004640654369723,1.0069248676300049,-2.7749016284942627,1.0808502435684204,-0.2257256954908371,0.1952778995037078,0.4078910052776336,0.4983050525188446,0.4997766017913818,0.221005693078041,-0.8466322422027588,0
27094,0.0066533898934721,-0.0152936307713389,1.0172158479690552,-4.056260108947754,3.649326801300049,0.1653490662574768,0.1952067911624908,0.4081152975559234,0.4972836971282959,0.4414088726043701,0.200745016336441,-0.8527230620384216,0
27184,0.0180720891803503,0.0002671940310392,0.9945681095123292,-2.0080788135528564,3.165976285934448,0.1744559407234192,0.1882046610116958,0.4044628739356994,0.5004578828811646,0.4568322598934173,0.0618159882724285,-0.8006269335746765,0
27214,0.004748614039272,-0.0023679167497903,1.0042603015899658,-5.923083305358887,3.5907511711120605,-0.3377281129360199,0.1878809630870819,0.4043925702571869,0.499693363904953,0.3920939564704895,-0.0022480525076389,-0.8068701028823853,0
27214,0.004748614039272,-0.0023679167497903,1.0042603015899658,-5.923083305358887,3.5907511711120605,-0.3377281129360199,0.1892377883195877,0.403273344039917,0.4998033046722412,0.3433161973953247,-0.0463409796357154,-0.8105179667472839,0
27354,0.0067291194573044,0.0002796792250592,0.9886043667793274,-5.043699741363525,1.9242491722106931,0.3221242725849151,0.1870224177837371,0.3964172899723053,0.50189208984375,0.0569626465439796,-0.2107608914375305,-0.8202353715896606,0
27364,0.0092031434178352,-0.0150744738057255,1.015239119529724,-5.220966815948486,0.7893749475479126,0.684556245803833,0.1869165152311325,0.396228015422821,0.5020443797111511,-0.0005023174453526,-0.2310630977153778,-0.8187658786773682,0
27374,0.0148629527539014,-0.0084248948842287,1.0181440114974976,-2.582029104232788,0.7570556402206421,0.567616879940033,0.1870901137590408,0.3944221138954162,0.5025830268859863,-0.0897615551948547,-0.2585489749908447,-0.8098177313804626,0
27384,0.0151235591620206,-0.0070199365727603,1.0333077907562256,-2.2070183753967285,1.5148080587387085,0.3506840765476227,0.1875371932983398,0.3922021985054016,0.502736508846283,-0.102849893271923,-0.2782738804817199,-0.8046259880065918,0
27524,0.0022192460019141,-0.0073907016776502,1.0093392133712769,3.010447263717652,-1.7304929494857788,0.5861504673957825,0.18719083070755,0.3918926119804382,0.5005096197128296,-0.2093305140733719,-0.2115836590528488,-0.8143802285194397,0
27534,0.0078307790681719,-0.002052430761978,1.0029670000076294,1.5138262510299685,-2.6941092014312744,0.8596312999725342,0.1866431534290313,0.3951526880264282,0.5004555583000183,-0.2055271416902542,-0.1820998638868332,-0.8055970072746277,0
27594,0.0047903480008244,-0.0105393268167972,0.992973566055298,-3.30428147315979,-0.5083732604980469,0.1236539706587791,0.1928224414587021,0.3955961763858795,0.5017719268798828,-0.2824047207832336,-0.1294354200363159,-0.8000506162643433,0
27694,0.0119919534772634,-0.0068169301375746,1.00855815410614,-0.8667041659355164,0.2862502932548523,0.1160550341010093,0.2025311589241027,0.3975642621517181,0.5002497434616089,-0.1928663998842239,0.1141675412654876,-0.7685713768005371,0
27714,0.0070415274240076,-0.0231360699981451,1.0527546405792236,0.4336462020874023,-1.3455520868301392,-0.3186406195163727,0.2017276883125305,0.4004918336868286,0.5001869201660156,-0.218849241733551,0.1136782094836235,-0.772026002407074,0
27714,0.0070415274240076,-0.0231360699981451,1.0527546405792236,0.4336462020874023,-1.3455520868301392,-0.3186406195163727,0.2018597722053527,0.4005270302295685,0.5030607581138611,-0.224021703004837,0.1196358650922775,-0.7740144729614258,0
27724,0.0072184922173619,-0.0034937225282192,1.0214091539382937,0.1373068988323211,-2.2892868518829346,0.2745331525802612,0.2020462602376938,0.400581806898117,0.503223180770874,-0.2348432689905166,0.1375154256820678,-0.7744316458702087,0
27864,0.0159612149000167,-0.0151019133627414,0.9749160408973694,-1.2526639699935913,-1.5906201601028442,0.254945695400238,0.2085804194211959,0.408197671175003,0.5068300366401672,0.0744662433862686,0.3116408884525299,-0.7211361527442932,0
27874,0.0188947711139917,-0.0315688513219356,0.9750871658325196,-0.6644960045814514,-2.4654195308685303,-0.1022522896528244,0.207554742693901,0.410279244184494,0.506892204284668,0.0531492456793785,0.3365215361118316,-0.7224026918411255,0
27894,0.0155228050425648,0.0068398253060877,0.9714550375938416,4.342032909393311,-3.544661283493042,-0.0666547119617462,0.2078381329774856,0.4106430113315582,0.5069712996482849,0.0915044546127319,0.403750866651535,-0.7230439186096191,0
27984,0.007045367732644,-0.0028842182364314,0.9989578127861024,-2.1312479972839355,2.32067608833313,0.8891497850418091,0.2093342095613479,0.4187100529670715,0.5046358704566956,0.3478562533855438,0.2705247402191162,-0.6989001631736755,0
28044,0.0152252931147813,-0.0026525657158344,0.996558964252472,3.3099377155303955,0.0515633001923561,-0.2167790979146957,0.2064027488231659,0.4214203953742981,0.5032572150230408,0.4580732882022857,0.3147163689136505,-0.684700071811676,0
28054,0.0222980100661516,-0.0068712388165295,0.9954113364219666,1.5456523895263672,1.4553608894348145,-0.2887850999832153,0.2064094692468643,0.4216300845146179,0.5030979514122009,0.4820541143417358,0.3061739504337311,-0.6868178248405457,0
28144,0.0205199141055345,0.0083018410950899,0.9887934923171996,2.504209041595459,0.8768506050109863,-0.0742008611559867,0.2018302679061889,0.4199587702751159,0.5066990256309509,0.4505713284015655,0.1787926107645034,-0.6545588374137878,0
28174,0.0048004784621298,-0.0078966906294226,1.0044184923171997,0.9674062132835388,3.916558742523194,0.4625900387763977,0.2024025917053222,0.4220775663852691,0.5069022178649902,0.4872556924819946,0.1430386155843734,-0.6511021256446838,0
28264,0.016580082476139,-0.000489528873004,0.98460191488266,1.4825494289398191,0.0065327873453497,0.2945098876953125,0.1994310319423675,0.4208097457885742,0.5037755370140076,0.3184336125850677,-0.0135391233488917,-0.5911938548088074,0
28434,0.0118144527077674,-0.011334391310811,0.9874287843704224,-2.271400213241577,2.7625365257263184,-0.1097345799207687,0.1943901777267456,0.4174856841564178,0.5035831332206726,0.1622902452945709,-0.1588498651981353,-0.4964148104190826,0
28454,0.0074151391163468,-0.0188827104866504,0.9978459477424622,-4.215375900268555,3.798971176147461,0.9235343933105468,0.1941326111555099,0.417290449142456,0.5027965307235718,0.111651062965393,-0.2130639404058456,-0.4935729801654815,0
28604,0.0071630459278821,-0.0097394818440079,1.0097848176956177,-0.1746109127998352,-1.1870275735855105,0.1545656621456146,0.197468101978302,0.4146327674388885,0.4981284141540527,-0.1357668936252594,-0.238113060593605,-0.4336597323417663,0
28634,0.0104247033596038,-0.0004574361955747,1.0141732692718506,1.1942451000213623,-4.592475414276123,-0.0471739917993545,0.1962946206331253,0.411339521408081,0.4997026622295379,-0.0957009196281433,-0.1776892244815826,-0.4313700795173645,0
28724,0.0101477587595582,-0.0037906216457486,1.0128726959228516,2.2455825805664062,-0.0905797630548477,-0.373910903930664,0.2021556943655014,0.4095990359783172,0.4965024888515472,-0.1746064126491546,-0.0506987087428569,-0.455378770828247,0
28744,0.0091003533452749,-0.0058635990135371,1.0273524522781372,2.750544309616089,-2.434235095977783,-0.2348497658967971,0.2013687193393707,0.4123287498950958,0.4980023503303528,-0.1341596692800521,-0.0051674749702215,-0.4608904719352722,0
28804,0.0074897143058478,-0.0024348688311874,1.0093823671340942,-1.8633277416229248,-2.583656311035156,-0.5249961018562317,0.2091360092163086,0.413177341222763,0.5017164349555969,-0.1583660393953323,0.1196245551109314,-0.4818439781665802,0
28924,0.0061887321062386,-0.0058112288825213,1.0167436599731443,-0.5401133298873901,-1.9433833360672,-0.3358818590641022,0.2111564576625824,0.4125900864601135,0.4975116550922394,-0.1037225797772407,0.335702508687973,-0.5047144293785095,0
29064,0.0109770717099308,0.0148488823324441,1.0136452913284302,3.219228029251098,0.3834236562252044,-0.3064797520637512,0.2159521877765655,0.4229484796524048,0.5005400776863098,0.0965483337640762,0.3252428472042084,-0.5170254707336426,0
29074,0.0147014092653989,0.012891786172986,0.9870975017547609,3.148458957672119,1.2775815725326538,0.2888330221176147,0.2161248922348022,0.4231921732425689,0.5008239150047302,0.1566165685653686,0.3279690742492676,-0.5196696519851685,0
29294,0.0237015970051288,0.0066400649957358,0.9925361275672911,-0.783258855342865,0.827730119228363,0.0791259407997131,0.2148410379886627,0.4440942704677582,0.5053259134292603,0.4985402822494507,0.1923315078020095,-0.621704638004303,0
29314,0.0107383206486701,-0.0044681131839752,1.0016309022903442,2.6779444217681885,1.9156761169433596,0.1496270149946212,0.2127310931682586,0.4455347657203674,0.5044600963592529,0.5281442403793335,0.1574034243822097,-0.625465989112854,0
29334,0.0138510586693882,-0.0036912343930453,1.0033468008041382,0.8929019570350647,2.707894802093506,-0.2353424727916717,0.2136228084564209,0.4419066905975342,0.5044111013412476,0.5778679847717285,0.1012289822101593,-0.6217610239982605,0
29524,0.0222872328013181,0.002997396280989,1.0031790733337402,-3.533876657485962,-0.8655443787574768,-0.365877091884613,0.2070382982492447,0.4299984574317932,0.5053727626800537,0.2671447694301605,-0.0716572105884552,-0.6195783019065857,0
29564,0.0047130207531154,-0.0050404490903019,0.9908806681632996,-3.634287595748901,1.5040448904037476,0.6996055841445923,0.2065594494342804,0.4292551577091217,0.5070024728775024,0.1584589481353759,-0.1035293862223625,-0.6177932620048523,0
29574,0.0034969022963196,0.0001912345760501,0.9897868037223816,-5.999273777008057,1.88043475151062,0.7305677533149719,0.2064382582902908,0.4290559291839599,0.5070377588272095,0.1126958578824997,-0.1173426732420921,-0.6103366017341614,0
29694,0.0236571989953517,-0.0056838155724108,0.9976428151130676,-3.1607322692871094,1.43492329120636,0.9021540880203248,0.2040539979934692,0.4210569262504577,0.4962016940116882,-0.2240521013736724,-0.1681301146745681,-0.5757983922958374,0
29714,0.0144266579300165,-0.0003845945466309,1.0155646800994873,-4.53423547744751,0.4218721091747284,0.5413054823875427,0.2040998637676239,0.4177005290985107,0.4947583079338074,-0.3460075259208679,-0.1998671740293502,-0.5570752024650574,0
29804,0.0116548556834459,-0.0016391917597502,1.0374574661254885,-0.4353002905845642,0.4668193459510803,-0.3641113340854645,0.2072490602731704,0.4160756468772888,0.4933032393455505,-0.3490625917911529,-0.1917729824781417,-0.5311049222946167,0
30064,0.0131688248366117,-0.0043930932879447,0.9844364523887634,1.215555191040039,-0.767869770526886,0.2289367169141769,0.2178128063678741,0.4309380650520324,0.5065456032752991,0.0886057466268539,-0.0395681858062744,-0.5155888795852661,0
30124,0.0110193016007542,-0.012134188786149,0.9814592599868774,3.8189351558685294,-3.380147933959961,-0.4687968790531158,0.2186792492866516,0.4334708452224731,0.5092577338218689,0.1087525114417076,0.0898311808705329,-0.5380154252052307,0
30154,0.0106678884476423,-0.0059762601740658,0.976103901863098,1.9833781719207764,-1.580655574798584,-0.0818080231547355,0.222035750746727,0.4370318949222564,0.5052973031997681,0.1906328648328781,0.1816249936819076,-0.5516486763954163,0
30264,0.0128582129254937,-0.0134962582960724,0.987321436405182,2.607313394546509,-1.1393046379089355,0.6514186859130859,0.230079174041748,0.4448859393596649,0.5076138973236084,0.3375185430049896,0.3900384306907654,-0.549401044845581,0
30364,0.0204128604382276,-0.0145111037418246,1.0058188438415527,2.8863415718078613,-1.4904298782348633,0.6845235824584961,0.2321977317333221,0.4492051899433136,0.5064978003501892,0.3416695892810821,0.5222393870353699,-0.4943900406360626,0
30364,0.0204128604382276,-0.0145111037418246,1.0058188438415527,2.8863415718078613,-1.4904298782348633,0.6845235824584961,0.2343500256538391,0.4480229318141937,0.506384015083313,0.3855062425136566,0.5374318361282349,-0.4854708909988403,0
30374,0.0210142955183982,-0.0129761239513754,0.983790397644043,2.711900472640991,-0.5337200164794922,0.9676534533500672,0.2345200628042221,0.4481707513332367,0.5062666535377502,0.419707715511322,0.54683917760849,-0.4759858846664428,0
30544,0.0130186639726161,-0.006650592200458,1.0128298997879028,-1.8013516664505005,2.641185998916626,0.6983039379119873,0.2371494174003601,0.4563368856906891,0.4953527450561523,0.3832167685031891,0.43975630402565,-0.3458705842494964,0
30564,0.0086005358025431,-0.0054455180652439,1.040925145149231,-1.2717361450195312,1.2410197257995603,0.2048720419406891,0.234838530421257,0.456868439912796,0.4941082894802093,0.349109798669815,0.4029476344585418,-0.3302380442619324,0
30674,-0.0003820182755589,-0.0015574530698359,1.031583309173584,-4.171905040740967,-0.1394484043121338,0.6109894514083862,0.2298915833234787,0.4555206298828125,0.4932933747768402,0.2835299670696258,0.1385081112384796,-0.3078027367591858,0
30754,0.0043878769502043,-0.0124558573588728,1.0135585069656372,-2.037708282470703,3.4897027015686035,0.6234142780303955,0.2288888096809387,0.4550146758556366,0.4957629144191742,0.3121236264705658,-0.0521507076919078,-0.2886073291301727,0
30784,0.0187283121049404,0.0030931192450225,0.9907689690589904,-4.463536739349365,1.4218268394470217,0.2244230210781097,0.2244780659675598,0.4533504843711853,0.4975199103355407,0.2382287383079528,-0.1309643238782882,-0.2805440127849579,0
30934,0.0111093884333968,-0.0085666067898273,0.9818974137306212,-0.5931444764137268,0.1480273306369781,-0.1908236443996429,0.2203536331653595,0.4510845839977264,0.497660756111145,-0.0656918063759803,-0.3198783993721008,-0.3140881061553955,0
30934,0.0111093884333968,-0.0085666067898273,0.9818974137306212,-0.5931444764137268,0.1480273306369781,-0.1908236443996429,0.2203536331653595,0.4510845839977264,0.497660756111145,-0.0656918063759803,-0.3198783993721008,-0.3140881061553955,0
30964,0.014151681214571,-0.0062591019086539,0.9955698847770692,0.5169074535369873,1.0724050998687744,-0.2896272838115692,0.2200497835874557,0.4508852362632751,0.4970003068447113,-0.0670563727617263,-0.3326280415058136,-0.3206975758075714,0
31134,0.0133171137422323,0.0044856802560389,0.9996938705444336,2.355986356735229,-1.6392757892608645,1.2556289434432983,0.226976528763771,0.4502452611923218,0.5011139512062073,-0.0616811327636241,-0.1244966685771942,-0.1761934906244278,0
31164,0.0127441715449094,-0.002628079149872,0.9849312901496888,1.3675652742385864,-2.431318759918213,1.0702733993530271,0.2291760444641113,0.450330525636673,0.5029777884483337,-0.0503965131938457,-0.0572877153754234,-0.1385136693716049,0
31324,0.0102177914232015,-0.0017095376970246,0.98784339427948,2.1389598846435547,-2.7157206535339355,0.4279695153236389,0.2394141107797622,0.4634470045566559,0.5051572918891907,0.0229422114789485,0.2283905744552612,-0.0821542143821716,0
31334,0.0147497039288282,-0.0084823388606309,1.006016731262207,2.955198287963867,-1.906401753425598,0.9827593564987184,0.2394141107797622,0.4634470045566559,0.5051572918891907,0.0229422114789485,0.2283905744552612,-0.0821542143821716,0
31354,0.0081078605726361,-0.0001199216858367,0.9984673857688904,3.1413705348968506,-0.6669370532035828,0.7269391417503357,0.2422022819519043,0.4623463749885559,0.5063461661338806,0.1256081312894821,0.250148206949234,-0.0621296986937522,0
31364,0.0100083816796541,-0.0040279170498251,0.9952715635299684,3.607325315475464,-0.4337801039218902,0.3217007517814636,0.2416967004537582,0.4669400155544281,0.5065031051635742,0.1336587816476822,0.2551986575126648,-0.0602519288659095,0
31514,0.0164338313043117,-0.0035243311431258,1.0036256313323977,0.750230073928833,-1.0979787111282349,-0.3730292320251465,0.2459724396467209,0.4815420806407928,0.5011025667190552,0.4548230767250061,0.4159130752086639,-0.0508694164454937,0
31544,0.0080805551260709,-0.0047355946153402,1.0083274841308594,3.128175973892212,-0.7906720042228699,-0.0608674399554729,0.2462332397699356,0.4820786416530609,0.5009032487869263,0.503799319267273,0.4381168782711029,-0.0611070320010185,0
31644,0.0158794354647398,-0.0022387716453522,0.998647153377533,1.453393816947937,-0.1528658121824264,0.0830219164490699,0.2469711005687713,0.487932413816452,0.5036125779151917,0.593598484992981,0.3977994322776794,-0.0569531098008155,0
31704,0.0093825059011578,-0.0064167389646172,0.9929370880126952,-2.9334559440612797,2.140969753265381,-0.6187439560890198,0.2419475317001342,0.4885174632072449,0.5064306855201721,0.567311704158783,0.3087280988693237,-0.0696295648813247,0
31754,0.0132303927093744,-0.0050779683515429,0.9926251173019408,0.7685378789901733,2.0487875938415527,-0.8337892293930054,0.2416494786739349,0.4891187250614166,0.5029921531677246,0.5326669216156006,0.2257271260023117,-0.0808368623256683,0
31984,0.01892632804811,-0.0230980422347784,0.9968796968460084,-4.242366313934326,0.0362469591200351,0.3148011565208435,0.2245357632637024,0.4751669466495514,0.4973603188991546,0.0363191962242126,-0.295287013053894,-0.0999656394124031,0
32044,0.0184560548514127,-0.0017363576916977,1.009516954421997,0.5212809443473816,2.048856258392334,-0.5308592915534973,0.2249560356140136,0.4774335324764251,0.4963692724704742,-0.0486338399350643,-0.3843145966529846,-0.0766300857067108,0
32234,0.0135480621829628,-0.0018363405251875,1.0007930994033811,-0.7295169234275818,-2.4305343627929688,-0.0124437343329191,0.2264075875282287,0.4759694039821625,0.4956434369087219,-0.2501987516880035,-0.3628883063793182,-0.134424552321434,0
32274,0.0057287961244583,-0.0034537727478891,1.015876293182373,1.4466150999069214,-2.440951108932495,-0.5064181089401245,0.229441225528717,0.4761470556259155,0.4956647157669067,-0.2560281157493591,-0.2884555160999298,-0.1501008123159408,0
32444,0.0109960325062274,-7.952828309498727e-05,0.976016402244568,1.559033989906311,0.093021847307682,-0.1770521402359008,0.235783115029335,0.4880599677562713,0.5001164078712463,0.0293399598449468,0.0459163002669811,-0.2039572447538375,0
32474,0.0141492784023284,-0.010860257782042,0.9909727573394777,-1.22567880153656,-2.334918975830078,-0.2141356617212295,0.2377628684043884,0.488214910030365,0.5029679536819458,0.0168283507227897,0.0618968904018402,-0.20448699593544,0
32534,0.0111215002834796,-0.003024763893336,0.9804531335830688,2.9848392009735107,-1.11918842792511,0.081572987139225,0.2418094277381897,0.4920420348644256,0.5028406977653503,0.1838686317205429,0.2859201729297638,-0.1810724586248397,0
32704,0.0028842142783105,-0.0156748946756124,1.0080143213272097,1.834107995033264,-0.7250578999519348,0.9140075445175172,0.2477836906909942,0.5051844120025635,0.5024257302284241,0.4181868135929107,0.4527733623981476,-0.1197687461972236,0
32784,0.0195875950157642,0.0076103061437606,0.9705747961997986,-0.8175185918807983,1.2588528394699097,0.2699419558048248,0.2454882115125656,0.5099254250526428,0.5024318099021912,0.5641437768936157,0.4298202395439148,-0.113956443965435,0
32914,0.0122139072045683,-0.0103075122460722,1.0011334419250488,0.170262724161148,1.404552340507507,0.2731947600841522,0.245604857802391,0.5160045027732849,0.4959757328033447,0.6027634143829346,0.2223192602396011,-0.0991835966706276,0
32924,0.0155707504600286,-0.0090885404497385,1.00886869430542,-0.0259735807776451,1.391688346862793,0.0359482429921627,0.245574414730072,0.5161858797073364,0.4938907623291015,0.5993189811706543,0.2077998667955398,-0.0998789966106414,0
32954,-0.0021503493189811,-0.0016969194402918,1.036918044090271,-3.738417863845825,1.6010595560073853,-0.0877394154667854,0.2434588372707367,0.5169922709465027,0.4932761192321777,0.5350009799003601,0.1800660938024521,-0.1006264463067054,0
32974,0.0230284444987773,0.0036484058946371,1.0251595973968506,-3.5093653202056885,0.7974176406860352,-0.7502391934394836,0.2433529645204544,0.5170196890830994,0.4953721463680267,0.5003188252449036,0.1670508980751037,-0.1031380221247673,0
33134,0.031149499118328,-0.0389856994152069,0.9982276558876038,732.0087890625,499.431640625,752.5137939453125,0.2399598211050033,0.5134108662605286,0.4976053833961487,1.036830186843872,-1.078012466430664,0.7998381853103638,1
33164,0.0134234623983502,0.0975209847092628,0.8093776106834412,-89.07935333251953,-96.68689727783205,-24.281288146972656,0.4739983379840851,0.2591896951198578,0.4890660643577575,12.554191589355469,-7.723299980163574,11.360836029052734,0
33274,0.0168839413672685,0.0003222746599931,1.0541235208511353,-34.62363052368164,-2.669879913330078,-31.67621612548828,0.4182953536510467,0.3049420714378357,0.5147008299827576,-3.2033073902130127,2.180118560791016,7.203453540802002,0
33334,0.0238384548574686,-0.0055999779142439,0.9893614649772644,-10.04967975616455,-16.646223068237305,-30.407005310058597,0.390170693397522,0.3352493047714233,0.5311216115951538,-4.077051162719727,2.938936471939087,5.060203075408936,0
33364,0.0203122813254594,-0.0198803897947073,0.9595953822135924,-30.480737686157227,-14.194899559020996,-27.98834800720215,0.3692686557769775,0.3492510318756103,0.5405082106590271,-4.907846450805664,3.692965269088745,4.253669261932373,0
33534,0.0300462171435356,-0.0389586798846721,0.9372181296348572,28.92943000793457,26.796052932739254,-11.636028289794922,0.2747593224048614,0.4655657112598419,0.5205730199813843,-2.840940237045288,1.1693899631500244,0.7699486017227173,0
33554,0.0354445055127143,-0.0388337448239326,0.9742692112922668,35.63207244873047,31.487586975097656,-9.119894981384276,0.2590312659740448,0.489630252122879,0.515882670879364,-2.03964900970459,0.4160310924053192,0.4336008727550506,0
33714,0.0481846146285533,-0.0723936483263969,1.2464145421981812,42.25773620605469,26.71004867553711,0.7006643414497375,0.1485380232334137,0.641812264919281,0.4438397288322449,4.052967548370361,-3.716152906417847,0.0243538413196802,0
33724,0.0425996407866478,-0.0597639828920364,1.241127848625183,41.53633880615234,25.421066284179688,1.0730997323989868,0.1319959908723831,0.6629520654678345,0.4397257566452026,4.771563053131104,-4.139450073242188,0.0734471082687377,0
33744,0.0439937300980091,-0.0726113989949226,1.2836536169052124,40.6484375,21.266489028930664,1.3094619512557983,0.1175263524055481,0.6833215355873108,0.4303440451622009,5.431280136108398,-4.46314811706543,0.13327157497406,0
33904,0.0436626672744751,-0.05418087169528,1.100121021270752,10.80887508392334,7.304158687591553,-3.4824912548065186,-0.0074375835247337,0.8306734561920166,0.4324071705341339,8.523969650268555,-6.163088798522949,0.3835864961147308,0
33924,0.0406904518604278,-0.0642447546124458,1.1282881498336792,6.028780460357666,7.765917301177978,-4.131722450256348,-0.0241606496274471,0.8475154042243958,0.4323080480098724,8.567395210266113,-6.179908752441406,0.3400224149227142,0
33934,0.0584291815757751,-0.0605566054582595,1.0668623447418213,4.3047709465026855,8.928236961364746,-4.628162384033203,-0.0341171100735664,0.857250988483429,0.4337037205696106,8.541316986083984,-6.18144416809082,0.3178052902221679,0
34084,0.049673456698656,-0.0652383267879486,0.9949252605438232,-13.924996376037598,2.527167320251465,-5.2750563621521,-0.1321448683738708,0.9414706826210022,0.482333779335022,7.675845623016357,-6.637500286102295,-0.101307101547718,0
34124,0.0393508374691009,-0.0534942522644996,0.9315633773803712,-10.868328094482422,3.4162721633911133,-4.891275405883789,-0.1558032035827636,0.9593983292579652,0.492006778717041,7.036265850067139,-6.600015640258789,-0.2202063351869583,0
34134,0.044095691293478,-0.0397740714251995,0.9258352518081664,-11.124916076660156,2.5723915100097656,-4.949563503265381,-0.1558032035827636,0.9593983292579652,0.492006778717041,7.036265850067139,-6.600015640258789,-0.2202063351869583,0
34144,0.0472584329545497,-0.0338784419000148,0.9158576130867004,-9.588058471679688,3.207061529159546,-5.550325393676758,-0.1621508300304412,0.9643457531929016,0.4953562915325165,6.875589847564697,-6.583467483520508,-0.2504054605960846,0
34294,0.0359188206493854,-0.0326379835605621,0.8870081305503845,-10.283129692077637,-2.6079797744750977,-2.411054849624634,-0.2416006326675415,1.0197018384933472,0.5293415188789368,4.9831390380859375,-6.441005706787109,-0.5980624556541443,0
34324,0.0351710096001625,-0.03976796194911,0.8858323693275452,-8.190831184387207,-1.0465519428253174,-2.3436942100524902,-0.2567090690135956,1.030806541442871,0.5323325395584106,4.58720588684082,-6.258406162261963,-0.6447198987007141,0
34374,0.0383680909872055,-0.0359216406941413,0.9170955419540404,-3.3480496406555176,4.7931318283081055,-4.081790447235107,-0.2856181859970093,1.0522514581680298,0.5362864136695862,4.045051097869873,-6.190848350524902,-0.7760912775993347,0
34474,0.038181509822607,-0.0327711701393127,0.966636836528778,2.3094050884246826,-4.999481201171875,-3.1936206817626958,-0.3294866383075714,1.0875898599624634,0.5455945730209351,3.280399799346924,-5.676712989807129,-1.1179568767547607,0
34494,0.0388378985226154,-0.0246147941797971,0.9595491886138916,2.58579421043396,-2.2674410343170166,-2.67560076713562,-0.336284726858139,1.092121124267578,0.5455996990203857,3.256396770477295,-5.570562839508057,-1.129793643951416,0
34514,0.0423675179481506,-0.0333104394376277,0.9675402641296388,4.478487014770508,-1.388719916343689,-2.107508659362793,-0.3495839834213257,1.1035903692245483,0.5413228273391724,3.273956298828125,-5.4168620109558105,-1.2192059755325315,0
34664,0.0364743471145629,-0.0332867801189422,0.9973960518836976,3.2792775630950928,-0.0289328843355178,-0.0893764868378639,-0.4165741205215454,1.1643422842025757,0.5335770845413208,3.202105760574341,-4.805696964263916,-1.3700577020645142,0
34694,0.0416924506425857,-0.0326377786695957,1.0087614059448242,8.24555492401123,1.0128718614578247,0.529124915599823,-0.4327476620674133,1.1776518821716309,0.531427264213562,3.2924938201904297,-4.661324977874756,-1.348054051399231,0
34694,0.0416924506425857,-0.0326377786695957,1.0087614059448242,8.24555492401123,1.0128718614578247,0.529124915599823,-0.4327476620674133,1.1776518821716309,0.531427264213562,3.2924938201904297,-4.661324977874756,-1.348054051399231,0
34704,0.0417822450399398,-0.0334605127573013,0.9968170523643494,8.558835983276367,1.735940933227539,0.8942745923995972,-0.4332830309867859,1.179928421974182,0.5307329297065735,3.373272180557251,-4.691375732421875,-1.354804277420044,0
34954,0.0412036553025245,-0.0233350209891796,1.0191515684127808,-1.894574522972107,-7.745721340179443,2.727593183517456,-0.5455147624015808,1.281174898147583,0.5133981108665466,3.551898241043091,-4.392926216125488,-0.8966184258460999,0
34974,0.0239994283765554,-0.0333336852490901,1.030389666557312,2.768429040908813,-7.789486885070801,2.5330729484558105,-0.560567319393158,1.2964166402816772,0.5116462111473083,3.434781551361084,-4.066937446594238,-0.8537651896476746,0
35194,0.0272165406495332,-0.0280797816812992,1.0346239805221558,1.070332169532776,1.0435124635696411,1.6615663766860962,-0.645205020904541,1.3782333135604858,0.4993008375167846,3.873233556747437,-3.7588961124420166,-0.5522916913032532,0
35234,0.0309058167040348,-0.0317946672439575,1.0381146669387815,1.2496211528778076,1.1177107095718384,1.2105679512023926,-0.6597251296043396,1.390850067138672,0.4999346137046814,3.8428585529327393,-3.7808449268341056,-0.4985545873641968,0
35404,0.0276823285967111,-0.0287868343293666,1.007361888885498,-2.0260963439941406,0.3131314814090729,-0.0584969222545623,-0.7160293459892273,1.4410260915756226,0.5006411671638489,3.1245806217193604,-3.4128212928771973,-0.4630597531795501,0
35424,0.0209381729364395,-0.0317148491740226,1.007850170135498,-1.7262197732925415,-2.509544849395752,-0.1017667949199676,-0.7206435799598694,1.442959189414978,0.5017152428627014,3.0895392894744877,-3.3611342906951904,-0.4545504450798034,0
35444,0.0170638114213943,-0.0267787408083677,1.0131886005401611,-0.3948274254798889,-4.884968280792236,-0.0830549672245979,-0.7280274629592896,1.448830246925354,0.5020284056663513,3.042598247528076,-3.2261998653411865,-0.4556848108768463,0
35614,0.01538997143507,-0.0140863489359617,0.9880905747413636,-2.041360855102539,-0.895490825176239,-0.7729958891868591,-0.7761041522026062,1.4858384132385254,0.5055737495422363,2.406602621078491,-2.793870687484741,-0.6140671968460083,0
35744,0.0123093565925955,-0.0241218414157629,1.0040931701660156,-2.852862596511841,0.6923320293426514,-1.190529227256775,-0.8090698719024658,1.512143611907959,0.5010977387428284,1.9128812551498413,-2.5493264198303223,-0.6956992149353027,0
35874,0.0296479742974042,-0.0097074639052152,1.0146453380584717,-3.291457414627075,-2.917755365371704,-1.5028622150421145,-0.8374506831169128,1.536083698272705,0.4981738626956939,1.674834370613098,-2.08390474319458,-0.8052577376365662,0
35904,0.0241910684853792,-0.0200494322925806,1.0290876626968384,2.8722057342529297,-0.7368130087852478,-1.059150457382202,-0.8402621746063232,1.5388818979263306,0.5010066628456116,1.6430747509002686,-2.0313045978546143,-0.8264806866645813,0
36064,0.0110597414895892,-0.0214380901306867,1.0063531398773191,1.570123553276062,3.7304434776306152,-1.768125295639038,-0.8718888163566589,1.5646768808364868,0.4966237545013428,1.739389181137085,-1.905989408493042,-1.0778872966766355,0
36114,0.0254924688488245,-0.0162868425250053,0.9795655012130736,-3.235466957092285,-2.158883810043335,-1.9236960411071775,-0.8790926337242126,1.5706623792648315,0.4955095052719116,1.6284221410751345,-1.9173076152801516,-1.1502838134765625,0
36284,0.0392448976635932,-0.0346234403550624,1.011926293373108,-3.17712664604187,-3.7611162662506095,-2.0601274967193604,-0.9043217301368712,1.594308614730835,0.4961728751659393,1.3126888275146484,-1.581647515296936,-1.5301345586776731,0
36314,0.0244708284735679,-0.0100337816402316,0.9954777359962464,-0.243780568242073,-2.62246322631836,-1.5238795280456543,-0.9077494144439696,1.597507119178772,0.4967449009418487,1.2512255907058716,-1.4797499179840088,-1.5649535655975342,0
36374,0.0355649627745151,-0.0102817099541425,0.9695470333099364,-0.3210238516330719,0.0259358789771795,-1.4161956310272217,-0.9137223958969116,1.6030478477478027,0.499126136302948,1.2673429250717163,-1.3978641033172607,-1.6358586549758911,0
36484,0.0076812831684947,-0.0235984809696674,1.0401138067245483,-0.2713940143585205,-1.141441822052002,-0.5166877508163452,-0.926621437072754,1.6156072616577148,0.4992589056491852,0.9325428605079652,-1.2476096153259275,-1.7477028369903564,0
36514,0.0151475854218006,-0.0061372271738946,0.9840776920318604,1.1428310871124268,-4.082662582397461,0.2412445694208145,-0.9288967847824096,1.6175742149353027,0.5002654194831848,0.9267492294311525,-1.2045427560806274,-1.7478164434432983,0
36514,0.0151475854218006,-0.0061372271738946,0.9840776920318604,1.1428310871124268,-4.082662582397461,0.2412445694208145,-0.92952698469162,1.6195611953735352,0.5002692341804504,0.9189202785491944,-1.1594151258468628,-1.7407623529434204,0
36524,-0.0061940769664943,0.0043910159729421,0.9976822733879088,0.1706584393978119,-6.71178674697876,0.8616070747375488,-0.929770290851593,1.6197962760925293,0.5002635717391968,0.920026421546936,-1.095600128173828,-1.7347054481506348,0
36674,0.0277634412050247,-0.0086644263938069,0.9906110167503356,1.724657654762268,0.9199497699737548,2.774217128753662,-0.943177342414856,1.6366249322891235,0.4979538321495056,1.0165504217147827,-0.9605286121368408,-1.4838122129440308,0
36694,0.0295583475381135,-0.021528773009777,0.9931070804595948,0.0876372978091239,-0.3027893900871277,2.779712677001953,-0.9443014860153198,1.638763189315796,0.4978083074092865,1.008660912513733,-0.9511617422103882,-1.421177625656128,0
36754,0.010244682431221,-0.0023426003754138,1.0237301588058472,-0.4269149601459503,-2.6973044872283936,2.9931976795196533,-0.94840806722641,1.6448829174041748,0.497078001499176,0.9294613599777222,-0.8553836941719055,-1.2256840467453003,0
36874,0.0175738167017698,-0.0240398179739713,1.0070072412490845,2.4033191204071045,-0.4332151710987091,3.0763919353485107,-0.95404714345932,1.6549371480941772,0.4950358271598816,0.7924555540084839,-0.6958210468292236,-0.8887655138969421,0
36894,0.0176898520439863,-0.0200123451650142,1.039284110069275,3.89255428314209,0.8455355763435364,4.059963703155518,-0.9552984833717346,1.6556117534637451,0.4902251660823822,0.8584916591644287,-0.6849076151847839,-0.8265141844749451,0
