timestamp,acc.x,acc.y,acc.z,gyro.x,gyro.y,gyro.z,stateEstimate.x,stateEstimate.y,stateEstimate.z,stabilizer.roll,stabilizer.pitch,stabilizer.yaw,groundtruth
6070,0.0198397487401962,-0.0030010310001671,1.0002845525741575,0.2137131094932556,-0.2075559496879577,-0.055045336484909,0.0008396203629672,-0.0006672833696939,0.0175785105675458,-0.0978602766990661,0.9687333703041076,-0.003321363357827,0
6130,0.0182062871754169,-0.0032314190175384,0.9980666041374208,-0.0822233110666275,0.0893103703856468,0.1662353575229644,0.0008480363176204,0.000818976550363,0.0173765253275632,-0.1595266312360763,0.9721227288246156,-0.0023710636887699,0
6130,0.0182062871754169,-0.0032314190175384,0.9980666041374208,-0.0822233110666275,0.0893103703856468,0.1662353575229644,0.0008434985647909,7.823633495718241e-05,0.0173399075865745,-0.1289112120866775,0.9728621244430542,-0.0019248371245339,0
6260,0.0208997819572687,-0.0029883263632655,1.0001823902130127,0.0301704015582799,0.0541084147989749,0.1693770438432693,0.0005994653911329,0.0010528087150305,0.0184088293462991,-0.1700616031885147,0.9900423884391784,-0.0017843187088146,0
6300,0.0178622305393219,-0.0022898581810295,0.9994328022003174,0.0982065796852111,-0.2299661338329315,-0.0331145040690898,0.0008176029077731,0.0010183621197938,0.0176123119890689,-0.1681029647588729,0.9856298565864564,-0.0031684827990829,0
6300,0.0178622305393219,-0.0022898581810295,0.9994328022003174,0.0982065796852111,-0.2299661338329315,-0.0331145040690898,0.0008176029077731,0.0010183621197938,0.0176123119890689,-0.1681029647588729,0.9856298565864564,-0.0031684827990829,0
6330,0.0198815986514091,-0.0019512188155204,1.0004419088363647,-0.0452427193522453,0.2914219498634338,-0.0471900589764118,0.0008114203228615,-0.0003783752617891,0.017605610191822,-0.1119661629199981,0.9817480444908142,-0.004142717923969,0
6430,0.0187876354902982,-0.0037044384516775,1.0002894401550293,-0.0957558527588844,0.0515711344778537,0.0713017582893371,7.756637205602601e-05,-0.0001467998954467,-3.916851710528135e-06,0.0001272307854378,0.0008530506165698,-0.0001778227306203,0
6460,0.0203686319291591,-0.0016060053603723,0.9994511008262634,-0.0924853384494781,0.1428688913583755,-0.0341558307409286,0.0002758711052592,-1.4224937331164256e-05,0.0190337803214788,-0.0623382776975631,0.0133117465302348,-0.0002159310679417,0
6590,0.0191785041242837,-0.0025480252224951,0.9976763725280762,-0.2754406332969665,0.2328222841024398,0.0213841963559389,0.0005362612428143,0.0001901487412396,0.0191463902592659,-0.1597596704959869,0.5200768113136292,0.0031600627116858,0
6590,0.0191785041242837,-0.0025480252224951,0.9976763725280762,-0.2754406332969665,0.2328222841024398,0.0213841963559389,0.0005362612428143,0.0001901487412396,0.0191463902592659,-0.1597596704959869,0.5200768113136292,0.0031600627116858,0
6610,0.0189813859760761,-0.0013974327594041,0.9988021850585938,0.0007778260624036,0.206240102648735,-0.0920077636837959,0.0009888699278235,0.0006569853867404,0.018707288429141,-0.2477366775274276,0.4724359512329101,0.0045872861519455,0
6660,0.0189530327916145,-0.0022961304057389,0.998386561870575,-0.0381831191480159,0.0248178634792566,-0.1618182808160781,0.001281090429984,0.0004217762034386,0.0175698809325695,-0.1680536717176437,0.5337521433830261,0.0027131114620715,0
6720,0.0194276198744773,-0.000232373306062,0.9997689723968506,-0.0091478303074836,0.2211469560861587,0.171619638800621,0.0011075731599703,-0.0011681731557473,0.018742823973298,0.0740534663200378,0.6911571025848389,0.005449344869703,0
6770,0.0200984831899404,-0.0003872569359373,0.9992691278457642,0.0781763643026351,0.1636187881231308,-0.0359051674604415,0.0012116455473005,0.000224747986067,0.0188798885792493,-0.1320126056671142,0.7533901333808899,0.0088578127324581,0
6790,0.0187956877052783,-0.0038121002726256,0.9974647760391236,-0.0501383244991302,0.0443428978323936,-0.1780012398958206,0.0011145077878609,-0.0009701290400698,0.0181114617735147,0.0011829657014459,0.7882978916168213,0.0090097235515713,0
6800,0.0188427828252315,-0.0048171114176511,0.9984516501426696,0.125587448477745,0.0066096568480134,-0.0864708796143531,0.001171329524368,0.0008718502358533,0.0180443096905946,-0.1985740810632705,0.8040664196014404,0.0103801032528281,0
6910,0.0181584060192108,-0.0038026666734367,0.9999556541442872,-0.1675844639539718,0.166094496846199,0.1376037895679474,0.0010171132162213,-6.249121361179277e-05,0.0172626748681068,-0.1056730225682258,0.8880709409713745,0.0102120134979486,0
6940,0.0168012510985136,-0.0045469882898032,0.9971063137054444,0.1217042133212089,-0.2137108594179153,-0.1407082080841064,0.0010618985397741,0.001314369845204,0.0169335845857858,-0.2023234069347381,0.9028100967407228,0.0123340776190161,0
6980,0.0175556559115648,-0.0016790347872301,0.9996999502182008,-0.0015429242048412,-0.1442630290985107,0.0928686186671257,0.0010508751729503,0.0009591300040483,0.0176781266927719,-0.1667608618736267,0.9114657640457152,0.0096621988341212,0
7070,0.0201316960155963,-0.0020049945451319,0.996964991092682,0.0500997118651866,-0.2049599438905716,-0.0045511974021792,0.0009346306324005,-5.723505455534905e-05,0.0181745663285255,-0.1065918281674385,0.9351034164428712,0.0070858756080269,0
7090,0.0188390370458364,-0.0038177813403308,1.000610113143921,-0.0299491565674543,-0.0218264479190111,-0.0705343708395958,0.0010073600569739,0.0010264569427818,0.0177017301321029,-0.1630841493606567,0.9378825426101683,0.0080875158309936,0
7090,0.0188390370458364,-0.0038177813403308,1.000610113143921,-0.0299491565674543,-0.0218264479190111,-0.0705343708395958,0.0010073600569739,0.0010264569427818,0.0177017301321029,-0.1630841493606567,0.9378825426101683,0.0080875158309936,0
7170,0.0179299656301736,-0.0030950168147683,0.997584104537964,0.2336260676383972,0.0666566118597984,0.2062150239944458,0.00088572059758,-8.905578579287976e-05,0.0182543601840734,-0.1015590578317642,0.9571075439453124,0.0071182772517204,0
7240,0.0214806105941534,-0.0013059972552582,0.9997603297233582,0.0053422362543642,0.1297603994607925,0.1433557420969009,0.0009377329261042,-8.54231184348464e-05,0.0187192801386117,-0.1083521023392677,0.9578511714935304,0.0052984370850026,0
7320,0.0176016837358474,-0.0028589791618287,0.9982408285140992,0.2476735413074493,0.0962185636162757,0.0567711070179939,0.0010506742401048,-0.0009882570011541,0.0187586136162281,-0.0765195339918136,0.9554234743118286,0.004636138677597,0
7330,0.0173886269330978,-0.0028732570353895,1.0004409551620483,-0.1687995940446853,0.0647331327199935,0.1200781166553497,0.000725757330656,-5.461190812638961e-05,0.0187832675874233,-0.1179876029491424,0.9682900309562684,0.0065999515354633,0
7400,0.0178629625588655,-0.0022833449766039,0.9993765950202942,-0.0017243192996829,0.0875239074230194,-0.0112111894413828,0.0004422092461027,-0.0003806480963248,0.0189331155270338,-0.1032996475696563,0.9790613651275636,0.0039448961615562,0
7410,0.0172391571104526,0.0002373390743741,0.9997169375419616,-0.1287153363227844,0.339551568031311,-0.1544925570487976,0.0004400302132125,0.0008948977920226,0.0189463812857866,-0.1545536518096923,0.9781240224838256,0.0066514499485492,0
7480,0.0186055786907672,-0.0024359903763979,1.0024374723434448,0.043765265494585,0.4849027991294861,-0.2090434432029724,0.0008186995401047,-0.0010745642939582,0.018091881647706,-0.0724361687898635,0.960613250732422,0.0024696579203009,0
7600,0.0178754720836877,-0.0034633220639079,1.0003606081008911,0.1981132328510284,-0.0450970754027366,-0.0165312699973583,0.0006927666254341,-0.0009984620846807,0.0201064180582761,-0.0707079917192459,0.9680562019348145,0.0048315804451704,0
7730,0.0186412073671817,-0.0019382733153179,1.0004364252090454,-0.1432128399610519,-0.2339936941862106,-0.0165729131549596,0.0005769901908934,0.0009712387691251,0.0182857830077409,-0.1571413725614547,0.9730262160301208,0.008301893249154,0
7740,0.0185972303152084,-0.0023649742361158,1.000048041343689,-0.0162365362048149,0.0711899846792221,0.0065295309759676,0.0005633517284877,0.0007011638954281,0.0182379875332117,-0.1457794606685638,0.9755528569221495,0.0070405798032879,0
7930,0.020292630419135,-0.0005488689057528,0.9997704029083252,-0.1606828719377517,0.308694064617157,0.0452261939644813,0.0006021819426678,-7.868195825722069e-05,0.0188659541308879,-0.1130683049559593,0.9783589243888856,0.0020681910682469,0
8060,0.0190228912979364,-0.003387804608792,1.0008182525634766,-0.0093218851834535,-0.1797155886888504,-0.0095440847799181,0.0005447181174531,0.0006362294661812,0.0199323948472738,-0.1415155827999115,0.9848119616508484,0.000216458865907,0
8080,0.0208748709410429,-0.0011965433368459,0.9983482360839844,-0.0535400211811065,-0.0587621293962001,-0.0316334888339042,0.000524134025909,0.0008630704833194,0.0200878083705902,-0.1496461480855941,0.988806128501892,0.0016269653569906,0
8100,0.0187235176563262,-0.001747383386828,0.999463677406311,-0.2001120895147323,0.3663950860500335,-0.0043533910065889,0.0005248337984085,-7.810509123373777e-05,0.020235339179635,-0.112676128745079,0.9865581393241882,-0.0007477581384591,0
8100,0.0187235176563262,-0.001747383386828,0.999463677406311,-0.2001120895147323,0.3663950860500335,-0.0043533910065889,0.0005335075547918,0.0006196901085786,0.0197889599949121,-0.1420221477746963,0.9862745404243468,0.0005711099365726,0
8220,0.0168519858270883,-0.0037681178655475,0.9996878504753112,-0.1409711092710495,-0.0765382200479507,0.1641731262207031,0.0005744692170992,0.000620394013822,0.018500667065382,-0.1457093507051468,0.9910613298416138,0.0023592179641127,0
8240,0.0184451658278703,-0.0023183890152722,1.0002343654632568,0.0120886834338307,0.1698209941387176,-0.0911175683140754,0.0008466233266517,-0.00082604191266,0.0182723682373762,-0.0873506367206573,0.9831636548042296,0.0023585162125527,0
8370,0.0206173993647098,-0.00189148215577,1.000752568244934,0.0576693303883075,-0.122293509542942,-0.073323018848896,0.0007198071689344,-4.895771780866198e-05,0.0182105284184217,-0.1264273226261139,0.9862337112426758,0.0058224448002874,0
8370,0.0206173993647098,-0.00189148215577,1.000752568244934,0.0576693303883075,-0.122293509542942,-0.073323018848896,0.0007570523303002,-3.9124821341829374e-05,0.0181127004325389,-0.1252145022153854,0.9865908026695251,0.0050252610817551,0
8390,0.0188076589256525,-0.0020843953825533,1.0014690160751345,-0.1311585158109665,-0.1061925068497657,-0.1149521693587303,0.0007737934356555,0.0009078868897631,0.0180758256465196,-0.1604613363742828,0.9906376600265504,0.0058061517775058,0
8400,0.0202038828283548,-0.0025188033469021,1.0005351305007937,0.1482440084218979,-0.1963106393814087,-0.1187969148159027,0.0004455358139239,0.0008774807211011,0.0180600192397832,-0.1557785719633102,1.0050990581512451,0.0051638288423419,0
8550,0.0444198958575725,-0.0369568467140197,0.9771888256072998,-0.5726004838943481,-0.0354590155184268,-3.1771278381347656,0.0003974594874307,0.0007903198711574,0.0179050676524639,-0.1509226858615875,1.0060075521469116,0.0006562452181242,0
8550,0.0444198958575725,-0.0369568467140197,0.9771888256072998,-0.5726004838943481,-0.0354590155184268,-3.1771278381347656,0.0003974594874307,0.0007903198711574,0.0179050676524639,-0.1509226858615875,1.0060075521469116,0.0006562452181242,0
8560,0.012966401875019,-0.0033968114294111,1.0213768482208252,1.280845284461975,-1.09523344039917,7.1782097816467285,0.0003974594874307,0.0007903198711574,0.0179050676524639,-0.1509226858615875,1.0060075521469116,0.0006562452181242,0
8690,0.0275675468146801,-0.0353219434618949,0.9483640789985656,-4.109522342681885,1.887939453125,-0.5751917958259583,-0.0015731111634522,-0.000994288129732,0.01819409430027,-0.0627872869372367,0.9841096997261048,0.0291709024459123,0
8700,-0.0061197723262012,0.0324077904224395,1.0752049684524536,1.86375093460083,-3.143169403076172,-1.2023392915725708,-0.0015104094054549,-0.0016011386178433,0.0183558668941259,-0.0584814511239528,0.9865089058876038,0.0145413037389516,0
8850,0.0109022194519639,-0.0268422402441501,0.9914361834526062,1.156540870666504,28.258771896362305,-7.20549201965332,0.0032066167332232,-2.57650317507796e-05,0.0205906834453344,-0.449801504611969,-0.0544765703380107,-0.2586573362350464,0
8860,0.0293563790619373,-0.0112087428569793,1.043771505355835,0.3411629796028137,23.80221176147461,-8.216341972351074,0.0016417540609836,0.0007450950797647,0.0213008802384138,-0.4493965804576874,-0.253229022026062,-0.3335747420787811,0
8870,0.0138532221317291,0.0028777658008038,1.0499857664108276,-1.870628237724304,26.843618392944336,-2.909478187561035,0.0046797893010079,0.0006812711944803,0.0218991078436374,-0.4665539264678955,-0.8804253935813904,-0.4430041909217834,0
8880,-0.0098356418311595,-0.0205410569906234,1.0109870433807373,-5.406106472015381,29.89901733398437,-2.484694004058838,0.00458579743281,0.0057229036465287,0.022165035828948,-0.7092490792274475,-1.1827762126922607,-0.4810211658477783,0
8990,-0.0775743052363395,-0.0344443917274475,0.9966142177581788,-21.374347686767575,19.38209724426269,-5.068389415740967,0.0121729951351881,0.0082576964050531,0.0159905888140201,-2.3551230430603027,-4.2981390953063965,-0.9835270047187804,0
9030,-0.0831738039851188,-0.0624070614576339,0.9932147264480592,-36.12982177734375,4.622590065002441,-4.818761825561523,0.0118060950189828,0.0085032982751727,0.0160628966987133,-3.2376527786254883,-4.2564778327941895,-1.014638900756836,0
9030,-0.0831738039851188,-0.0624070614576339,0.9932147264480592,-36.12982177734375,4.622590065002441,-4.818761825561523,0.0115696471184492,0.0087317870929837,0.0130760595202445,-3.5787882804870605,-4.264482498168945,-1.065780758857727,0
9150,-0.0991738885641098,-0.0766060501337051,1.0133017301559448,5.400918960571289,6.277369976043701,-27.57889747619629,0.0026510483585298,0.0197991039603948,0.0075142295099794,-4.276317119598389,-4.939312934875488,-3.663452386856079,0
9160,-0.1014772728085517,-0.0801988691091537,1.007481813430786,5.0182695388793945,3.466306209564209,-25.63544273376465,0.0014122996944934,0.0232105497270822,0.0097248442471027,-4.2207231521606445,-4.857138633728027,-4.245248794555664,0
9250,-0.0944277644157409,-0.0746224150061607,0.9743271470069884,15.59086799621582,17.014976501464844,-27.284969329833984,-0.0057794991880655,0.0385465919971466,0.0108380392193794,-3.402792692184448,-4.757769584655762,-6.828357696533203,0
9270,-0.1046211868524551,-0.065418042242527,0.9992666244506836,11.270589828491213,14.408257484436035,-23.55208396911621,-0.0058788699097931,0.0386072024703025,0.0110764177516102,-3.189735651016236,-4.864467620849609,-7.05943775177002,0
9380,-0.1274087578058242,-0.0719123482704162,0.9889078736305236,1.7266470193862915,4.281571865081787,-0.9965513348579408,-0.0070864176377654,0.0513143837451934,0.0104333497583866,-2.23364782333374,-5.225198268890381,-8.333531379699707,0
9420,-0.1133569628000259,-0.0556175149977207,0.9998142123222352,-2.458587408065796,-0.1317784786224365,0.5968512296676636,-0.0026725181378424,0.0531424358487129,0.0125060677528381,-1.807552933692932,-5.3847975730896,-8.177989959716797,0
9450,-0.1201873272657394,-0.0722964853048324,0.9790305495262146,-9.50244140625,-1.8140031099319456,8.399758338928223,0.0005184212932363,0.0530740618705749,0.013184112496674,-1.772053360939026,-5.267681121826172,-7.83770227432251,0
9530,-0.0870836600661277,-0.0415090322494506,0.9683592319488524,-17.356443405151367,-22.805858612060547,0.5671617984771729,0.0110286278650164,0.049436055123806,0.0101041756570339,-2.348228454589844,-4.270735740661621,-6.720541477203369,0
9560,-0.0557576157152652,-0.0478209964931011,0.9722895622253418,-11.126063346862791,-15.1807279586792,-15.584686279296877,0.0158436112105846,0.0507437027990818,0.0094139063730835,-2.555231809616089,-3.865299940109253,-6.8032331466674805,0
9570,-0.0803400427103042,-0.0595307871699333,0.9962355494499208,-9.231972694396973,-9.715227127075195,-21.63295555114746,0.0179779324680566,0.0517723560333251,0.0106652621179819,-2.6716177463531494,-3.682039976119995,-6.961674213409424,0
9570,-0.0803400427103042,-0.0595307871699333,0.9962355494499208,-9.231972694396973,-9.715227127075195,-21.63295555114746,0.0219683200120925,0.0533529296517372,0.0099620399996638,-2.8041136264801025,-3.6333436965942383,-7.1795854568481445,0
9680,-0.1415033191442489,-0.1078503280878067,1.0283241271972656,0.8732441067695618,-5.081824779510498,-20.87709045410156,0.0485939383506774,0.0735882744193077,0.0127315791323781,-2.802201986312866,-2.6448116302490234,-9.61779499053955,0
9700,-0.140232428908348,-0.1089159771800041,1.0642913579940796,2.559302568435669,-0.2564524710178375,-18.03556251525879,0.0518440008163452,0.0781511664390564,0.0139317195862531,-2.8635754585266118,-2.544438362121582,-10.022006034851074,0
9710,-0.0844069495797157,-0.0794987976551055,0.9880954027175904,-2.167288064956665,5.574885845184326,-20.19160270690918,0.053415697067976,0.0812443271279335,0.0141903068870306,-2.934657096862793,-2.5056591033935547,-10.258410453796388,0
9840,-0.1097321361303329,-0.0767489597201347,1.0497668981552124,-5.567941665649414,44.78757095336914,-44.66608428955078,0.0729488655924797,0.1137685477733612,0.0131133385002613,-3.5459580421447754,-3.4451262950897217,-15.307243347167969,0
9850,-0.1333245635032653,-0.1080229133367538,1.05045747756958,-7.682659149169922,52.637298583984375,-38.11648941040039,0.0737910196185112,0.11636533588171,0.0139418700709939,-3.602632522583008,-3.7832765579223633,-15.791626930236816,0
9890,-0.0726350992918014,-0.0768449082970619,1.0052218437194824,-25.18553924560547,68.09256744384766,-51.16919708251953,0.076554924249649,0.125316247344017,0.0149155873805284,-4.036897659301758,-5.708615303039551,-17.743579864501953,0
9990,-0.2515409290790558,-0.2013587802648544,1.0494705438613892,-136.3643035888672,123.3663101196289,4.107223987579346,0.0959098935127258,0.1459554731845855,0.0342318676412105,-11.77896213531494,-15.089956283569336,-21.53582572937012,0
10030,-0.2874065935611725,-0.2285180389881134,1.0034127235412598,-211.1498870849609,156.47433471679688,25.734886169433597,0.102662093937397,0.147803708910942,0.0369073040783405,-16.769865036010742,-19.18620491027832,-21.97682762145996,0
10130,-0.2005763202905655,-0.094041958451271,0.7707569003105164,-622.7242431640625,349.3424987792969,110.70326232910156,0.1623991876840591,0.1737156808376312,0.0480206161737442,-65.60942077636719,-43.02798461914063,-34.93609619140625,0
10150,-0.2094208747148513,-0.2068719267845153,0.6966798305511475,-798.6947631835938,418.4035949707031,142.96900939941406,0.1823790222406387,0.1846496015787124,0.0430243089795112,-88.10919952392578,-47.590274810791016,-45.18170928955078,0
10210,-1.041905164718628,-0.4830973744392395,0.087085448205471,-497.3768310546875,1471.2064208984375,-769.6796264648438,0.3473049104213714,0.2864798903465271,0.0319327265024185,-170.7274932861328,-38.21683120727539,-74.9550552368164,0
10300,-0.3738650679588318,-0.2019926011562347,-1.1636289358139038,331.3165588378906,-85.7081527709961,-528.2588500976562,0.5289258360862732,0.2341746687889099,0.1866933107376098,-143.60606384277344,10.374220848083496,-27.02386283874512,0
10320,-0.1494957059621811,-0.1895375400781631,-0.4600389301776886,-652.9693603515625,-318.8462829589844,-307.89263916015625,0.5672616362571716,0.2646800875663757,0.2029505223035812,-153.98634338378906,10.909165382385254,-13.299494743347168,0
10320,-0.1494957059621811,-0.1895375400781631,-0.4600389301776886,-652.9693603515625,-318.8462829589844,-307.89263916015625,0.5672616362571716,0.2646800875663757,0.2029505223035812,-153.98634338378906,10.909165382385254,-13.299494743347168,0
10330,0.0226259119808673,-0.064790666103363,0.1168947890400886,-681.2513427734375,-263.4617614746094,-309.8529052734375,0.5780051350593567,0.264218807220459,0.2105962336063385,-161.0937957763672,10.625569343566896,-9.708890914916992,0
10400,-0.3991392850875854,-0.284399002790451,-4.071679592132568,-576.634521484375,-1103.981689453125,-43.838008880615234,0.6213011145591736,0.2226574122905731,0.2770839631557464,172.46388244628906,15.91436004638672,9.639491081237791,0
10580,-0.4684920012950897,0.431144505739212,-1.2427207231521606,-17.501220703125,-30.43588638305664,128.1120147705078,0.543566882610321,0.1573183983564376,0.3888591229915619,-170.25418090820312,15.507916450500488,-25.551671981811523,0
10630,0.0607395470142364,-0.1161375865340232,-1.022325873374939,-1.2600804567337036,1.628326416015625,-0.0982695668935775,0.5004933476448059,0.1508986055850982,0.4316869378089905,-169.21009826660156,14.128573417663574,-27.95918083190918,0
10650,-0.0068745929747819,0.0042477766983211,-1.034218430519104,-0.2476219236850738,0.5548808574676514,0.4777459502220154,0.4913417994976043,0.1483726650476455,0.4512810707092285,-169.16741943359375,13.530744552612305,-27.856040954589844,0
10700,-0.0009623491205275,-5.362384763429873e-05,-1.033500909805298,-0.9974597692489624,0.9076963067054749,1.3547593355178833,0.4568667113780975,0.144063651561737,0.4826317131519317,-168.87794494628906,13.168292999267578,-27.81258773803711,0
10710,-0.0124769480898976,-0.0010752170346677,-1.0356072187423706,-0.7777478098869324,0.2912551462650299,1.5429607629776,0.4409435987472534,0.1439564824104309,0.5014427900314331,-168.78025817871094,12.961925506591797,-27.78045463562012,0
10770,0.0050894464366137,-0.0010897677857428,-1.030313491821289,0.5179098844528198,-0.4549686908721924,-0.4227590262889862,0.3909381926059723,0.1291941404342651,0.5554011464118958,-168.39389038085938,12.05813217163086,-27.62816429138184,0
10820,-0.002459323266521,2.620974328237935e-06,-1.0318186283111572,-0.1048777177929878,-0.1320785582065582,-0.1730931103229522,0.3524782657623291,0.1174461618065834,0.6078718900680542,-168.14425659179688,11.27703857421875,-27.46943473815918,0
10820,-0.002459323266521,2.620974328237935e-06,-1.0318186283111572,-0.1048777177929878,-0.1320785582065582,-0.1730931103229522,0.3524782657623291,0.1174461618065834,0.6078718900680542,-168.14425659179688,11.27703857421875,-27.46943473815918,0
10830,-0.0018525237683206,-0.0006233904859982,-1.0304800271987915,-0.0620916597545146,0.0415677092969417,0.2442454844713211,0.3451336026191711,0.1159207597374916,0.6195791959762573,-168.1067657470703,11.131712913513184,-27.437183380126957,0
10960,-0.0039461799897253,-0.0010190448956564,-1.0317822694778442,-0.042894035577774,0.3258677721023559,0.076294295489788,0.2214334160089492,0.0646167770028114,0.7554022669792175,-167.2406463623047,9.638998985290527,-27.151620864868164,0
10990,-0.0022853412665426,-0.000653073657304,-1.0334830284118652,-0.2307617217302322,0.0036951608490198,0.0211547221988439,0.1924264430999755,0.0484910197556018,0.7886741757392883,-167.03858947753906,9.287016868591309,-27.07923889160156,0
11110,-0.0012943990295752,0.0003339055401738,-1.0316007137298584,-0.1311452090740203,0.0900078788399696,-0.1523751765489578,0.0584955513477325,-0.0209492817521095,0.9049245119094848,-166.1622772216797,8.416545867919922,-26.927431106567383,0
11110,-0.0012943990295752,0.0003339055401738,-1.0316007137298584,-0.1311452090740203,0.0900078788399696,-0.1523751765489578,0.0417561717331409,-0.0288991965353488,0.912877917289734,-166.05215454101562,8.390643119812012,-26.930953979492188,0
11160,-0.0006479796720668,0.0009920131415128,-1.0314048528671265,-0.0828781500458717,0.1953403204679489,0.0394368655979633,-0.025571446865797,-0.0676144808530807,0.9671397805213928,-165.6436309814453,8.035416603088379,-26.86795234680176,0
11160,-0.0006479796720668,0.0009920131415128,-1.0314048528671265,-0.0828781500458717,0.1953403204679489,0.0394368655979633,-0.0351797938346862,-0.0704381614923477,0.9855603575706482,-165.6322479248047,7.942324638366699,-26.836130142211918,0
11170,-0.0013087914558127,-0.000804282259196,-1.0325813293457031,0.2545385360717773,-0.1200306639075279,0.1934291720390319,-0.0481769293546676,-0.0832423865795135,0.9933661818504332,-165.51727294921875,7.836403846740723,-26.820505142211918,0
11160,-0.0006479796720668,0.0009920131415128,-1.0314048528671265,-0.0828781500458717,0.1953403204679489,0.0394368655979633,-0.0481769293546676,-0.0832423865795135,0.9933661818504332,-165.51727294921875,7.836403846740723,-26.820505142211918,0
11220,-0.0033503365702927,0.0007818987360224,-1.030972599983215,-0.1702791154384613,0.0083871902897953,0.0419489443302154,-0.107609212398529,-0.1190256997942924,1.03622305393219,-165.17100524902344,7.591406345367432,-26.78278160095215,0
11310,-0.0014302503550425,0.0019414027919992,-1.0298439264297483,-0.0779375657439231,0.2998440861701965,0.0863631665706634,-0.2381039708852768,-0.2060653120279312,1.145522952079773,-164.4813690185547,6.977111339569092,-26.65545654296875,0
11390,-0.0021684537641704,-0.0007230162154883,-1.0313968658447266,-0.2036140412092209,-0.3421095013618469,0.0336315929889678,-0.3636898398399353,-0.2921089828014374,1.2488553524017334,-163.88282775878906,6.492453098297119,-26.55040740966797,0
11400,-0.0017759155016392,-0.0008868281147442,-1.0306726694107056,0.1116762086749076,-0.0009707199060358,-0.0143677424639463,-0.3636898398399353,-0.2921089828014374,1.2488553524017334,-163.88282775878906,6.492453098297119,-26.55040740966797,0
11490,-0.0006973271956667,0.0034065500367432,-1.0313138961791992,-0.0229332130402326,-0.0114909280091524,0.0534008704125881,-0.5694469809532166,-0.4468658566474914,1.3272091150283811,-162.7452850341797,6.103888034820557,-26.54197120666504,0
11510,-0.0017998517723754,-4.766040001413785e-05,-1.0312769412994385,0.1078856140375137,0.0110856415703892,-0.0332681201398372,-0.6154738068580627,-0.4786072671413421,1.3429570198059082,-162.52337646484375,6.052404403686523,-26.54574203491211,0
11520,-0.0005308907711878,0.000615055556409,-1.0296543836593628,-0.0813758373260498,0.3761532306671142,-0.1199666112661361,-0.6388297080993652,-0.4948433935642242,1.35073721408844,-162.41268920898438,6.0278191566467285,-26.547426223754883,0
11660,-0.0013455441221594,-0.000321214494761,-1.0302846431732178,-0.2106713503599167,0.278904527425766,-0.0380770824849605,-0.9422253370285034,-0.721259593963623,1.4718512296676636,-161.1190643310547,5.573007583618164,-26.512901306152344,0
11830,-0.0025076686870306,0.0015053168172016,-1.0334854125976562,0.0439308360219001,-0.0648378506302833,-0.1429303884506225,-1.3470962047576904,-1.0648425817489624,1.672939658164978,-159.67034912109375,4.8384857177734375,-26.38506317138672,0
11860,-0.000881171785295,0.0009740561945363,-1.033416509628296,-0.2261572778224945,0.1175260618329048,-0.2329542338848114,-1.4534531831741333,-1.156530499458313,1.7168715000152588,-159.31431579589844,4.692099571228027,-26.36177444458008,0
11990,0.0014739056350663,0.0020778833422809,-1.0310755968093872,0.2552076280117035,-0.0100771561264991,-0.0458869524300098,-1.7965335845947266,-1.4761438369750977,1.8835251331329343,-158.25650024414062,4.14262580871582,-26.246753692626957,0
12010,-0.0028149671852588,-0.0005302518256939,-1.0326895713806152,0.205221027135849,-0.300607830286026,0.1075294837355613,-1.816791534423828,-1.496687650680542,1.9093421697616575,-158.2305908203125,4.0781569480896,-26.226097106933597,0
12020,-0.0020243970211595,0.0010425668442621,-1.0332558155059814,0.01081108674407,0.2658774554729461,-0.2733108699321747,-1.837300539016724,-1.5202932357788086,1.9309344291687007,-158.18576049804688,4.010877132415772,-26.205734252929688,0
12130,-0.0011132847284898,0.0005979740526527,-1.0327931642532349,-0.0178314335644245,0.1011146605014801,0.0283619277179241,-2.211683988571167,-1.8789161443710327,2.0369069576263428,-157.02162170410156,3.627599954605103,-26.149627685546875,0
12160,-0.0019334818935021,-0.0011801291257143,-1.032932996749878,-0.134079709649086,-0.1299807876348495,-0.1874986290931701,-2.268177032470703,-1.9346301555633545,2.071330547332764,-156.89602661132812,3.5434165000915527,-26.129064559936523,0
12170,0.0001867175160441,-0.0004737671697512,-1.0314117670059204,0.0610841512680053,-0.0884334295988082,-0.1868574023246765,-2.337965965270996,-2.002664804458618,2.081343173980713,-156.67689514160156,3.489311456680298,-26.123645782470703,0
12290,-0.0040242527611553,0.0008384157554246,-1.0327037572860718,-0.1151968240737915,0.0594364367425441,-0.0049433433450758,-2.695809364318848,-2.368892908096313,2.200656652450561,-155.7264404296875,3.107855319976806,-26.047319412231445,0
12290,-0.0040242527611553,0.0008384157554246,-1.0327037572860718,-0.1151968240737915,0.0594364367425441,-0.0049433433450758,-2.733015298843384,-2.4070069789886475,2.2045938968658447,-155.61817932128906,3.0831782817840576,-26.045578002929688,0
12320,0.0022532998118549,0.0020403352100402,-1.030665397644043,-0.1074718236923217,-0.0719676688313484,0.0213360022753477,-2.845984935760498,-2.523550271987915,2.215505123138428,-155.29205322265625,3.0073537826538086,-26.03585624694824,0
12420,-0.0009272976894862,0.0037279785610735,-1.031985640525818,-0.0002483242715243,0.0062344260513782,-0.1248216331005096,-3.1381518840789795,-2.831979274749756,2.36283802986145,-154.70851135253906,2.6648478507995605,-25.95412826538086,0
12460,-0.0006818898255005,0.0007986088749021,-1.0327082872390747,-0.1218533888459205,-0.1013102084398269,0.1414550840854644,-3.32315993309021,-3.0348074436187744,2.402360677719116,-154.24827575683594,2.5111632347106934,-25.92500305175781,0
12470,0.0014341166242957,4.70827471872326e-05,-1.0336122512817385,-0.0399876162409782,0.2641817629337311,-0.0922374278306961,-3.3635528087615967,-3.0789618492126465,2.404758930206299,-154.14041137695312,2.48738956451416,-25.921859741210938,0
12490,-0.0013200374087318,0.0005104960873723,-1.032637596130371,0.0951854214072227,0.3126198947429657,0.0059281652793288,-3.445011138916016,-3.1684396266937256,2.409041166305542,-153.9236297607422,2.438316345214844,-25.915775299072266,0
12610,-0.000970349588897,0.0003523125778883,-1.032795548439026,0.1290762573480606,-0.0817140489816665,-0.1429377347230911,-3.888033151626587,-3.660157203674317,2.5643036365509038,-153.04164123535156,2.0227651596069336,-25.822345733642575,0
12650,-0.0039141778834164,7.258920959429815e-05,-1.0314557552337646,-0.0196338072419166,0.3118285834789276,-0.0207911394536495,-4.045890808105469,-3.836902141571045,2.6066462993621826,-152.72616577148438,1.900684475898743,-25.79587745666504,0
12780,-0.0007911146385595,-0.0006762351840734,-1.032114863395691,-0.0044407797977328,0.317471444606781,-0.0977003127336502,-4.569664478302002,-4.439971446990967,2.757718801498413,-151.7577362060547,1.4877322912216189,-25.70103645324707,0
12790,-0.0019207765581086,-0.0019112017471343,-1.0323415994644165,-0.1511011570692062,0.2926358878612518,-0.0791874080896377,-4.569664478302002,-4.439971446990967,2.757718801498413,-151.7577362060547,1.4877322912216189,-25.70103645324707,0
12810,-0.0019651986658573,1.3695428606297357e-05,-1.0322576761245728,0.0882658287882804,0.1667473912239074,0.0421318970620632,-4.630155563354492,-4.503796577453613,2.8324999809265137,-151.76010131835938,1.3985923528671265,-25.67664909362793,0
12850,-0.0014700273750349,0.0012619292829185,-1.0325509309768677,0.0150270452722907,-0.0011938338866457,0.1366929709911346,-4.862718105316162,-4.787472724914551,2.8268303871154785,-151.21829223632812,1.270318865776062,-25.649322509765625,0
12950,-0.0035129461903125,-3.1700787076260895e-05,-1.0344760417938232,-0.0111287347972393,-0.0660644024610519,-0.0702327564358711,-5.277623653411865,-5.300931930541992,2.842186689376831,-150.3455047607422,1.0229549407958984,-25.59197235107422,0
12980,-0.0004990036832168,0.0002568381023593,-1.031424045562744,-0.0376191958785057,0.3287200033664703,-0.0867148786783218,-5.4072980880737305,-5.450887203216553,2.8866195678710938,-150.16661071777344,0.9292769432067872,-25.57173538208008,0
12980,-0.0004990036832168,0.0002568381023593,-1.031424045562744,-0.0376191958785057,0.3287200033664703,-0.0867148786783218,-5.4072980880737305,-5.450887203216553,2.8866195678710938,-150.16661071777344,0.9292769432067872,-25.57173538208008,0
13140,-0.0007712666410952,-0.0011156484251841,-1.031342387199402,-0.0110298711806535,-0.0216563772410154,-0.1089507490396499,-6.1798858642578125,-6.394607067108154,3.0624794960021973,-148.99932861328125,0.4211305677890777,-25.450590133666992,0
13150,-0.0007798876031301,0.0009309337474405,-1.0311946868896484,-0.1497078090906143,-0.0320561751723289,0.1226550564169883,-6.2321648597717285,-6.463709831237793,3.05639910697937,-148.8919677734375,0.3956745564937591,-25.4439640045166,0
13290,-0.0016519228229299,-0.0016283079748973,-1.0323035717010498,-0.0180892795324325,0.1504193991422653,0.1525064259767532,-6.838875770568848,-7.186661243438721,3.24991774559021,-148.18728637695312,0.0076159331947565,-25.35558319091797,0
13310,-0.0005289386608637,0.0017727022059261,-1.0327496528625488,-0.1285127848386764,0.3145091831684112,0.281735897064209,-6.947973728179932,-7.335203647613525,3.234269380569458,-147.9715118408203,-0.0431707724928855,-25.34012794494629,0
13500,-0.0017988258041441,0.0013220852706581,-1.0328700542449951,0.2666258513927459,-0.2761724591255188,0.0891428962349891,-7.849127292633057,-8.456003189086914,3.526092767715454,-147.03952026367188,-0.6189833283424377,-25.21217918395996,0
13540,0.0004860023036599,0.0012878302950412,-1.030108094215393,0.1434827297925949,-0.0802091360092163,0.0596739314496517,-8.118086814880371,-8.823878288269043,3.526474714279175,-146.62576293945312,-0.752709686756134,-25.17852210998535,0
13650,0.0007441983325406,-0.000314656906994,-1.0298267602920532,0.0656138509511947,0.1266616731882095,0.0255072172731161,-8.705968856811523,-9.59605312347412,3.5924835205078125,-145.9096221923828,-1.0497496128082275,-25.103761672973636,0
13660,-0.0002370746078668,0.0015265953261405,-1.030763864517212,-0.0950952470302581,-0.169432133436203,-0.0157410930842161,-8.766035079956055,-9.683939933776855,3.5789620876312256,-145.80264282226562,-1.0735116004943848,-25.093259811401367,0
13670,-0.0009472161182202,0.0010992608731612,-1.033097505569458,-0.097334511578083,-0.1894863992929458,0.0484642311930656,-8.766035079956055,-9.683939933776855,3.5789620876312256,-145.80264282226562,-1.0735116004943848,-25.093259811401367,0
13810,-0.003787871915847,-0.0011186555493623,-1.0311254262924194,0.1080094128847122,0.2235770672559738,0.0688438862562179,-9.47315788269043,-10.550063133239746,3.836097240447998,-145.328125,-1.483999252319336,-25.014646530151367,0
13830,-0.0032998896203935,-0.0009591515990905,-1.031914234161377,0.0143288569524884,0.122166708111763,0.0123503068462014,-9.647698402404783,-10.768592834472656,3.853789567947388,-145.14602661132812,-1.5546609163284302,-25.00076675415039,0
13840,-0.0017072969349101,0.0017693068366497,-1.0315017700195312,-0.098426878452301,-0.0154519900679588,-0.2136894911527633,-8.215700404434756e-07,5.204266813052527e-07,-0.0008072490454651,-0.0006816560053266,0.0003321005497127,-0.0009824828011915,0
13930,-0.0010947288246825,0.0003425421600695,-1.0328340530395508,0.0287914387881755,-0.1116011142730712,-0.0117736523970961,-7.059260678943247e-05,-2.7399232749303337e-07,2.9804320335388184,-0.0009148354874923,0.0027093361131846,0.0008842687238939,0
13990,-0.0028883076738566,0.0008235493442043,-1.0314600467681885,-0.2130365520715713,0.0380296669900417,-0.1242466196417808,-0.0002118036791216,3.2661314435245004e-06,2.841174840927124,-0.0033794697374105,0.0034552339930087,0.0010541371302679,0
14000,-0.0007234857184812,0.0005845896666869,-1.0306153297424316,-0.1196877509355545,0.0521761216223239,0.0455866120755672,-0.0002391791495028,6.945723271201132e-06,2.808627128601074,-0.0039583779871463,0.0031350678764283,0.0023294682614505,0
14120,-0.0032786200754344,0.0005279761389829,-1.031680703163147,0.0117329536005854,-0.1585761308670044,0.1542081385850906,-0.0006431823130697,9.486663475399836e-05,2.4958720207214355,0.0012356712250038,-0.0027344203554093,-0.001890696818009,0
14140,-0.0018737158970907,0.0002155095571652,-1.0316182374954224,-0.1677201390266418,-0.0589726753532886,0.2725926041603088,-0.0007338863797485,0.0001159128951258,2.3838727474212646,0.0030515743419528,-0.0007509126444347,-0.0005468066083267,0
14220,-0.0024385701399296,-0.0013933848822489,-1.030991792678833,0.0999646186828613,-0.1518214643001556,0.0937803015112876,-0.0015738029032945,0.0002858364023268,2.0444798469543457,0.0055062887258827,-0.0297034680843353,0.0018896169494837,0
14280,0.0029037911444902,0.0011891194153577,-1.0324010848999023,0.2421723455190658,0.0608775094151496,-0.0573841035366058,-0.0026168364565819,0.0004600751271937,1.8364636898040767,0.0129842413589358,-0.0678563565015792,7.259754784172401e-05,0
14280,0.0029037911444902,0.0011891194153577,-1.0324010848999023,0.2421723455190658,0.0608775094151496,-0.0573841035366058,-0.0026168364565819,0.0004600751271937,1.8364636898040767,0.0129842413589358,-0.0678563565015792,7.259754784172401e-05,0
14300,-0.002103547565639,8.436131611233577e-05,-1.0311729907989502,0.0612370781600475,-0.0241115037351846,0.1198082789778709,-0.0030841222032904,0.0003069722733926,1.8994083404541016,-0.0003333308850415,-0.0902928560972213,-0.0002118841803167,0
14400,0.0002319127961527,0.0021647559478878,-1.0310542583465576,-0.0302348583936691,-0.2239331603050232,0.1781214475631714,-0.0065290294587612,0.0011406134581193,1.5761001110076904,0.0335446000099182,-0.1798685193061828,-0.0002606935740914,0
14440,0.0003235480398871,0.0010978991631418,-1.030880570411682,0.0764264911413192,-0.4033668041229248,-0.2234358936548233,-0.0075569916516542,0.0013044083025306,1.4697920083999634,0.0362309776246547,-0.1976173371076584,0.0001517781201982,0
14480,-0.0025149462744593,-0.0001265791506739,-1.0276044607162476,-0.0342797376215457,-0.1527875661849975,-0.1220260336995124,-0.0095917675644159,0.0016068475088104,1.3674625158309937,0.0405862443149089,-0.2421392649412155,-0.0028343861922621,0
14570,-0.0022069038823246,0.0005609511281363,-1.0335819721221924,-0.2012479752302169,0.092973381280899,0.0723005607724189,-0.0123684322461485,0.0012347742449492,1.170669436454773,0.0140315257012844,-0.2839027643203735,-0.0017233657417818,0
14590,-0.0012858054833486,0.0009934108238667,-1.0322166681289673,-0.0197757333517074,0.3274523019790649,-0.0821719914674758,-0.0133554600179195,0.0023861101362854,1.1866828203201294,0.0522374957799911,-0.2996780276298523,-0.0005959469708614,0
14600,-0.0020654785912483,-0.0013165125856176,-1.0323104858398438,0.2077507227659225,0.0369780324399471,-0.1475003659725189,-0.0136510459706187,0.0014621329028159,1.4069628715515137,0.0168406050652265,-0.3070147335529327,-0.0014362416695803,0
14650,-0.0013682813150808,-0.0003747214796021,-1.0314356088638306,-0.1033419296145439,0.0918104723095893,0.0556274242699146,-0.0143429720774292,0.0024344241246581,1.4004327058792114,0.0419087260961532,-0.3018399775028229,-0.0008185214246623,0
14760,-0.0011317610042169,-0.0001084165560314,-1.028676986694336,-0.0969200208783149,0.4164274930953979,-0.0246902741491794,-0.0158190187066793,0.0014885761775076,1.197543025016785,-0.0046092323027551,-0.2867738604545593,-0.0023840514477342,0
14760,-0.0011317610042169,-0.0001084165560314,-1.028676986694336,-0.0969200208783149,0.4164274930953979,-0.0246902741491794,-0.015836976468563,0.002233246108517,1.3656926155090332,0.0276520531624555,-0.2869266271591186,-0.0023331169504672,0
14780,-0.0016890910919755,0.0012119881575927,-1.032180905342102,-0.1121236979961395,-0.0200126096606254,0.2023739516735077,-0.0163889583200216,0.0023018980864435,1.182299017906189,0.0274921618402004,-0.2859442830085754,-0.0017964696744456,0
14910,-0.0016562461387366,0.003782755928114,-1.0318294763565063,-0.1333653926849365,0.0848792195320129,0.1251754760742187,-0.0189682263880968,0.0026843950618058,1.438168168067932,0.030865516513586,-0.3021069169044494,-0.0006832754588685,0
14920,-0.0025992782320827,-0.0001332136889686,-1.0313880443572998,-0.0958006903529167,-0.1770025789737701,-0.0111597161740064,-0.0195493139326572,0.0029726347420364,1.5520775318145752,0.0377870239317417,-0.3115119636058807,0.0007162722758948,0
15120,-0.0017317698802798,0.00128247984685,-1.0322635173797607,-0.0045557003468275,-0.227018192410469,-0.0538111366331577,-0.0245022177696228,0.0043856329284608,1.5031640529632568,0.0498641356825828,-0.3219791352748871,0.0051719052717089,0
15160,-0.0016647909069433,0.0013333444949239,-1.0309264659881592,0.0366343036293983,0.0350766591727733,0.1342775821685791,-0.0258585251867771,0.0047194710932672,1.714680790901184,0.0549478568136692,-0.3343383967876434,0.0065249591134488,0
15170,-0.0010234051151201,-0.0005194141413085,-1.0321165323257446,-0.186971515417099,0.3835701942443847,-0.0139604089781641,-0.0261668805032968,0.0047591770999133,1.6392279863357544,0.0553377456963062,-0.3346168398857116,0.006814956665039,0
15330,-5.631556632579304e-05,-0.0006673640455119,-1.031240701675415,-0.0823371708393096,0.2585980892181396,-0.084470048546791,-0.0315297245979309,0.0060013397596776,1.1975804567337036,0.0074503901414573,-0.3558166027069092,0.0044882725924253,0
15370,-0.002467303071171,0.0024665580131113,-1.0321356058120728,0.0204846244305372,-0.0045634475536644,0.1824590563774109,-0.0330318100750446,0.006120718549937,1.1526774168014526,0.0571738108992576,-0.3684965074062347,0.0070484788157045,0
15380,-0.0037455661222338,0.0014745768858119,-1.030351996421814,-0.0703241676092147,0.3802177608013153,0.0652127042412757,-0.0333902947604656,0.0062945517711341,1.3134795427322388,0.0561204329133033,-0.3852719664573669,0.0065020015463232,0
15390,0.0001645098818698,0.0012302695540711,-1.0319093465805054,0.1080952882766723,0.1191556602716445,0.0425222814083099,-0.0337714552879333,0.0063581950962543,1.2304514646530151,0.0565422624349594,-0.3868906795978546,0.0061989710666239,0
15540,-0.0003721286775544,-0.0003917620633728,-1.0335477590560913,-0.0462076961994171,-0.0202354211360216,0.0106622260063886,-0.0403692685067653,0.0093166353181004,1.6059836149215698,0.0153532167896628,-0.4204210638999939,0.004226051736623,0
15560,-0.0007003983482718,0.0013417450245469,-1.032458782196045,-0.0118687357753515,0.081055611371994,0.2245219647884369,-0.0412783287465572,0.0086313430219888,1.451787352561951,0.0461066141724586,-0.4169388115406036,0.0047828229144215,0
15720,-0.0023987966123968,-0.0012894886313006,-1.02844500541687,-0.0706594437360763,-0.1100815385580062,-0.0877389088273048,-0.0534009374678134,0.0123598473146557,1.4550873041152954,0.0231428239494562,-0.4400548040866852,0.0080953175202012,0
15740,-0.0003853441448882,0.0008719839970581,-1.0322493314743042,-0.0766324698925018,0.1119040101766586,0.0790077671408653,-0.0545530058443546,0.0126170450821518,1.291584849357605,0.0222870428115129,-0.4381180703639984,0.0071036205627024,0
15750,-0.0011206382187083,0.0016140309162437,-1.0321463346481323,0.039949432015419,-0.0378487035632133,-0.0809194520115852,-0.0545530058443546,0.0126170450821518,1.291584849357605,0.0222870428115129,-0.4381180703639984,0.0071036205627024,0
15910,-0.0037627064157277,-0.0007993780891411,-1.0332558155059814,0.0293373018503189,-0.3461946547031402,0.0562834925949573,-0.0740348845720291,0.0153051493689417,1.682507038116455,0.0695489794015884,-0.538695216178894,0.0049143312498927,0
15910,-0.0037627064157277,-0.0007993780891411,-1.0332558155059814,0.0293373018503189,-0.3461946547031402,0.0562834925949573,-0.0747981444001197,0.017186464741826,1.607138991355896,0.0463281124830246,-0.5372319221496582,0.0044129574671387,0
15940,-0.0017262890469282,-0.0016505941748619,-1.0341960191726685,0.0843810364603996,0.0379424840211868,-0.073816530406475,-0.0787199288606643,0.0175975952297449,1.5730756521224976,0.0543886460363864,-0.5485922694206238,0.0067693851888179,0
15950,-0.0005473874625749,0.0004447445680852,-1.0339730978012085,0.0881048738956451,-0.1306000500917434,0.3345330357551574,-0.0794763341546058,0.0177392717450857,1.4945242404937744,0.055580548942089,-0.5477526187896729,0.0061657731421291,0
16120,-0.0021630336996167,-0.0009831081843003,-1.0313351154327393,-0.0186264552175998,0.0448546521365642,0.0269650239497423,-0.1158646568655967,0.0261230692267417,1.5419753789901731,0.0609500557184219,-0.6593095660209656,0.0056228572502732,0
16130,-0.002876853570342,-0.0002125379105564,-1.0317555665969849,-0.3821352422237396,-0.0259476862847805,0.1184382364153862,-0.1168903559446334,0.026330579072237,1.462380290031433,0.0614383220672607,-0.658501386642456,0.0057452842593193,0
16140,-0.0004492421576287,5.5671524023637176e-05,-1.031598448753357,-0.1676483452320099,0.2067865878343582,-0.1973751187324524,-0.1179290786385536,0.0265388377010822,1.3807923793792725,0.0592857636511325,-0.6600735783576965,0.0060664406046271,0
16300,-0.0014265722129493,0.0014109306503087,-1.0298415422439575,-0.1063003838062286,-0.0512457713484764,-0.053475871682167,-0.1714624613523483,0.0396910943090915,1.3095037937164309,0.0566329024732112,-0.7717703580856323,0.0074203973636031,0
16320,-0.0025031378027051,0.0003356868692208,-1.0321801900863647,0.0755294412374496,0.0742754340171814,-0.110353760421276,-0.1867471635341644,0.0425020791590213,1.3456677198410034,0.0651433691382408,-0.8140838146209717,0.0070023327134549,0
16330,-0.0015800701221451,-0.0002858352963812,-1.0324420928955078,-0.1306982040405273,0.1427351534366607,-0.0883861556649208,-0.1867471635341644,0.0425020791590213,1.3456677198410034,0.0651433691382408,-0.8140838146209717,0.0070023327134549,0
16370,-0.0013511460274457,0.0019775896798819,-1.0315366983413696,-0.1778106838464737,0.467477023601532,-0.0923918709158897,-0.2136895209550857,0.0499698333442211,1.402634859085083,0.0736931785941124,-0.9035114645957948,0.004828879609704,0
16470,-0.0012093902332708,-0.0002063309657387,-1.0331441164016724,0.0377687066793441,0.0634102895855903,0.0730854421854019,-0.2787183225154876,0.0706606358289718,1.4406450986862185,0.0685618072748184,-1.0724395513534546,0.0055883657187223,0
16530,-0.0007200550753623,0.0030702697113156,-1.031606912612915,-0.0159058514982461,0.084803394973278,-0.1773444563150406,-0.3368258774280548,0.0677238255739212,1.5490007400512695,0.1794629842042923,-1.1994662284851074,0.0055402796715497,0
16540,-0.0020449412986636,0.0011261696927249,-1.032541275024414,0.0092972088605165,-0.0037999637424945,0.0980750173330307,-0.3368258774280548,0.0677238255739212,1.5490007400512695,0.1794629842042923,-1.1994662284851074,0.0055402796715497,0
16690,-0.0008313689031638,-0.0009438786073587,-1.0337218046188354,0.1147269532084465,-0.0460244640707969,0.0194378476589918,-0.539791464805603,0.1093165278434753,1.6414202451705933,0.2428737431764602,-1.5577908754348757,0.0036874755751341,0
16720,-0.0003652580198831,0.0009970847750082,-1.0327826738357544,-0.0583771616220474,-0.2167134135961532,0.1583575308322906,-0.5980443954467773,0.1051544994115829,1.520898938179016,0.3342724144458771,-1.64711594581604,0.0074281455017626,0
16720,-0.0003652580198831,0.0009970847750082,-1.0327826738357544,-0.0583771616220474,-0.2167134135961532,0.1583575308322906,-0.5980443954467773,0.1051544994115829,1.520898938179016,0.3342724144458771,-1.64711594581604,0.0074281455017626,0
16770,-0.0013037041062489,-0.0015460486756637,-1.0331780910491943,0.0477681942284107,0.1003466919064521,0.0060636238195002,-0.4767724573612213,0.108799785375595,0.7824321389198303,0.1566491723060608,-1.3712629079818726,0.0019658200908452,0
16900,-0.0009225375251844,0.0006857486441731,-1.0323258638381958,-0.2589727938175201,0.2128094285726547,0.0879618749022483,-5.530284397536889e-05,-8.762204379308969e-05,0.6661957502365112,-0.0402890481054782,-0.0266915950924158,0.0010101741645485,0
16940,-0.0016321783186867,-0.0020139943808317,-1.0331640243530271,0.079599030315876,0.180757001042366,0.2206979393959045,-0.0001515433104941,-0.000146573933307,0.5735460519790649,0.0983438566327095,0.0132599845528602,0.0010435680160298,0
17000,-0.000384815968573,0.0012510258238762,-1.033081293106079,-0.0335601679980754,0.1017867624759674,0.1410095989704132,-0.0002424804260954,-1.4587281839339994e-05,0.4560612738132477,0.1581525951623916,0.0636565089225769,0.0006307621952146,0
17190,-0.0206480342894792,-0.0289305616170167,-1.113499641418457,37.67380142211914,-37.60442733764648,-3.18253493309021,-0.0001697551197139,0.0003645959659479,-0.2736868560314178,0.4440778195858001,0.4701735973358154,-0.1100671663880348,0
17230,-0.0101119689643383,0.0005530880880542,-1.0473226308822632,1.2285873889923096,-0.3290578722953796,0.1328700631856918,0.0010504556121304,0.0017463789554312,-0.3804967701435089,1.3601638078689575,1.428075909614563,-0.1627608239650726,0
17240,-0.0237963832914829,-0.0095547493547201,-1.027519464492798,-0.273972600698471,-0.0368425697088241,0.1530821621417999,0.0010504556121304,0.0017463789554312,-0.3804967701435089,1.3601638078689575,1.428075909614563,-0.1627608239650726,0
17240,-0.0237963832914829,-0.0095547493547201,-1.027519464492798,-0.273972600698471,-0.0368425697088241,0.1530821621417999,0.0010504556121304,0.0017463789554312,-0.3804967701435089,1.3601638078689575,1.428075909614563,-0.1627608239650726,0
17240,-0.0237963832914829,-0.0095547493547201,-1.027519464492798,-0.273972600698471,-0.0368425697088241,0.1530821621417999,-0.0024925970938056,-0.001833357498981,-0.4391866028308868,1.165096640586853,1.238012194633484,-0.1561497002840042,0
17250,-0.0224226843565702,0.0053423824720084,-1.0132750272750854,2.0296173095703125,-2.6889517307281494,0.5369697213172913,0.0182915683835744,0.0182451382279396,-0.3220338523387909,2.715605497360229,2.8421216011047363,-0.2037824392318725,0
17260,-0.0417135097086429,0.0155761130154132,-1.0500398874282837,4.325054168701172,-2.837562322616577,0.1034489646553993,0.0125261964276432,0.0115903541445732,-0.3721916377544403,2.4145748615264893,2.5751776695251465,-0.19147589802742,0
17300,-0.0478891544044017,0.0217464212328195,-1.0375155210494995,-18.214040756225582,21.6114501953125,-0.1424552053213119,0.0455140881240367,0.0421291999518871,-0.3205724656581878,4.09444522857666,4.368866443634033,-0.3012724816799164,0
17430,0.1382783204317093,-0.0496333874762058,-1.2445703744888306,81.75883483886719,-74.88705444335938,51.8131217956543,0.1230858787894249,0.1398473232984542,-0.3260892629623413,9.407111167907717,13.93044090270996,10.812983512878418,0
17450,0.1993153095245361,0.0182063039392232,-1.367879033088684,93.9427261352539,-59.42330932617188,11.722900390625,0.0842684507369995,0.0996910035610199,-0.3662192821502685,10.371088027954102,14.407326698303224,11.37539291381836,0
17510,-0.2104874700307846,-0.0670533776283264,-1.3122986555099487,223.1487274169922,-140.12939453125,231.34054565429688,0.0302196908742189,0.0575686059892177,-0.3865390121936798,17.015552520751953,25.33700561523437,15.647305488586426,0
17620,-0.8604024052619934,-0.4217423796653747,-0.9205315113067628,305.6634216308594,-232.65231323242188,264.83331298828125,-0.4194936752319336,0.0996284112334251,-0.220699280500412,54.4633674621582,46.35859680175781,7.670791149139404,0
17630,-0.9538974165916444,-0.4307185411453247,-0.7943738102912903,289.922119140625,-258.9384460449219,241.69488525390625,-0.4639153778553009,0.0908641591668129,-0.2541579008102417,57.94479370117188,48.994667053222656,6.367999076843262,0
17650,-1.0583233833312988,-0.372905433177948,-0.6252901554107666,271.9078369140625,-294.0744934082031,188.62620544433597,-0.5451859831809998,0.0834390893578529,-0.3398610651493072,66.8262710571289,54.09503555297852,1.1411821842193604,0
17800,-0.8433865904808044,-0.2809762358665466,0.1504567116498947,183.9940948486328,-185.9126892089844,107.65532684326172,-2.2245101928710938,1.2534773349761963,-0.2259403765201568,99.27413177490234,15.704261779785156,-92.95492553710938,0
17820,-0.6796189546585083,-0.1678685694932937,0.1926649957895279,168.70884704589844,-192.5755920410156,98.0789794921875,-2.39546799659729,1.5697060823440552,-0.2021088749170303,101.81273651123048,12.764522552490234,-103.36392211914062,0
17980,-0.3973599374294281,-0.0302564837038517,0.4869871437549591,90.39558410644533,-116.6989517211914,-13.710877418518066,-2.9324514865875244,3.071338891983032,-0.2115592658519745,109.3455810546875,0.8105771541595459,-135.88612365722656,0
18010,-0.3473109602928161,-0.0046820412389934,0.5524718165397644,88.0018310546875,-126.56134796142578,-13.362223625183104,-2.989032745361328,3.242746353149414,-0.234557569026947,110.4083251953125,-0.5384353399276733,-138.3799591064453,0
18100,-0.2239664196968078,0.1009247601032257,0.6675715446472168,-15.953205108642578,-79.27530670166016,3.581825256347656,-3.272702217102051,4.1510396003723145,-0.3789946436882019,110.63899993896484,-2.781545400619507,-152.82937622070312,0
18170,-0.3239245116710663,0.253303974866867,1.079142451286316,20.71344757080078,-100.9097900390625,87.87326049804688,-3.4853668212890625,4.662469863891602,-0.5459586977958679,109.9661865234375,-3.7475717067718506,-156.18130493164062,0
18200,-0.3288581073284149,0.2168551087379455,1.124882698059082,-0.750392735004425,-102.74002838134766,102.52842712402344,-0.0001280215365113,5.097917528473772e-05,0.033030267804861,0.0938935205340385,0.9835619926452636,0.923051118850708,0
18340,-0.3335168957710266,0.0723146125674247,0.8861699104309082,-35.024742126464844,-46.60320281982422,-11.7992525100708,-0.0109357703477144,0.0119592929258942,0.0405553765594959,-3.113786220550537,1.2257744073867798,4.637022495269775,0
18360,-0.3163040578365326,-0.0336406826972961,0.9667409658432008,-18.56928253173828,-50.95875549316406,-0.4823534488677978,-0.0091034034267067,0.0132700642570853,0.0349230170249938,-2.923210382461548,0.0774555057287216,4.386758804321289,0
18410,-0.1354907006025314,0.1842121481895446,0.9814500212669371,-18.095346450805664,-36.27200698852539,-51.24253845214844,-0.0076211560517549,0.0123149761930108,0.027665888890624,-1.2708369493484497,-1.0839970111846924,3.465849637985229,0
18520,-0.0575030706822872,0.0882655084133148,0.9266992211341858,2.269313335418701,24.967548370361328,-5.496916770935059,-0.0052711414173245,0.0139857940375804,0.013301558792591,0.4885932803153991,-2.8396058082580566,4.52533483505249,0
18540,-0.1026729345321655,0.0960520356893539,0.9400530457496644,-9.653133392333984,14.504130363464355,-30.634212493896484,-0.005291907582432,0.0140720009803771,0.0143155325204133,0.7184380292892456,-3.258065223693848,4.427980899810791,0
18590,-0.1877379268407821,0.0893570408225059,1.026008129119873,3.219353199005127,-1.7123202085494995,11.683075904846191,-0.0065382807515561,0.0153531478717923,0.0109808165580034,1.0957624912261963,-4.655600070953369,3.051124095916748,0
18720,-0.2369007617235183,0.0059233107604086,0.9310894012451172,38.88581466674805,-6.428216934204102,9.24361515045166,-0.0046989256516098,0.0180472005158662,0.0092701343819499,3.4814693927764893,-7.07027530670166,1.0821799039840698,0
18780,-0.1070704609155654,0.1681176424026489,0.9440677165985109,-12.443668365478516,-14.460253715515137,50.27558135986328,-0.0030242130160331,0.0157042071223258,0.0087286494672298,5.134266376495361,-6.71260404586792,2.718529224395752,0
18910,-0.1714986711740493,0.1669661998748779,1.0218961238861084,46.78060531616211,15.644737243652344,15.412123680114746,-0.0012002200819551,0.0137028060853481,0.012374005280435,6.251415729522705,-6.477113723754883,3.5305542945861816,0
18910,-0.1714986711740493,0.1669661998748779,1.0218961238861084,46.78060531616211,15.644737243652344,15.412123680114746,-0.0003712227917276,0.01392054092139,0.0125179914757609,6.688692569732666,-6.633102416992188,3.6560912132263184,0
19070,-0.1210552677512168,0.2816613316535949,0.8520990610122681,29.82999038696289,9.775532722473145,1.658824801445007,0.0029412296134978,0.0179241299629211,0.0260401908308267,16.476720809936523,-6.5001091957092285,3.816250562667847,0
19090,-0.1485406905412674,0.2882090508937835,0.8640074729919434,2.1592788696289062,-5.525096416473389,-3.085097312927246,0.0035825162194669,0.0182388797402381,0.0271045230329036,17.060588836669922,-6.692211627960205,3.8448736667633057,0
19090,-0.1485406905412674,0.2882090508937835,0.8640074729919434,2.1592788696289062,-5.525096416473389,-3.085097312927246,0.0031834610272198,0.0187917109578847,0.0274971798062324,17.087961196899414,-6.661316871643066,3.7878031730651855,0
19270,-0.0997933000326156,0.3398197889328003,0.8747991919517517,30.17825698852539,-14.984481811523438,7.836731433868408,0.0025927168317139,0.0062629804015159,0.0553598292171955,22.591064453125,-5.08566427230835,9.178975105285645,0
19371,0.0805262327194213,0.4615379273891449,0.8321197628974915,52.9819564819336,-51.48843002319336,35.3044319152832,-0.0039443178102374,-0.0049371756613254,0.0544182024896144,28.20257568359375,-0.192769169807434,11.890249252319336,0
19440,-0.1005019173026084,0.4510186910629272,0.8687482476234436,-4.017973899841309,-62.273624420166016,-14.728527069091797,-0.0064077889546751,-0.0103997634723782,0.0543033890426158,29.993633270263672,1.4894464015960691,10.057635307312012,0
19450,-0.0747793018817901,0.4502030313014984,0.8595521450042725,-0.8796378374099731,-69.19022369384766,-2.3067238330841064,-0.006187530234456,-0.0135670835152268,0.0544757284224033,29.983360290527344,2.361342191696167,9.098862648010254,0
19550,0.0692184641957283,0.6362799406051636,0.7681148648262024,49.02490997314453,-17.847225189208984,-27.62566947937012,-0.0122164404019713,-0.0218795780092477,0.0379665307700634,35.25601959228516,5.790568828582764,6.727826118469238,0
19610,0.0970465838909149,0.5894076228141785,0.7196398973464966,63.01753234863281,-25.97932243347168,-0.0250143855810165,-0.0146577507257461,-0.0244984291493892,0.0328361727297306,37.703086853027344,6.141129970550537,5.156796932220459,0
19640,0.1285168230533599,0.6278798580169678,0.6910329461097717,59.20060729980469,-10.895095825195312,-29.90620803833008,-0.0162870679050683,-0.0275957137346267,0.0315323136746883,39.58578109741211,6.571664810180664,4.589616775512695,0
19640,0.1285168230533599,0.6278798580169678,0.6910329461097717,59.20060729980469,-10.895095825195312,-29.90620803833008,-0.0170882102102041,-0.0279921777546405,0.0303968470543622,40.19187545776367,6.517024993896484,4.34194278717041,0
19690,0.0732951089739799,0.8245258331298828,0.728919506072998,52.581520080566406,-8.024916648864746,-32.61848068237305,-0.0196717493236064,-0.0318688936531543,0.0248751323670148,43.0228271484375,5.184093952178955,2.11309552192688,0
19790,0.1271651089191436,0.7905479073524475,0.6404321789741516,24.95225143432617,3.116816520690918,-23.714862823486328,-0.0226579457521438,-0.0421769060194492,0.0272782854735851,47.11824035644531,5.067106246948242,1.936448335647583,0
19810,0.064404085278511,0.819072425365448,0.6571288704872131,21.793092727661133,-0.6601448655128479,-20.727657318115234,-0.0238135457038879,-0.0451560094952583,0.0307646207511425,47.5312385559082,4.698329925537109,1.6276415586471558,0
19860,0.1036889553070068,0.7813142538070679,0.6224578619003296,21.88265037536621,4.221355438232422,6.29795503616333,-0.0249795112758874,-0.0476465225219726,0.0321400314569473,48.58866882324219,4.687953472137451,1.4728578329086304,0
19970,0.0521359369158744,0.809953510761261,0.6141696572303772,3.505359649658203,2.062640428543091,-14.422237396240234,-0.0251456573605537,-0.0520196929574012,0.0352542288601398,49.459991455078125,3.364495754241944,0.417455792427063,0
19980,0.0521607547998428,0.8194401860237122,0.6179954409599304,2.7884795665740967,-2.735196590423584,-13.630724906921388,-0.024798022583127,-0.0522170178592205,0.0355690643191337,49.46995162963867,3.2378172874450684,0.2950745522975921,0
20150,0.0615061707794666,0.7856481075286865,0.5997476577758789,19.006534576416016,-16.968610763549805,13.742915153503418,-0.023680854588747,-0.0468418523669242,0.0327756442129612,49.22640228271485,2.575124740600586,-1.0381571054458618,0
20170,0.1156350970268249,0.8175325989723206,0.5892027616500854,9.980854034423828,-4.9430928230285645,1.8684444427490237,-0.0236951168626546,-0.0454355776309967,0.031142508611083,49.50551986694336,2.8839640617370605,-1.0863555669784546,0
20180,0.1067227199673652,0.8160996437072754,0.5993872880935669,2.0127344131469727,1.7237509489059448,-8.331378936767578,-0.0235658604651689,-0.0469568707048893,0.0309690311551094,49.56915664672852,2.863724946975708,-1.133984923362732,0
20210,0.0473345406353473,0.7810137271881104,0.5982866287231445,-7.86522102355957,7.8628973960876465,-18.88935852050781,-0.0231596902012825,-0.044141411781311,0.0307126473635435,49.404441833496094,2.5455942153930664,-1.2364383935928345,0
20210,0.0473345406353473,0.7810137271881104,0.5982866287231445,-7.86522102355957,7.8628973960876465,-18.88935852050781,-0.0231596902012825,-0.044141411781311,0.0307126473635435,49.404441833496094,2.5455942153930664,-1.2364383935928345,0
20210,0.0473345406353473,0.7810137271881104,0.5982866287231445,-7.86522102355957,7.8628973960876465,-18.88935852050781,-0.0231596902012825,-0.044141411781311,0.0307126473635435,49.404441833496094,2.5455942153930664,-1.2364383935928345,0
20210,0.0473345406353473,0.7810137271881104,0.5982866287231445,-7.86522102355957,7.8628973960876465,-18.88935852050781,-0.0231596902012825,-0.044141411781311,0.0307126473635435,49.404441833496094,2.5455942153930664,-1.2364383935928345,0
20210,0.0473345406353473,0.7810137271881104,0.5982866287231445,-7.86522102355957,7.8628973960876465,-18.88935852050781,-0.0231596902012825,-0.044141411781311,0.0307126473635435,49.404441833496094,2.5455942153930664,-1.2364383935928345,0
20210,0.0473345406353473,0.7810137271881104,0.5982866287231445,-7.86522102355957,7.8628973960876465,-18.88935852050781,-0.0231596902012825,-0.044141411781311,0.0307126473635435,49.404441833496094,2.5455942153930664,-1.2364383935928345,0
20210,0.0473345406353473,0.7810137271881104,0.5982866287231445,-7.86522102355957,7.8628973960876465,-18.88935852050781,-0.0231596902012825,-0.044141411781311,0.0307126473635435,49.404441833496094,2.5455942153930664,-1.2364383935928345,0
20210,0.0473345406353473,0.7810137271881104,0.5982866287231445,-7.86522102355957,7.8628973960876465,-18.88935852050781,-0.0231596902012825,-0.044141411781311,0.0307126473635435,49.404441833496094,2.5455942153930664,-1.2364383935928345,0
20210,0.0473345406353473,0.7810137271881104,0.5982866287231445,-7.86522102355957,7.8628973960876465,-18.88935852050781,-0.0231596902012825,-0.044141411781311,0.0307126473635435,49.404441833496094,2.5455942153930664,-1.2364383935928345,0
20210,0.0473345406353473,0.7810137271881104,0.5982866287231445,-7.86522102355957,7.8628973960876465,-18.88935852050781,-0.0231596902012825,-0.044141411781311,0.0307126473635435,49.404441833496094,2.5455942153930664,-1.2364383935928345,0
20210,0.0473345406353473,0.7810137271881104,0.5982866287231445,-7.86522102355957,7.8628973960876465,-18.88935852050781,-0.0231596902012825,-0.044141411781311,0.0307126473635435,49.404441833496094,2.5455942153930664,-1.2364383935928345,0
20210,0.0473345406353473,0.7810137271881104,0.5982866287231445,-7.86522102355957,7.8628973960876465,-18.88935852050781,-0.0231596902012825,-0.044141411781311,0.0307126473635435,49.404441833496094,2.5455942153930664,-1.2364383935928345,0
20210,0.0473345406353473,0.7810137271881104,0.5982866287231445,-7.86522102355957,7.8628973960876465,-18.88935852050781,-0.0231596902012825,-0.044141411781311,0.0307126473635435,49.404441833496094,2.5455942153930664,-1.2364383935928345,0
20210,0.0473345406353473,0.7810137271881104,0.5982866287231445,-7.86522102355957,7.8628973960876465,-18.88935852050781,-0.0231596902012825,-0.044141411781311,0.0307126473635435,49.404441833496094,2.5455942153930664,-1.2364383935928345,0
20210,0.0473345406353473,0.7810137271881104,0.5982866287231445,-7.86522102355957,7.8628973960876465,-18.88935852050781,-0.0231596902012825,-0.044141411781311,0.0307126473635435,49.404441833496094,2.5455942153930664,-1.2364383935928345,0
20210,0.0473345406353473,0.7810137271881104,0.5982866287231445,-7.86522102355957,7.8628973960876465,-18.88935852050781,-0.0231596902012825,-0.044141411781311,0.0307126473635435,49.404441833496094,2.5455942153930664,-1.2364383935928345,0
20210,0.0473345406353473,0.7810137271881104,0.5982866287231445,-7.86522102355957,7.8628973960876465,-18.88935852050781,-0.0231596902012825,-0.044141411781311,0.0307126473635435,49.404441833496094,2.5455942153930664,-1.2364383935928345,0
20210,0.0473345406353473,0.7810137271881104,0.5982866287231445,-7.86522102355957,7.8628973960876465,-18.88935852050781,-0.0231596902012825,-0.044141411781311,0.0307126473635435,49.404441833496094,2.5455942153930664,-1.2364383935928345,0
20210,0.0473345406353473,0.7810137271881104,0.5982866287231445,-7.86522102355957,7.8628973960876465,-18.88935852050781,-0.0231596902012825,-0.044141411781311,0.0307126473635435,49.404441833496094,2.5455942153930664,-1.2364383935928345,0
20210,0.0473345406353473,0.7810137271881104,0.5982866287231445,-7.86522102355957,7.8628973960876465,-18.88935852050781,-0.0231596902012825,-0.044141411781311,0.0307126473635435,49.404441833496094,2.5455942153930664,-1.2364383935928345,0
20210,0.0473345406353473,0.7810137271881104,0.5982866287231445,-7.86522102355957,7.8628973960876465,-18.88935852050781,-0.0231596902012825,-0.044141411781311,0.0307126473635435,49.404441833496094,2.5455942153930664,-1.2364383935928345,0
20210,0.0473345406353473,0.7810137271881104,0.5982866287231445,-7.86522102355957,7.8628973960876465,-18.88935852050781,-0.0231596902012825,-0.044141411781311,0.0307126473635435,49.404441833496094,2.5455942153930664,-1.2364383935928345,0
20210,0.0473345406353473,0.7810137271881104,0.5982866287231445,-7.86522102355957,7.8628973960876465,-18.88935852050781,-0.0231596902012825,-0.044141411781311,0.0307126473635435,49.404441833496094,2.5455942153930664,-1.2364383935928345,0
20210,0.0473345406353473,0.7810137271881104,0.5982866287231445,-7.86522102355957,7.8628973960876465,-18.88935852050781,-0.0231596902012825,-0.044141411781311,0.0307126473635435,49.404441833496094,2.5455942153930664,-1.2364383935928345,0
20210,0.0473345406353473,0.7810137271881104,0.5982866287231445,-7.86522102355957,7.8628973960876465,-18.88935852050781,-0.0231596902012825,-0.044141411781311,0.0307126473635435,49.404441833496094,2.5455942153930664,-1.2364383935928345,0
20210,0.0473345406353473,0.7810137271881104,0.5982866287231445,-7.86522102355957,7.8628973960876465,-18.88935852050781,-0.0231596902012825,-0.044141411781311,0.0307126473635435,49.404441833496094,2.5455942153930664,-1.2364383935928345,0
20210,0.0473345406353473,0.7810137271881104,0.5982866287231445,-7.86522102355957,7.8628973960876465,-18.88935852050781,-0.0231596902012825,-0.044141411781311,0.0307126473635435,49.404441833496094,2.5455942153930664,-1.2364383935928345,0
20210,0.0473345406353473,0.7810137271881104,0.5982866287231445,-7.86522102355957,7.8628973960876465,-18.88935852050781,-0.0231596902012825,-0.044141411781311,0.0307126473635435,49.404441833496094,2.5455942153930664,-1.2364383935928345,0
20210,0.0473345406353473,0.7810137271881104,0.5982866287231445,-7.86522102355957,7.8628973960876465,-18.88935852050781,-0.0231596902012825,-0.044141411781311,0.0307126473635435,49.404441833496094,2.5455942153930664,-1.2364383935928345,0
20210,0.0473345406353473,0.7810137271881104,0.5982866287231445,-7.86522102355957,7.8628973960876465,-18.88935852050781,-0.0231596902012825,-0.044141411781311,0.0307126473635435,49.404441833496094,2.5455942153930664,-1.2364383935928345,0
20210,0.0473345406353473,0.7810137271881104,0.5982866287231445,-7.86522102355957,7.8628973960876465,-18.88935852050781,-0.0231596902012825,-0.044141411781311,0.0307126473635435,49.404441833496094,2.5455942153930664,-1.2364383935928345,0
20210,0.0473345406353473,0.7810137271881104,0.5982866287231445,-7.86522102355957,7.8628973960876465,-18.88935852050781,-0.0231596902012825,-0.044141411781311,0.0307126473635435,49.404441833496094,2.5455942153930664,-1.2364383935928345,0
20210,0.0473345406353473,0.7810137271881104,0.5982866287231445,-7.86522102355957,7.8628973960876465,-18.88935852050781,-0.0231596902012825,-0.044141411781311,0.0307126473635435,49.404441833496094,2.5455942153930664,-1.2364383935928345,0
20210,0.0473345406353473,0.7810137271881104,0.5982866287231445,-7.86522102355957,7.8628973960876465,-18.88935852050781,-0.0231596902012825,-0.044141411781311,0.0307126473635435,49.404441833496094,2.5455942153930664,-1.2364383935928345,0
20210,0.0473345406353473,0.7810137271881104,0.5982866287231445,-7.86522102355957,7.8628973960876465,-18.88935852050781,-0.0231596902012825,-0.044141411781311,0.0307126473635435,49.404441833496094,2.5455942153930664,-1.2364383935928345,0
20210,0.0473345406353473,0.7810137271881104,0.5982866287231445,-7.86522102355957,7.8628973960876465,-18.88935852050781,-0.0231596902012825,-0.044141411781311,0.0307126473635435,49.404441833496094,2.5455942153930664,-1.2364383935928345,0
20210,0.0473345406353473,0.7810137271881104,0.5982866287231445,-7.86522102355957,7.8628973960876465,-18.88935852050781,-0.0231596902012825,-0.044141411781311,0.0307126473635435,49.404441833496094,2.5455942153930664,-1.2364383935928345,0
20210,0.0473345406353473,0.7810137271881104,0.5982866287231445,-7.86522102355957,7.8628973960876465,-18.88935852050781,-0.0231596902012825,-0.044141411781311,0.0307126473635435,49.404441833496094,2.5455942153930664,-1.2364383935928345,0
20210,0.0473345406353473,0.7810137271881104,0.5982866287231445,-7.86522102355957,7.8628973960876465,-18.88935852050781,-0.0231596902012825,-0.044141411781311,0.0307126473635435,49.404441833496094,2.5455942153930664,-1.2364383935928345,0
20210,0.0473345406353473,0.7810137271881104,0.5982866287231445,-7.86522102355957,7.8628973960876465,-18.88935852050781,-0.0231596902012825,-0.044141411781311,0.0307126473635435,49.404441833496094,2.5455942153930664,-1.2364383935928345,0
20210,0.0473345406353473,0.7810137271881104,0.5982866287231445,-7.86522102355957,7.8628973960876465,-18.88935852050781,-0.0231596902012825,-0.044141411781311,0.0307126473635435,49.404441833496094,2.5455942153930664,-1.2364383935928345,0
20210,0.0473345406353473,0.7810137271881104,0.5982866287231445,-7.86522102355957,7.8628973960876465,-18.88935852050781,-0.0231596902012825,-0.044141411781311,0.0307126473635435,49.404441833496094,2.5455942153930664,-1.2364383935928345,0
20210,0.0473345406353473,0.7810137271881104,0.5982866287231445,-7.86522102355957,7.8628973960876465,-18.88935852050781,-0.0231596902012825,-0.044141411781311,0.0307126473635435,49.404441833496094,2.5455942153930664,-1.2364383935928345,0
20210,0.0473345406353473,0.7810137271881104,0.5982866287231445,-7.86522102355957,7.8628973960876465,-18.88935852050781,-0.0231596902012825,-0.044141411781311,0.0307126473635435,49.404441833496094,2.5455942153930664,-1.2364383935928345,0
20210,0.0473345406353473,0.7810137271881104,0.5982866287231445,-7.86522102355957,7.8628973960876465,-18.88935852050781,-0.0231596902012825,-0.044141411781311,0.0307126473635435,49.404441833496094,2.5455942153930664,-1.2364383935928345,0
20210,0.0473345406353473,0.7810137271881104,0.5982866287231445,-7.86522102355957,7.8628973960876465,-18.88935852050781,-0.0231596902012825,-0.044141411781311,0.0307126473635435,49.404441833496094,2.5455942153930664,-1.2364383935928345,0
20210,0.0473345406353473,0.7810137271881104,0.5982866287231445,-7.86522102355957,7.8628973960876465,-18.88935852050781,-0.0231596902012825,-0.044141411781311,0.0307126473635435,49.404441833496094,2.5455942153930664,-1.2364383935928345,0
20210,0.0473345406353473,0.7810137271881104,0.5982866287231445,-7.86522102355957,7.8628973960876465,-18.88935852050781,-0.0231596902012825,-0.044141411781311,0.0307126473635435,49.404441833496094,2.5455942153930664,-1.2364383935928345,0
20210,0.0473345406353473,0.7810137271881104,0.5982866287231445,-7.86522102355957,7.8628973960876465,-18.88935852050781,-0.0231596902012825,-0.044141411781311,0.0307126473635435,49.404441833496094,2.5455942153930664,-1.2364383935928345,0
20210,0.0473345406353473,0.7810137271881104,0.5982866287231445,-7.86522102355957,7.8628973960876465,-18.88935852050781,-0.0231596902012825,-0.044141411781311,0.0307126473635435,49.404441833496094,2.5455942153930664,-1.2364383935928345,0
20210,0.0473345406353473,0.7810137271881104,0.5982866287231445,-7.86522102355957,7.8628973960876465,-18.88935852050781,-0.0231596902012825,-0.044141411781311,0.0307126473635435,49.404441833496094,2.5455942153930664,-1.2364383935928345,0
20210,0.0473345406353473,0.7810137271881104,0.5982866287231445,-7.86522102355957,7.8628973960876465,-18.88935852050781,-0.0231596902012825,-0.044141411781311,0.0307126473635435,49.404441833496094,2.5455942153930664,-1.2364383935928345,0
20210,0.0473345406353473,0.7810137271881104,0.5982866287231445,-7.86522102355957,7.8628973960876465,-18.88935852050781,-0.0231596902012825,-0.044141411781311,0.0307126473635435,49.404441833496094,2.5455942153930664,-1.2364383935928345,0
20210,0.0473345406353473,0.7810137271881104,0.5982866287231445,-7.86522102355957,7.8628973960876465,-18.88935852050781,-0.0231596902012825,-0.044141411781311,0.0307126473635435,49.404441833496094,2.5455942153930664,-1.2364383935928345,0
20210,0.0473345406353473,0.7810137271881104,0.5982866287231445,-7.86522102355957,7.8628973960876465,-18.88935852050781,-0.0231596902012825,-0.044141411781311,0.0307126473635435,49.404441833496094,2.5455942153930664,-1.2364383935928345,0
20210,0.0473345406353473,0.7810137271881104,0.5982866287231445,-7.86522102355957,7.8628973960876465,-18.88935852050781,-0.0231596902012825,-0.044141411781311,0.0307126473635435,49.404441833496094,2.5455942153930664,-1.2364383935928345,0
20210,0.0473345406353473,0.7810137271881104,0.5982866287231445,-7.86522102355957,7.8628973960876465,-18.88935852050781,-0.0231596902012825,-0.044141411781311,0.0307126473635435,49.404441833496094,2.5455942153930664,-1.2364383935928345,0
20210,0.0473345406353473,0.7810137271881104,0.5982866287231445,-7.86522102355957,7.8628973960876465,-18.88935852050781,-0.0231596902012825,-0.044141411781311,0.0307126473635435,49.404441833496094,2.5455942153930664,-1.2364383935928345,0
20210,0.0473345406353473,0.7810137271881104,0.5982866287231445,-7.86522102355957,7.8628973960876465,-18.88935852050781,-0.0231596902012825,-0.044141411781311,0.0307126473635435,49.404441833496094,2.5455942153930664,-1.2364383935928345,0
20210,0.0473345406353473,0.7810137271881104,0.5982866287231445,-7.86522102355957,7.8628973960876465,-18.88935852050781,-0.0231596902012825,-0.044141411781311,0.0307126473635435,49.404441833496094,2.5455942153930664,-1.2364383935928345,0
20210,0.0473345406353473,0.7810137271881104,0.5982866287231445,-7.86522102355957,7.8628973960876465,-18.88935852050781,-0.0231596902012825,-0.044141411781311,0.0307126473635435,49.404441833496094,2.5455942153930664,-1.2364383935928345,0
20210,0.0473345406353473,0.7810137271881104,0.5982866287231445,-7.86522102355957,7.8628973960876465,-18.88935852050781,-0.0231596902012825,-0.044141411781311,0.0307126473635435,49.404441833496094,2.5455942153930664,-1.2364383935928345,0
20210,0.0473345406353473,0.7810137271881104,0.5982866287231445,-7.86522102355957,7.8628973960876465,-18.88935852050781,-0.0231596902012825,-0.044141411781311,0.0307126473635435,49.404441833496094,2.5455942153930664,-1.2364383935928345,0
20210,0.0473345406353473,0.7810137271881104,0.5982866287231445,-7.86522102355957,7.8628973960876465,-18.88935852050781,-0.0231596902012825,-0.044141411781311,0.0307126473635435,49.404441833496094,2.5455942153930664,-1.2364383935928345,0
20210,0.0473345406353473,0.7810137271881104,0.5982866287231445,-7.86522102355957,7.8628973960876465,-18.88935852050781,-0.0231596902012825,-0.044141411781311,0.0307126473635435,49.404441833496094,2.5455942153930664,-1.2364383935928345,0
20210,0.0473345406353473,0.7810137271881104,0.5982866287231445,-7.86522102355957,7.8628973960876465,-18.88935852050781,-0.0231596902012825,-0.044141411781311,0.0307126473635435,49.404441833496094,2.5455942153930664,-1.2364383935928345,0
20210,0.0473345406353473,0.7810137271881104,0.5982866287231445,-7.86522102355957,7.8628973960876465,-18.88935852050781,-0.0231596902012825,-0.044141411781311,0.0307126473635435,49.404441833496094,2.5455942153930664,-1.2364383935928345,0
20210,0.0473345406353473,0.7810137271881104,0.5982866287231445,-7.86522102355957,7.8628973960876465,-18.88935852050781,-0.0231596902012825,-0.044141411781311,0.0307126473635435,49.404441833496094,2.5455942153930664,-1.2364383935928345,0
20210,0.0473345406353473,0.7810137271881104,0.5982866287231445,-7.86522102355957,7.8628973960876465,-18.88935852050781,-0.0231596902012825,-0.044141411781311,0.0307126473635435,49.404441833496094,2.5455942153930664,-1.2364383935928345,0
20210,0.0473345406353473,0.7810137271881104,0.5982866287231445,-7.86522102355957,7.8628973960876465,-18.88935852050781,-0.0231596902012825,-0.044141411781311,0.0307126473635435,49.404441833496094,2.5455942153930664,-1.2364383935928345,0
20210,0.0473345406353473,0.7810137271881104,0.5982866287231445,-7.86522102355957,7.8628973960876465,-18.88935852050781,-0.0231596902012825,-0.044141411781311,0.0307126473635435,49.404441833496094,2.5455942153930664,-1.2364383935928345,0
20210,0.0473345406353473,0.7810137271881104,0.5982866287231445,-7.86522102355957,7.8628973960876465,-18.88935852050781,-0.0231596902012825,-0.044141411781311,0.0307126473635435,49.404441833496094,2.5455942153930664,-1.2364383935928345,0
20210,0.0473345406353473,0.7810137271881104,0.5982866287231445,-7.86522102355957,7.8628973960876465,-18.88935852050781,-0.0231596902012825,-0.044141411781311,0.0307126473635435,49.404441833496094,2.5455942153930664,-1.2364383935928345,0
20210,0.0473345406353473,0.7810137271881104,0.5982866287231445,-7.86522102355957,7.8628973960876465,-18.88935852050781,-0.0231596902012825,-0.044141411781311,0.0307126473635435,49.404441833496094,2.5455942153930664,-1.2364383935928345,0
20210,0.0473345406353473,0.7810137271881104,0.5982866287231445,-7.86522102355957,7.8628973960876465,-18.88935852050781,-0.0231596902012825,-0.044141411781311,0.0307126473635435,49.404441833496094,2.5455942153930664,-1.2364383935928345,0
20210,0.0473345406353473,0.7810137271881104,0.5982866287231445,-7.86522102355957,7.8628973960876465,-18.88935852050781,-0.0231596902012825,-0.044141411781311,0.0307126473635435,49.404441833496094,2.5455942153930664,-1.2364383935928345,0
20210,0.0473345406353473,0.7810137271881104,0.5982866287231445,-7.86522102355957,7.8628973960876465,-18.88935852050781,-0.0231596902012825,-0.044141411781311,0.0307126473635435,49.404441833496094,2.5455942153930664,-1.2364383935928345,0
20210,0.0473345406353473,0.7810137271881104,0.5982866287231445,-7.86522102355957,7.8628973960876465,-18.88935852050781,-0.0231596902012825,-0.044141411781311,0.0307126473635435,49.404441833496094,2.5455942153930664,-1.2364383935928345,0
20210,0.0473345406353473,0.7810137271881104,0.5982866287231445,-7.86522102355957,7.8628973960876465,-18.88935852050781,-0.0231596902012825,-0.044141411781311,0.0307126473635435,49.404441833496094,2.5455942153930664,-1.2364383935928345,0
20210,0.0473345406353473,0.7810137271881104,0.5982866287231445,-7.86522102355957,7.8628973960876465,-18.88935852050781,-0.0231596902012825,-0.044141411781311,0.0307126473635435,49.404441833496094,2.5455942153930664,-1.2364383935928345,0
20210,0.0473345406353473,0.7810137271881104,0.5982866287231445,-7.86522102355957,7.8628973960876465,-18.88935852050781,-0.0231596902012825,-0.044141411781311,0.0307126473635435,49.404441833496094,2.5455942153930664,-1.2364383935928345,0
20210,0.0473345406353473,0.7810137271881104,0.5982866287231445,-7.86522102355957,7.8628973960876465,-18.88935852050781,-0.0231596902012825,-0.044141411781311,0.0307126473635435,49.404441833496094,2.5455942153930664,-1.2364383935928345,0
20210,0.0473345406353473,0.7810137271881104,0.5982866287231445,-7.86522102355957,7.8628973960876465,-18.88935852050781,-0.0231596902012825,-0.044141411781311,0.0307126473635435,49.404441833496094,2.5455942153930664,-1.2364383935928345,0
20210,0.0473345406353473,0.7810137271881104,0.5982866287231445,-7.86522102355957,7.8628973960876465,-18.88935852050781,-0.0231596902012825,-0.044141411781311,0.0307126473635435,49.404441833496094,2.5455942153930664,-1.2364383935928345,0
20210,0.0473345406353473,0.7810137271881104,0.5982866287231445,-7.86522102355957,7.8628973960876465,-18.88935852050781,-0.0231596902012825,-0.044141411781311,0.0307126473635435,49.404441833496094,2.5455942153930664,-1.2364383935928345,0
20210,0.0473345406353473,0.7810137271881104,0.5982866287231445,-7.86522102355957,7.8628973960876465,-18.88935852050781,-0.0231596902012825,-0.044141411781311,0.0307126473635435,49.404441833496094,2.5455942153930664,-1.2364383935928345,0
20210,0.0473345406353473,0.7810137271881104,0.5982866287231445,-7.86522102355957,7.8628973960876465,-18.88935852050781,-0.0231596902012825,-0.044141411781311,0.0307126473635435,49.404441833496094,2.5455942153930664,-1.2364383935928345,0
20210,0.0473345406353473,0.7810137271881104,0.5982866287231445,-7.86522102355957,7.8628973960876465,-18.88935852050781,-0.0231596902012825,-0.044141411781311,0.0307126473635435,49.404441833496094,2.5455942153930664,-1.2364383935928345,0
20210,0.0473345406353473,0.7810137271881104,0.5982866287231445,-7.86522102355957,7.8628973960876465,-18.88935852050781,-0.0231596902012825,-0.044141411781311,0.0307126473635435,49.404441833496094,2.5455942153930664,-1.2364383935928345,0
20210,0.0473345406353473,0.7810137271881104,0.5982866287231445,-7.86522102355957,7.8628973960876465,-18.88935852050781,-0.0231596902012825,-0.044141411781311,0.0307126473635435,49.404441833496094,2.5455942153930664,-1.2364383935928345,0
20210,0.0473345406353473,0.7810137271881104,0.5982866287231445,-7.86522102355957,7.8628973960876465,-18.88935852050781,-0.0231596902012825,-0.044141411781311,0.0307126473635435,49.404441833496094,2.5455942153930664,-1.2364383935928345,0
20210,0.0473345406353473,0.7810137271881104,0.5982866287231445,-7.86522102355957,7.8628973960876465,-18.88935852050781,-0.0231596902012825,-0.044141411781311,0.0307126473635435,49.404441833496094,2.5455942153930664,-1.2364383935928345,0
20210,0.0473345406353473,0.7810137271881104,0.5982866287231445,-7.86522102355957,7.8628973960876465,-18.88935852050781,-0.0231596902012825,-0.044141411781311,0.0307126473635435,49.404441833496094,2.5455942153930664,-1.2364383935928345,0
20210,0.0473345406353473,0.7810137271881104,0.5982866287231445,-7.86522102355957,7.8628973960876465,-18.88935852050781,-0.0231596902012825,-0.044141411781311,0.0307126473635435,49.404441833496094,2.5455942153930664,-1.2364383935928345,0
20210,0.0473345406353473,0.7810137271881104,0.5982866287231445,-7.86522102355957,7.8628973960876465,-18.88935852050781,-0.0231596902012825,-0.044141411781311,0.0307126473635435,49.404441833496094,2.5455942153930664,-1.2364383935928345,0
20210,0.0473345406353473,0.7810137271881104,0.5982866287231445,-7.86522102355957,7.8628973960876465,-18.88935852050781,-0.0231596902012825,-0.044141411781311,0.0307126473635435,49.404441833496094,2.5455942153930664,-1.2364383935928345,0
20210,0.0473345406353473,0.7810137271881104,0.5982866287231445,-7.86522102355957,7.8628973960876465,-18.88935852050781,-0.0231596902012825,-0.044141411781311,0.0307126473635435,49.404441833496094,2.5455942153930664,-1.2364383935928345,0
20210,0.0473345406353473,0.7810137271881104,0.5982866287231445,-7.86522102355957,7.8628973960876465,-18.88935852050781,-0.0231596902012825,-0.044141411781311,0.0307126473635435,49.404441833496094,2.5455942153930664,-1.2364383935928345,0
20210,0.0473345406353473,0.7810137271881104,0.5982866287231445,-7.86522102355957,7.8628973960876465,-18.88935852050781,-0.0231596902012825,-0.044141411781311,0.0307126473635435,49.404441833496094,2.5455942153930664,-1.2364383935928345,0
20210,0.0473345406353473,0.7810137271881104,0.5982866287231445,-7.86522102355957,7.8628973960876465,-18.88935852050781,-0.0231596902012825,-0.044141411781311,0.0307126473635435,49.404441833496094,2.5455942153930664,-1.2364383935928345,0
20210,0.0473345406353473,0.7810137271881104,0.5982866287231445,-7.86522102355957,7.8628973960876465,-18.88935852050781,-0.0231596902012825,-0.044141411781311,0.0307126473635435,49.404441833496094,2.5455942153930664,-1.2364383935928345,0
20210,0.0473345406353473,0.7810137271881104,0.5982866287231445,-7.86522102355957,7.8628973960876465,-18.88935852050781,-0.0231596902012825,-0.044141411781311,0.0307126473635435,49.404441833496094,2.5455942153930664,-1.2364383935928345,0
20210,0.0473345406353473,0.7810137271881104,0.5982866287231445,-7.86522102355957,7.8628973960876465,-18.88935852050781,-0.0231596902012825,-0.044141411781311,0.0307126473635435,49.404441833496094,2.5455942153930664,-1.2364383935928345,0
20210,0.0473345406353473,0.7810137271881104,0.5982866287231445,-7.86522102355957,7.8628973960876465,-18.88935852050781,-0.0231596902012825,-0.044141411781311,0.0307126473635435,49.404441833496094,2.5455942153930664,-1.2364383935928345,0
20210,0.0473345406353473,0.7810137271881104,0.5982866287231445,-7.86522102355957,7.8628973960876465,-18.88935852050781,-0.0231596902012825,-0.044141411781311,0.0307126473635435,49.404441833496094,2.5455942153930664,-1.2364383935928345,0
20210,0.0473345406353473,0.7810137271881104,0.5982866287231445,-7.86522102355957,7.8628973960876465,-18.88935852050781,-0.0231596902012825,-0.044141411781311,0.0307126473635435,49.404441833496094,2.5455942153930664,-1.2364383935928345,0
20210,0.0473345406353473,0.7810137271881104,0.5982866287231445,-7.86522102355957,7.8628973960876465,-18.88935852050781,-0.0231596902012825,-0.044141411781311,0.0307126473635435,49.404441833496094,2.5455942153930664,-1.2364383935928345,0
20210,0.0473345406353473,0.7810137271881104,0.5982866287231445,-7.86522102355957,7.8628973960876465,-18.88935852050781,-0.0231596902012825,-0.044141411781311,0.0307126473635435,49.404441833496094,2.5455942153930664,-1.2364383935928345,0
20210,0.0473345406353473,0.7810137271881104,0.5982866287231445,-7.86522102355957,7.8628973960876465,-18.88935852050781,-0.0231596902012825,-0.044141411781311,0.0307126473635435,49.404441833496094,2.5455942153930664,-1.2364383935928345,0
20210,0.0473345406353473,0.7810137271881104,0.5982866287231445,-7.86522102355957,7.8628973960876465,-18.88935852050781,-0.0231596902012825,-0.044141411781311,0.0307126473635435,49.404441833496094,2.5455942153930664,-1.2364383935928345,0
20210,0.0473345406353473,0.7810137271881104,0.5982866287231445,-7.86522102355957,7.8628973960876465,-18.88935852050781,-0.0231596902012825,-0.044141411781311,0.0307126473635435,49.404441833496094,2.5455942153930664,-1.2364383935928345,0
20210,0.0473345406353473,0.7810137271881104,0.5982866287231445,-7.86522102355957,7.8628973960876465,-18.88935852050781,-0.0231596902012825,-0.044141411781311,0.0307126473635435,49.404441833496094,2.5455942153930664,-1.2364383935928345,0
20210,0.0473345406353473,0.7810137271881104,0.5982866287231445,-7.86522102355957,7.8628973960876465,-18.88935852050781,-0.0231596902012825,-0.044141411781311,0.0307126473635435,49.404441833496094,2.5455942153930664,-1.2364383935928345,0
20210,0.0473345406353473,0.7810137271881104,0.5982866287231445,-7.86522102355957,7.8628973960876465,-18.88935852050781,-0.0231596902012825,-0.044141411781311,0.0307126473635435,49.404441833496094,2.5455942153930664,-1.2364383935928345,0
20210,0.0473345406353473,0.7810137271881104,0.5982866287231445,-7.86522102355957,7.8628973960876465,-18.88935852050781,-0.0231596902012825,-0.044141411781311,0.0307126473635435,49.404441833496094,2.5455942153930664,-1.2364383935928345,0
20210,0.0473345406353473,0.7810137271881104,0.5982866287231445,-7.86522102355957,7.8628973960876465,-18.88935852050781,-0.0231596902012825,-0.044141411781311,0.0307126473635435,49.404441833496094,2.5455942153930664,-1.2364383935928345,0
20210,0.0473345406353473,0.7810137271881104,0.5982866287231445,-7.86522102355957,7.8628973960876465,-18.88935852050781,-0.0231596902012825,-0.044141411781311,0.0307126473635435,49.404441833496094,2.5455942153930664,-1.2364383935928345,0
20210,0.0473345406353473,0.7810137271881104,0.5982866287231445,-7.86522102355957,7.8628973960876465,-18.88935852050781,-0.0231596902012825,-0.044141411781311,0.0307126473635435,49.404441833496094,2.5455942153930664,-1.2364383935928345,0
20210,0.0473345406353473,0.7810137271881104,0.5982866287231445,-7.86522102355957,7.8628973960876465,-18.88935852050781,-0.0231596902012825,-0.044141411781311,0.0307126473635435,49.404441833496094,2.5455942153930664,-1.2364383935928345,0
20210,0.0473345406353473,0.7810137271881104,0.5982866287231445,-7.86522102355957,7.8628973960876465,-18.88935852050781,-0.0231596902012825,-0.044141411781311,0.0307126473635435,49.404441833496094,2.5455942153930664,-1.2364383935928345,0
20210,0.0473345406353473,0.7810137271881104,0.5982866287231445,-7.86522102355957,7.8628973960876465,-18.88935852050781,-0.0231596902012825,-0.044141411781311,0.0307126473635435,49.404441833496094,2.5455942153930664,-1.2364383935928345,0
20210,0.0473345406353473,0.7810137271881104,0.5982866287231445,-7.86522102355957,7.8628973960876465,-18.88935852050781,-0.0231596902012825,-0.044141411781311,0.0307126473635435,49.404441833496094,2.5455942153930664,-1.2364383935928345,0
20210,0.0473345406353473,0.7810137271881104,0.5982866287231445,-7.86522102355957,7.8628973960876465,-18.88935852050781,-0.0231596902012825,-0.044141411781311,0.0307126473635435,49.404441833496094,2.5455942153930664,-1.2364383935928345,0
20210,0.0473345406353473,0.7810137271881104,0.5982866287231445,-7.86522102355957,7.8628973960876465,-18.88935852050781,-0.0231596902012825,-0.044141411781311,0.0307126473635435,49.404441833496094,2.5455942153930664,-1.2364383935928345,0
20210,0.0473345406353473,0.7810137271881104,0.5982866287231445,-7.86522102355957,7.8628973960876465,-18.88935852050781,-0.0231596902012825,-0.044141411781311,0.0307126473635435,49.404441833496094,2.5455942153930664,-1.2364383935928345,0
20210,0.0473345406353473,0.7810137271881104,0.5982866287231445,-7.86522102355957,7.8628973960876465,-18.88935852050781,-0.0231596902012825,-0.044141411781311,0.0307126473635435,49.404441833496094,2.5455942153930664,-1.2364383935928345,0
20210,0.0473345406353473,0.7810137271881104,0.5982866287231445,-7.86522102355957,7.8628973960876465,-18.88935852050781,-0.0231596902012825,-0.044141411781311,0.0307126473635435,49.404441833496094,2.5455942153930664,-1.2364383935928345,0
20210,0.0473345406353473,0.7810137271881104,0.5982866287231445,-7.86522102355957,7.8628973960876465,-18.88935852050781,-0.0231596902012825,-0.044141411781311,0.0307126473635435,49.404441833496094,2.5455942153930664,-1.2364383935928345,0
20210,0.0473345406353473,0.7810137271881104,0.5982866287231445,-7.86522102355957,7.8628973960876465,-18.88935852050781,-0.0231596902012825,-0.044141411781311,0.0307126473635435,49.404441833496094,2.5455942153930664,-1.2364383935928345,0
20210,0.0473345406353473,0.7810137271881104,0.5982866287231445,-7.86522102355957,7.8628973960876465,-18.88935852050781,-0.0231596902012825,-0.044141411781311,0.0307126473635435,49.404441833496094,2.5455942153930664,-1.2364383935928345,0
20210,0.0473345406353473,0.7810137271881104,0.5982866287231445,-7.86522102355957,7.8628973960876465,-18.88935852050781,-0.0231596902012825,-0.044141411781311,0.0307126473635435,49.404441833496094,2.5455942153930664,-1.2364383935928345,0
20210,0.0473345406353473,0.7810137271881104,0.5982866287231445,-7.86522102355957,7.8628973960876465,-18.88935852050781,-0.0231596902012825,-0.044141411781311,0.0307126473635435,49.404441833496094,2.5455942153930664,-1.2364383935928345,0
20210,0.0473345406353473,0.7810137271881104,0.5982866287231445,-7.86522102355957,7.8628973960876465,-18.88935852050781,-0.0231596902012825,-0.044141411781311,0.0307126473635435,49.404441833496094,2.5455942153930664,-1.2364383935928345,0
20210,0.0473345406353473,0.7810137271881104,0.5982866287231445,-7.86522102355957,7.8628973960876465,-18.88935852050781,-0.0231596902012825,-0.044141411781311,0.0307126473635435,49.404441833496094,2.5455942153930664,-1.2364383935928345,0
20210,0.0473345406353473,0.7810137271881104,0.5982866287231445,-7.86522102355957,7.8628973960876465,-18.88935852050781,-0.0231596902012825,-0.044141411781311,0.0307126473635435,49.404441833496094,2.5455942153930664,-1.2364383935928345,0
20210,0.0473345406353473,0.7810137271881104,0.5982866287231445,-7.86522102355957,7.8628973960876465,-18.88935852050781,-0.0231596902012825,-0.044141411781311,0.0307126473635435,49.404441833496094,2.5455942153930664,-1.2364383935928345,0
20210,0.0473345406353473,0.7810137271881104,0.5982866287231445,-7.86522102355957,7.8628973960876465,-18.88935852050781,-0.0231596902012825,-0.044141411781311,0.0307126473635435,49.404441833496094,2.5455942153930664,-1.2364383935928345,0
20210,0.0473345406353473,0.7810137271881104,0.5982866287231445,-7.86522102355957,7.8628973960876465,-18.88935852050781,-0.0231596902012825,-0.044141411781311,0.0307126473635435,49.404441833496094,2.5455942153930664,-1.2364383935928345,0
20210,0.0473345406353473,0.7810137271881104,0.5982866287231445,-7.86522102355957,7.8628973960876465,-18.88935852050781,-0.0231596902012825,-0.044141411781311,0.0307126473635435,49.404441833496094,2.5455942153930664,-1.2364383935928345,0
20210,0.0473345406353473,0.7810137271881104,0.5982866287231445,-7.86522102355957,7.8628973960876465,-18.88935852050781,-0.0231596902012825,-0.044141411781311,0.0307126473635435,49.404441833496094,2.5455942153930664,-1.2364383935928345,0
20210,0.0473345406353473,0.7810137271881104,0.5982866287231445,-7.86522102355957,7.8628973960876465,-18.88935852050781,-0.0231596902012825,-0.044141411781311,0.0307126473635435,49.404441833496094,2.5455942153930664,-1.2364383935928345,0
20210,0.0473345406353473,0.7810137271881104,0.5982866287231445,-7.86522102355957,7.8628973960876465,-18.88935852050781,-0.0231596902012825,-0.044141411781311,0.0307126473635435,49.404441833496094,2.5455942153930664,-1.2364383935928345,0
20210,0.0473345406353473,0.7810137271881104,0.5982866287231445,-7.86522102355957,7.8628973960876465,-18.88935852050781,-0.0231596902012825,-0.044141411781311,0.0307126473635435,49.404441833496094,2.5455942153930664,-1.2364383935928345,0
20210,0.0473345406353473,0.7810137271881104,0.5982866287231445,-7.86522102355957,7.8628973960876465,-18.88935852050781,-0.0231596902012825,-0.044141411781311,0.0307126473635435,49.404441833496094,2.5455942153930664,-1.2364383935928345,0
20210,0.0473345406353473,0.7810137271881104,0.5982866287231445,-7.86522102355957,7.8628973960876465,-18.88935852050781,-0.0231596902012825,-0.044141411781311,0.0307126473635435,49.404441833496094,2.5455942153930664,-1.2364383935928345,0
20210,0.0473345406353473,0.7810137271881104,0.5982866287231445,-7.86522102355957,7.8628973960876465,-18.88935852050781,-0.0231596902012825,-0.044141411781311,0.0307126473635435,49.404441833496094,2.5455942153930664,-1.2364383935928345,0
20210,0.0473345406353473,0.7810137271881104,0.5982866287231445,-7.86522102355957,7.8628973960876465,-18.88935852050781,-0.0231596902012825,-0.044141411781311,0.0307126473635435,49.404441833496094,2.5455942153930664,-1.2364383935928345,0
20210,0.0473345406353473,0.7810137271881104,0.5982866287231445,-7.86522102355957,7.8628973960876465,-18.88935852050781,-0.0231596902012825,-0.044141411781311,0.0307126473635435,49.404441833496094,2.5455942153930664,-1.2364383935928345,0
20210,0.0473345406353473,0.7810137271881104,0.5982866287231445,-7.86522102355957,7.8628973960876465,-18.88935852050781,-0.0231596902012825,-0.044141411781311,0.0307126473635435,49.404441833496094,2.5455942153930664,-1.2364383935928345,0
20210,0.0473345406353473,0.7810137271881104,0.5982866287231445,-7.86522102355957,7.8628973960876465,-18.88935852050781,-0.0231596902012825,-0.044141411781311,0.0307126473635435,49.404441833496094,2.5455942153930664,-1.2364383935928345,0
20210,0.0473345406353473,0.7810137271881104,0.5982866287231445,-7.86522102355957,7.8628973960876465,-18.88935852050781,-0.0231596902012825,-0.044141411781311,0.0307126473635435,49.404441833496094,2.5455942153930664,-1.2364383935928345,0
20210,0.0473345406353473,0.7810137271881104,0.5982866287231445,-7.86522102355957,7.8628973960876465,-18.88935852050781,-0.0231596902012825,-0.044141411781311,0.0307126473635435,49.404441833496094,2.5455942153930664,-1.2364383935928345,0
20210,0.0473345406353473,0.7810137271881104,0.5982866287231445,-7.86522102355957,7.8628973960876465,-18.88935852050781,-0.0231596902012825,-0.044141411781311,0.0307126473635435,49.404441833496094,2.5455942153930664,-1.2364383935928345,0
20210,0.0473345406353473,0.7810137271881104,0.5982866287231445,-7.86522102355957,7.8628973960876465,-18.88935852050781,-0.0231596902012825,-0.044141411781311,0.0307126473635435,49.404441833496094,2.5455942153930664,-1.2364383935928345,0
20210,0.0473345406353473,0.7810137271881104,0.5982866287231445,-7.86522102355957,7.8628973960876465,-18.88935852050781,-0.0231596902012825,-0.044141411781311,0.0307126473635435,49.404441833496094,2.5455942153930664,-1.2364383935928345,0
20210,0.0473345406353473,0.7810137271881104,0.5982866287231445,-7.86522102355957,7.8628973960876465,-18.88935852050781,-0.0231596902012825,-0.044141411781311,0.0307126473635435,49.404441833496094,2.5455942153930664,-1.2364383935928345,0
20210,0.0473345406353473,0.7810137271881104,0.5982866287231445,-7.86522102355957,7.8628973960876465,-18.88935852050781,-0.0231596902012825,-0.044141411781311,0.0307126473635435,49.404441833496094,2.5455942153930664,-1.2364383935928345,0
20210,0.0473345406353473,0.7810137271881104,0.5982866287231445,-7.86522102355957,7.8628973960876465,-18.88935852050781,-0.0231596902012825,-0.044141411781311,0.0307126473635435,49.404441833496094,2.5455942153930664,-1.2364383935928345,0
20210,0.0473345406353473,0.7810137271881104,0.5982866287231445,-7.86522102355957,7.8628973960876465,-18.88935852050781,-0.0231596902012825,-0.044141411781311,0.0307126473635435,49.404441833496094,2.5455942153930664,-1.2364383935928345,0
20210,0.0473345406353473,0.7810137271881104,0.5982866287231445,-7.86522102355957,7.8628973960876465,-18.88935852050781,-0.0231596902012825,-0.044141411781311,0.0307126473635435,49.404441833496094,2.5455942153930664,-1.2364383935928345,0
20210,0.0473345406353473,0.7810137271881104,0.5982866287231445,-7.86522102355957,7.8628973960876465,-18.88935852050781,-0.0231596902012825,-0.044141411781311,0.0307126473635435,49.404441833496094,2.5455942153930664,-1.2364383935928345,0
20210,0.0473345406353473,0.7810137271881104,0.5982866287231445,-7.86522102355957,7.8628973960876465,-18.88935852050781,-0.0231596902012825,-0.044141411781311,0.0307126473635435,49.404441833496094,2.5455942153930664,-1.2364383935928345,0
20210,0.0473345406353473,0.7810137271881104,0.5982866287231445,-7.86522102355957,7.8628973960876465,-18.88935852050781,-0.0231596902012825,-0.044141411781311,0.0307126473635435,49.404441833496094,2.5455942153930664,-1.2364383935928345,0
20210,0.0473345406353473,0.7810137271881104,0.5982866287231445,-7.86522102355957,7.8628973960876465,-18.88935852050781,-0.0231596902012825,-0.044141411781311,0.0307126473635435,49.404441833496094,2.5455942153930664,-1.2364383935928345,0
20210,0.0473345406353473,0.7810137271881104,0.5982866287231445,-7.86522102355957,7.8628973960876465,-18.88935852050781,-0.0231596902012825,-0.044141411781311,0.0307126473635435,49.404441833496094,2.5455942153930664,-1.2364383935928345,0
20210,0.0473345406353473,0.7810137271881104,0.5982866287231445,-7.86522102355957,7.8628973960876465,-18.88935852050781,-0.0231596902012825,-0.044141411781311,0.0307126473635435,49.404441833496094,2.5455942153930664,-1.2364383935928345,0
20210,0.0473345406353473,0.7810137271881104,0.5982866287231445,-7.86522102355957,7.8628973960876465,-18.88935852050781,-0.0231596902012825,-0.044141411781311,0.0307126473635435,49.404441833496094,2.5455942153930664,-1.2364383935928345,0
20210,0.0473345406353473,0.7810137271881104,0.5982866287231445,-7.86522102355957,7.8628973960876465,-18.88935852050781,-0.0231596902012825,-0.044141411781311,0.0307126473635435,49.404441833496094,2.5455942153930664,-1.2364383935928345,0
20210,0.0473345406353473,0.7810137271881104,0.5982866287231445,-7.86522102355957,7.8628973960876465,-18.88935852050781,-0.0231596902012825,-0.044141411781311,0.0307126473635435,49.404441833496094,2.5455942153930664,-1.2364383935928345,0
20210,0.0473345406353473,0.7810137271881104,0.5982866287231445,-7.86522102355957,7.8628973960876465,-18.88935852050781,-0.0231596902012825,-0.044141411781311,0.0307126473635435,49.404441833496094,2.5455942153930664,-1.2364383935928345,0
20210,0.0473345406353473,0.7810137271881104,0.5982866287231445,-7.86522102355957,7.8628973960876465,-18.88935852050781,-0.0231596902012825,-0.044141411781311,0.0307126473635435,49.404441833496094,2.5455942153930664,-1.2364383935928345,0
20210,0.0473345406353473,0.7810137271881104,0.5982866287231445,-7.86522102355957,7.8628973960876465,-18.88935852050781,-0.0231596902012825,-0.044141411781311,0.0307126473635435,49.404441833496094,2.5455942153930664,-1.2364383935928345,0
20210,0.0473345406353473,0.7810137271881104,0.5982866287231445,-7.86522102355957,7.8628973960876465,-18.88935852050781,-0.0231596902012825,-0.044141411781311,0.0307126473635435,49.404441833496094,2.5455942153930664,-1.2364383935928345,0
20210,0.0473345406353473,0.7810137271881104,0.5982866287231445,-7.86522102355957,7.8628973960876465,-18.88935852050781,-0.0231596902012825,-0.044141411781311,0.0307126473635435,49.404441833496094,2.5455942153930664,-1.2364383935928345,0
20210,0.0473345406353473,0.7810137271881104,0.5982866287231445,-7.86522102355957,7.8628973960876465,-18.88935852050781,-0.0231596902012825,-0.044141411781311,0.0307126473635435,49.404441833496094,2.5455942153930664,-1.2364383935928345,0
20210,0.0473345406353473,0.7810137271881104,0.5982866287231445,-7.86522102355957,7.8628973960876465,-18.88935852050781,-0.0231596902012825,-0.044141411781311,0.0307126473635435,49.404441833496094,2.5455942153930664,-1.2364383935928345,0
20210,0.0473345406353473,0.7810137271881104,0.5982866287231445,-7.86522102355957,7.8628973960876465,-18.88935852050781,-0.0231596902012825,-0.044141411781311,0.0307126473635435,49.404441833496094,2.5455942153930664,-1.2364383935928345,0
20210,0.0473345406353473,0.7810137271881104,0.5982866287231445,-7.86522102355957,7.8628973960876465,-18.88935852050781,-0.0231596902012825,-0.044141411781311,0.0307126473635435,49.404441833496094,2.5455942153930664,-1.2364383935928345,0
20210,0.0473345406353473,0.7810137271881104,0.5982866287231445,-7.86522102355957,7.8628973960876465,-18.88935852050781,-0.0231596902012825,-0.044141411781311,0.0307126473635435,49.404441833496094,2.5455942153930664,-1.2364383935928345,0
20210,0.0473345406353473,0.7810137271881104,0.5982866287231445,-7.86522102355957,7.8628973960876465,-18.88935852050781,-0.0231596902012825,-0.044141411781311,0.0307126473635435,49.404441833496094,2.5455942153930664,-1.2364383935928345,0
20210,0.0473345406353473,0.7810137271881104,0.5982866287231445,-7.86522102355957,7.8628973960876465,-18.88935852050781,-0.0231596902012825,-0.044141411781311,0.0307126473635435,49.404441833496094,2.5455942153930664,-1.2364383935928345,0
20210,0.0473345406353473,0.7810137271881104,0.5982866287231445,-7.86522102355957,7.8628973960876465,-18.88935852050781,-0.0231596902012825,-0.044141411781311,0.0307126473635435,49.404441833496094,2.5455942153930664,-1.2364383935928345,0
20210,0.0473345406353473,0.7810137271881104,0.5982866287231445,-7.86522102355957,7.8628973960876465,-18.88935852050781,-0.0231596902012825,-0.044141411781311,0.0307126473635435,49.404441833496094,2.5455942153930664,-1.2364383935928345,0
20210,0.0473345406353473,0.7810137271881104,0.5982866287231445,-7.86522102355957,7.8628973960876465,-18.88935852050781,-0.0231596902012825,-0.044141411781311,0.0307126473635435,49.404441833496094,2.5455942153930664,-1.2364383935928345,0
20210,0.0473345406353473,0.7810137271881104,0.5982866287231445,-7.86522102355957,7.8628973960876465,-18.88935852050781,-0.0231596902012825,-0.044141411781311,0.0307126473635435,49.404441833496094,2.5455942153930664,-1.2364383935928345,0
20210,0.0473345406353473,0.7810137271881104,0.5982866287231445,-7.86522102355957,7.8628973960876465,-18.88935852050781,-0.0231596902012825,-0.044141411781311,0.0307126473635435,49.404441833496094,2.5455942153930664,-1.2364383935928345,0
20210,0.0473345406353473,0.7810137271881104,0.5982866287231445,-7.86522102355957,7.8628973960876465,-18.88935852050781,-0.0231596902012825,-0.044141411781311,0.0307126473635435,49.404441833496094,2.5455942153930664,-1.2364383935928345,0
20210,0.0473345406353473,0.7810137271881104,0.5982866287231445,-7.86522102355957,7.8628973960876465,-18.88935852050781,-0.0231596902012825,-0.044141411781311,0.0307126473635435,49.404441833496094,2.5455942153930664,-1.2364383935928345,0
20210,0.0473345406353473,0.7810137271881104,0.5982866287231445,-7.86522102355957,7.8628973960876465,-18.88935852050781,-0.0231596902012825,-0.044141411781311,0.0307126473635435,49.404441833496094,2.5455942153930664,-1.2364383935928345,0
20210,0.0473345406353473,0.7810137271881104,0.5982866287231445,-7.86522102355957,7.8628973960876465,-18.88935852050781,-0.0231596902012825,-0.044141411781311,0.0307126473635435,49.404441833496094,2.5455942153930664,-1.2364383935928345,0
20210,0.0473345406353473,0.7810137271881104,0.5982866287231445,-7.86522102355957,7.8628973960876465,-18.88935852050781,-0.0231596902012825,-0.044141411781311,0.0307126473635435,49.404441833496094,2.5455942153930664,-1.2364383935928345,0
20210,0.0473345406353473,0.7810137271881104,0.5982866287231445,-7.86522102355957,7.8628973960876465,-18.88935852050781,-0.0231596902012825,-0.044141411781311,0.0307126473635435,49.404441833496094,2.5455942153930664,-1.2364383935928345,0
20210,0.0473345406353473,0.7810137271881104,0.5982866287231445,-7.86522102355957,7.8628973960876465,-18.88935852050781,-0.0231596902012825,-0.044141411781311,0.0307126473635435,49.404441833496094,2.5455942153930664,-1.2364383935928345,0
20210,0.0473345406353473,0.7810137271881104,0.5982866287231445,-7.86522102355957,7.8628973960876465,-18.88935852050781,-0.0231596902012825,-0.044141411781311,0.0307126473635435,49.404441833496094,2.5455942153930664,-1.2364383935928345,0
20210,0.0473345406353473,0.7810137271881104,0.5982866287231445,-7.86522102355957,7.8628973960876465,-18.88935852050781,-0.0231596902012825,-0.044141411781311,0.0307126473635435,49.404441833496094,2.5455942153930664,-1.2364383935928345,0
20210,0.0473345406353473,0.7810137271881104,0.5982866287231445,-7.86522102355957,7.8628973960876465,-18.88935852050781,-0.0231596902012825,-0.044141411781311,0.0307126473635435,49.404441833496094,2.5455942153930664,-1.2364383935928345,0
20210,0.0473345406353473,0.7810137271881104,0.5982866287231445,-7.86522102355957,7.8628973960876465,-18.88935852050781,-0.0231596902012825,-0.044141411781311,0.0307126473635435,49.404441833496094,2.5455942153930664,-1.2364383935928345,0
20210,0.0473345406353473,0.7810137271881104,0.5982866287231445,-7.86522102355957,7.8628973960876465,-18.88935852050781,-0.0231596902012825,-0.044141411781311,0.0307126473635435,49.404441833496094,2.5455942153930664,-1.2364383935928345,0
20210,0.0473345406353473,0.7810137271881104,0.5982866287231445,-7.86522102355957,7.8628973960876465,-18.88935852050781,-0.0231596902012825,-0.044141411781311,0.0307126473635435,49.404441833496094,2.5455942153930664,-1.2364383935928345,0
20210,0.0473345406353473,0.7810137271881104,0.5982866287231445,-7.86522102355957,7.8628973960876465,-18.88935852050781,-0.0231596902012825,-0.044141411781311,0.0307126473635435,49.404441833496094,2.5455942153930664,-1.2364383935928345,0
20210,0.0473345406353473,0.7810137271881104,0.5982866287231445,-7.86522102355957,7.8628973960876465,-18.88935852050781,-0.0231596902012825,-0.044141411781311,0.0307126473635435,49.404441833496094,2.5455942153930664,-1.2364383935928345,0
20210,0.0473345406353473,0.7810137271881104,0.5982866287231445,-7.86522102355957,7.8628973960876465,-18.88935852050781,-0.0231596902012825,-0.044141411781311,0.0307126473635435,49.404441833496094,2.5455942153930664,-1.2364383935928345,0
20210,0.0473345406353473,0.7810137271881104,0.5982866287231445,-7.86522102355957,7.8628973960876465,-18.88935852050781,-0.0231596902012825,-0.044141411781311,0.0307126473635435,49.404441833496094,2.5455942153930664,-1.2364383935928345,0
20210,0.0473345406353473,0.7810137271881104,0.5982866287231445,-7.86522102355957,7.8628973960876465,-18.88935852050781,-0.0231596902012825,-0.044141411781311,0.0307126473635435,49.404441833496094,2.5455942153930664,-1.2364383935928345,0
20210,0.0473345406353473,0.7810137271881104,0.5982866287231445,-7.86522102355957,7.8628973960876465,-18.88935852050781,-0.0231596902012825,-0.044141411781311,0.0307126473635435,49.404441833496094,2.5455942153930664,-1.2364383935928345,0
20210,0.0473345406353473,0.7810137271881104,0.5982866287231445,-7.86522102355957,7.8628973960876465,-18.88935852050781,-0.0231596902012825,-0.044141411781311,0.0307126473635435,49.404441833496094,2.5455942153930664,-1.2364383935928345,0
20210,0.0473345406353473,0.7810137271881104,0.5982866287231445,-7.86522102355957,7.8628973960876465,-18.88935852050781,-0.0231596902012825,-0.044141411781311,0.0307126473635435,49.404441833496094,2.5455942153930664,-1.2364383935928345,0
20210,0.0473345406353473,0.7810137271881104,0.5982866287231445,-7.86522102355957,7.8628973960876465,-18.88935852050781,-0.0231596902012825,-0.044141411781311,0.0307126473635435,49.404441833496094,2.5455942153930664,-1.2364383935928345,0
20210,0.0473345406353473,0.7810137271881104,0.5982866287231445,-7.86522102355957,7.8628973960876465,-18.88935852050781,-0.0231596902012825,-0.044141411781311,0.0307126473635435,49.404441833496094,2.5455942153930664,-1.2364383935928345,0
20210,0.0473345406353473,0.7810137271881104,0.5982866287231445,-7.86522102355957,7.8628973960876465,-18.88935852050781,-0.0231596902012825,-0.044141411781311,0.0307126473635435,49.404441833496094,2.5455942153930664,-1.2364383935928345,0
20210,0.0473345406353473,0.7810137271881104,0.5982866287231445,-7.86522102355957,7.8628973960876465,-18.88935852050781,-0.0231596902012825,-0.044141411781311,0.0307126473635435,49.404441833496094,2.5455942153930664,-1.2364383935928345,0
20210,0.0473345406353473,0.7810137271881104,0.5982866287231445,-7.86522102355957,7.8628973960876465,-18.88935852050781,-0.0231596902012825,-0.044141411781311,0.0307126473635435,49.404441833496094,2.5455942153930664,-1.2364383935928345,0
20210,0.0473345406353473,0.7810137271881104,0.5982866287231445,-7.86522102355957,7.8628973960876465,-18.88935852050781,-0.0231596902012825,-0.044141411781311,0.0307126473635435,49.404441833496094,2.5455942153930664,-1.2364383935928345,0
20210,0.0473345406353473,0.7810137271881104,0.5982866287231445,-7.86522102355957,7.8628973960876465,-18.88935852050781,-0.0231596902012825,-0.044141411781311,0.0307126473635435,49.404441833496094,2.5455942153930664,-1.2364383935928345,0
20210,0.0473345406353473,0.7810137271881104,0.5982866287231445,-7.86522102355957,7.8628973960876465,-18.88935852050781,-0.0231596902012825,-0.044141411781311,0.0307126473635435,49.404441833496094,2.5455942153930664,-1.2364383935928345,0
20210,0.0473345406353473,0.7810137271881104,0.5982866287231445,-7.86522102355957,7.8628973960876465,-18.88935852050781,-0.0231596902012825,-0.044141411781311,0.0307126473635435,49.404441833496094,2.5455942153930664,-1.2364383935928345,0
20210,0.0473345406353473,0.7810137271881104,0.5982866287231445,-7.86522102355957,7.8628973960876465,-18.88935852050781,-0.0231596902012825,-0.044141411781311,0.0307126473635435,49.404441833496094,2.5455942153930664,-1.2364383935928345,0
20210,0.0473345406353473,0.7810137271881104,0.5982866287231445,-7.86522102355957,7.8628973960876465,-18.88935852050781,-0.0231596902012825,-0.044141411781311,0.0307126473635435,49.404441833496094,2.5455942153930664,-1.2364383935928345,0
20210,0.0473345406353473,0.7810137271881104,0.5982866287231445,-7.86522102355957,7.8628973960876465,-18.88935852050781,-0.0231596902012825,-0.044141411781311,0.0307126473635435,49.404441833496094,2.5455942153930664,-1.2364383935928345,0
20210,0.0473345406353473,0.7810137271881104,0.5982866287231445,-7.86522102355957,7.8628973960876465,-18.88935852050781,-0.0231596902012825,-0.044141411781311,0.0307126473635435,49.404441833496094,2.5455942153930664,-1.2364383935928345,0
20210,0.0473345406353473,0.7810137271881104,0.5982866287231445,-7.86522102355957,7.8628973960876465,-18.88935852050781,-0.0231596902012825,-0.044141411781311,0.0307126473635435,49.404441833496094,2.5455942153930664,-1.2364383935928345,0
20210,0.0473345406353473,0.7810137271881104,0.5982866287231445,-7.86522102355957,7.8628973960876465,-18.88935852050781,-0.0231596902012825,-0.044141411781311,0.0307126473635435,49.404441833496094,2.5455942153930664,-1.2364383935928345,0
20210,0.0473345406353473,0.7810137271881104,0.5982866287231445,-7.86522102355957,7.8628973960876465,-18.88935852050781,-0.0231596902012825,-0.044141411781311,0.0307126473635435,49.404441833496094,2.5455942153930664,-1.2364383935928345,0
20210,0.0473345406353473,0.7810137271881104,0.5982866287231445,-7.86522102355957,7.8628973960876465,-18.88935852050781,-0.0231596902012825,-0.044141411781311,0.0307126473635435,49.404441833496094,2.5455942153930664,-1.2364383935928345,0
20210,0.0473345406353473,0.7810137271881104,0.5982866287231445,-7.86522102355957,7.8628973960876465,-18.88935852050781,-0.0231596902012825,-0.044141411781311,0.0307126473635435,49.404441833496094,2.5455942153930664,-1.2364383935928345,0
20210,0.0473345406353473,0.7810137271881104,0.5982866287231445,-7.86522102355957,7.8628973960876465,-18.88935852050781,-0.0231596902012825,-0.044141411781311,0.0307126473635435,49.404441833496094,2.5455942153930664,-1.2364383935928345,0
20210,0.0473345406353473,0.7810137271881104,0.5982866287231445,-7.86522102355957,7.8628973960876465,-18.88935852050781,-0.0231596902012825,-0.044141411781311,0.0307126473635435,49.404441833496094,2.5455942153930664,-1.2364383935928345,0
20210,0.0473345406353473,0.7810137271881104,0.5982866287231445,-7.86522102355957,7.8628973960876465,-18.88935852050781,-0.0231596902012825,-0.044141411781311,0.0307126473635435,49.404441833496094,2.5455942153930664,-1.2364383935928345,0
20210,0.0473345406353473,0.7810137271881104,0.5982866287231445,-7.86522102355957,7.8628973960876465,-18.88935852050781,-0.0231596902012825,-0.044141411781311,0.0307126473635435,49.404441833496094,2.5455942153930664,-1.2364383935928345,0
20210,0.0473345406353473,0.7810137271881104,0.5982866287231445,-7.86522102355957,7.8628973960876465,-18.88935852050781,-0.0231596902012825,-0.044141411781311,0.0307126473635435,49.404441833496094,2.5455942153930664,-1.2364383935928345,0
20210,0.0473345406353473,0.7810137271881104,0.5982866287231445,-7.86522102355957,7.8628973960876465,-18.88935852050781,-0.0231596902012825,-0.044141411781311,0.0307126473635435,49.404441833496094,2.5455942153930664,-1.2364383935928345,0
20210,0.0473345406353473,0.7810137271881104,0.5982866287231445,-7.86522102355957,7.8628973960876465,-18.88935852050781,-0.0231596902012825,-0.044141411781311,0.0307126473635435,49.404441833496094,2.5455942153930664,-1.2364383935928345,0
20210,0.0473345406353473,0.7810137271881104,0.5982866287231445,-7.86522102355957,7.8628973960876465,-18.88935852050781,-0.0231596902012825,-0.044141411781311,0.0307126473635435,49.404441833496094,2.5455942153930664,-1.2364383935928345,0
20210,0.0473345406353473,0.7810137271881104,0.5982866287231445,-7.86522102355957,7.8628973960876465,-18.88935852050781,-0.0231596902012825,-0.044141411781311,0.0307126473635435,49.404441833496094,2.5455942153930664,-1.2364383935928345,0
20210,0.0473345406353473,0.7810137271881104,0.5982866287231445,-7.86522102355957,7.8628973960876465,-18.88935852050781,-0.0231596902012825,-0.044141411781311,0.0307126473635435,49.404441833496094,2.5455942153930664,-1.2364383935928345,0
20210,0.0473345406353473,0.7810137271881104,0.5982866287231445,-7.86522102355957,7.8628973960876465,-18.88935852050781,-0.0231596902012825,-0.044141411781311,0.0307126473635435,49.404441833496094,2.5455942153930664,-1.2364383935928345,0
20210,0.0473345406353473,0.7810137271881104,0.5982866287231445,-7.86522102355957,7.8628973960876465,-18.88935852050781,-0.0231596902012825,-0.044141411781311,0.0307126473635435,49.404441833496094,2.5455942153930664,-1.2364383935928345,0
20210,0.0473345406353473,0.7810137271881104,0.5982866287231445,-7.86522102355957,7.8628973960876465,-18.88935852050781,-0.0231596902012825,-0.044141411781311,0.0307126473635435,49.404441833496094,2.5455942153930664,-1.2364383935928345,0
20210,0.0473345406353473,0.7810137271881104,0.5982866287231445,-7.86522102355957,7.8628973960876465,-18.88935852050781,-0.0231596902012825,-0.044141411781311,0.0307126473635435,49.404441833496094,2.5455942153930664,-1.2364383935928345,0
20210,0.0473345406353473,0.7810137271881104,0.5982866287231445,-7.86522102355957,7.8628973960876465,-18.88935852050781,-0.0231596902012825,-0.044141411781311,0.0307126473635435,49.404441833496094,2.5455942153930664,-1.2364383935928345,0
20210,0.0473345406353473,0.7810137271881104,0.5982866287231445,-7.86522102355957,7.8628973960876465,-18.88935852050781,-0.0231596902012825,-0.044141411781311,0.0307126473635435,49.404441833496094,2.5455942153930664,-1.2364383935928345,0
20210,0.0473345406353473,0.7810137271881104,0.5982866287231445,-7.86522102355957,7.8628973960876465,-18.88935852050781,-0.0231596902012825,-0.044141411781311,0.0307126473635435,49.404441833496094,2.5455942153930664,-1.2364383935928345,0
20210,0.0473345406353473,0.7810137271881104,0.5982866287231445,-7.86522102355957,7.8628973960876465,-18.88935852050781,-0.0231596902012825,-0.044141411781311,0.0307126473635435,49.404441833496094,2.5455942153930664,-1.2364383935928345,0
20210,0.0473345406353473,0.7810137271881104,0.5982866287231445,-7.86522102355957,7.8628973960876465,-18.88935852050781,-0.0231596902012825,-0.044141411781311,0.0307126473635435,49.404441833496094,2.5455942153930664,-1.2364383935928345,0
20210,0.0473345406353473,0.7810137271881104,0.5982866287231445,-7.86522102355957,7.8628973960876465,-18.88935852050781,-0.0231596902012825,-0.044141411781311,0.0307126473635435,49.404441833496094,2.5455942153930664,-1.2364383935928345,0
20210,0.0473345406353473,0.7810137271881104,0.5982866287231445,-7.86522102355957,7.8628973960876465,-18.88935852050781,-0.0231596902012825,-0.044141411781311,0.0307126473635435,49.404441833496094,2.5455942153930664,-1.2364383935928345,0
20210,0.0473345406353473,0.7810137271881104,0.5982866287231445,-7.86522102355957,7.8628973960876465,-18.88935852050781,-0.0231596902012825,-0.044141411781311,0.0307126473635435,49.404441833496094,2.5455942153930664,-1.2364383935928345,0
20210,0.0473345406353473,0.7810137271881104,0.5982866287231445,-7.86522102355957,7.8628973960876465,-18.88935852050781,-0.0231596902012825,-0.044141411781311,0.0307126473635435,49.404441833496094,2.5455942153930664,-1.2364383935928345,0
20210,0.0473345406353473,0.7810137271881104,0.5982866287231445,-7.86522102355957,7.8628973960876465,-18.88935852050781,-0.0231596902012825,-0.044141411781311,0.0307126473635435,49.404441833496094,2.5455942153930664,-1.2364383935928345,0
20210,0.0473345406353473,0.7810137271881104,0.5982866287231445,-7.86522102355957,7.8628973960876465,-18.88935852050781,-0.0231596902012825,-0.044141411781311,0.0307126473635435,49.404441833496094,2.5455942153930664,-1.2364383935928345,0
20210,0.0473345406353473,0.7810137271881104,0.5982866287231445,-7.86522102355957,7.8628973960876465,-18.88935852050781,-0.0231596902012825,-0.044141411781311,0.0307126473635435,49.404441833496094,2.5455942153930664,-1.2364383935928345,0
20210,0.0473345406353473,0.7810137271881104,0.5982866287231445,-7.86522102355957,7.8628973960876465,-18.88935852050781,-0.0231596902012825,-0.044141411781311,0.0307126473635435,49.404441833496094,2.5455942153930664,-1.2364383935928345,0
20210,0.0473345406353473,0.7810137271881104,0.5982866287231445,-7.86522102355957,7.8628973960876465,-18.88935852050781,-0.0231596902012825,-0.044141411781311,0.0307126473635435,49.404441833496094,2.5455942153930664,-1.2364383935928345,0
20210,0.0473345406353473,0.7810137271881104,0.5982866287231445,-7.86522102355957,7.8628973960876465,-18.88935852050781,-0.0231596902012825,-0.044141411781311,0.0307126473635435,49.404441833496094,2.5455942153930664,-1.2364383935928345,0
