timestamp,acc.x,acc.y,acc.z,gyro.x,gyro.y,gyro.z,stateEstimate.x,stateEstimate.y,stateEstimate.z,stabilizer.roll,stabilizer.pitch,stabilizer.yaw,groundtruth
10825,0.0155071271583437,0.0062753930687904,0.9991706609725952,-0.183268055319786,0.2317972779273986,-0.0150191634893417,-0.0001934883039211,-9.67164960457012e-05,0.0231698583811521,0.3246354162693023,0.9200701713562012,0.3316104114055633,0
10835,0.0188506133854389,0.0059025399386882,0.9976165890693665,0.0175609271973371,-0.2056406438350677,0.04360893368721,0.0004901686334051,-0.0003228898567613,0.0232470799237489,0.3346445560455322,0.8920899033546448,0.3322924971580505,0
10945,0.0169531535357236,0.0063301296904683,0.99713933467865,0.1548561006784439,0.17425237596035,0.0188522823154926,0.0003132444981019,0.0006209432613104,0.0211838986724615,0.3005006015300751,0.9044589400291444,0.3363105356693268,0
10965,0.0148815345019102,0.007437827065587,1.0005584955215454,0.0170625429600477,0.4014961421489715,0.0910926908254623,-0.0001458698970964,-0.0003064715710934,0.0214497745037078,0.3403543829917907,0.9222349524497986,0.3362438082695007,0
10975,0.0160284079611301,0.0071576493792235,0.9996421337127686,0.1133656203746795,-0.3650002181529999,0.2101635485887527,0.0005364043754525,-0.0003012567176483,0.0214239750057458,0.3391575217247009,0.8906721472740173,0.3361931443214416,0
11035,0.0148970251902937,0.0041772457771003,1.0013067722320557,0.0744755268096923,-0.0350902266800403,-0.0890328586101532,7.888922118581831e-05,0.0004128129512537,0.0211415849626064,0.3080340623855591,0.913632869720459,0.3384693264961242,0
11125,0.0166605282574892,0.0048745204694569,1.0002224445343018,0.0583766363561153,-0.1487106084823608,0.0959256067872047,-0.0001428931136615,-0.000298695260426,0.0210676360875368,0.3375404477119446,0.9196214079856871,0.3444911241531372,0
11155,0.0163877662271261,0.0055259391665458,0.9996964335441588,0.1325587332248687,0.0900561064481735,-0.1853685677051544,0.0003123963251709,0.0006129589746706,0.0210328456014394,0.300761342048645,0.9002047777175903,0.3467179536819458,0
11155,0.0163877662271261,0.0055259391665458,0.9996964335441588,0.1325587332248687,0.0900561064481735,-0.1853685677051544,0.0003123963251709,0.0006129589746706,0.0210328456014394,0.300761342048645,0.9002047777175903,0.3467179536819458,0
11245,0.0161048378795385,0.0054789232090115,1.0005367994308472,0.0690244883298873,-0.1342452019453048,0.1104140728712081,6.55801977700321e-06,8.611818338977173e-05,0.0190279390662908,-0.0655253231525421,0.0136271184310317,0.0009613028960302,0
11275,0.0177884381264448,0.0051605622284114,1.001646876335144,0.1649015694856643,0.046871431171894,-0.0677706971764564,0.0001035305394907,0.0002293973666382,0.0200513582676649,-0.0599686838686466,0.0357506945729255,0.0039113573729991,0
11285,0.0150778153911232,0.0060364990495145,1.002111554145813,0.1456558853387832,-0.1243011504411697,0.1238481625914573,0.0001697994011919,0.0002942012506537,0.0200650449842214,-0.058810219168663,0.0363664999604225,0.0044139330275356,0
11405,0.0160440523177385,0.006015517283231,1.0015007257461548,0.0349956080317497,0.0010401890613138,0.2373373806476593,0.0009527004440315,0.0008280543261207,0.0207237228751182,-0.0149707617238163,0.2653679549694061,0.0131879318505525,0
11415,0.0147084509953856,0.0036827439907938,1.0024280548095703,0.1858946084976196,-0.1506044566631317,-0.1495910286903381,0.0009419003617949,-0.0006594722508452,0.0207498166710138,0.4057474732398987,0.3095080256462097,0.0132312485948205,0
11445,0.0159959718585014,0.0054319566115736,1.0015590190887451,-0.0142577113583683,-0.1221961602568626,0.1006874591112136,0.001031921012327,0.0009733096812851,0.0216313060373067,0.0163263212889432,0.3908927142620086,0.0170153081417083,0
11575,0.0156651269644498,0.0047779260203242,1.0018421411514282,-0.0030243538785725,-0.1903551965951919,-0.0144506050273776,0.0008222044561989,0.0009013810777105,0.0226512253284454,0.1711872667074203,0.6546252369880676,0.0249316990375518,0
11595,0.0181826800107955,0.0057889875024557,0.999624729156494,0.0385362394154071,0.1239749044179916,0.0349232703447341,0.0008636318380013,0.000955966534093,0.0230526998639106,0.1786136180162429,0.6813322305679321,0.02457164414227,0
11605,0.0166556499898433,0.0073393620550632,1.000106930732727,0.001858098199591,0.2592827081680298,0.1030006259679794,5.416648036771221e-06,0.0003818109689746,0.0231521874666214,0.2544672787189483,0.7906134128570557,0.0246837064623832,0
11665,0.0183131322264671,0.0057148793712258,0.9999739527702332,0.0515272431075573,0.059906430542469,0.0894942507147789,0.0005233186529949,-0.0010936389444395,0.0215758234262466,0.4266444742679596,0.7596043944358826,0.0258795376867055,0
11735,0.0154155334457755,0.0053982590325176,0.9972552061080932,0.0522786974906921,-0.3490711748600006,0.150682047009468,0.0007002044003456,0.0003269443695899,0.0204054936766624,0.2844504714012146,0.7837168574333191,0.0347274355590343,0
11785,0.0161660909652709,0.006136926356703,1.000599026679993,0.0010992672760039,-0.1829447299242019,0.0853340178728103,0.0007424653158523,5.139841960044578e-06,0.0218531992286443,0.3233385384082794,0.8020606637001038,0.0346885658800601,0
11785,0.0161660909652709,0.006136926356703,1.000599026679993,0.0010992672760039,-0.1829447299242019,0.0853340178728103,0.0007424653158523,5.139841960044578e-06,0.0218531992286443,0.3233385384082794,0.8020606637001038,0.0346885658800601,0
11835,0.0153924450278282,0.0059887710958719,1.001302719116211,0.0388982556760311,0.0770254805684089,-0.0583749078214168,0.0003949991369154,0.0002931708004325,0.0229841154068708,0.3062539100646972,0.8387690782546997,0.0398174338042736,0
11915,0.0153497802093625,0.0070963827893137,0.9989951848983764,0.0658529624342918,-0.0433365330100059,-0.0580452531576156,-0.0002235597203252,0.0002707788371481,0.0217632707208395,0.3135059177875519,0.8867025971412659,0.0444269739091396,0
11925,0.0165756419301033,0.0076365587301552,0.9995768070220948,0.1520126909017563,0.2565772235393524,0.2971785962581634,0.0006527791847474,0.0011423688847571,0.0214726161211729,0.2678234279155731,0.8382258415222168,0.0455898195505142,0
11945,0.0175543557852506,0.0058003040030598,0.9997621178627014,0.144298255443573,-0.1792617589235305,0.2365893870592117,0.0007014441071078,0.001192150870338,0.0214493051171302,0.2689239680767059,0.8381701707839966,0.046705137938261,0
11995,0.015636084601283,0.0064027360640466,0.999305009841919,0.2827577590942383,0.1867177933454513,0.0416560657322406,-0.0002672229311428,0.0002381031372351,0.0216274820268154,0.3230183720588684,0.8939353227615356,0.0483421459794044,0
12075,0.0170853491872549,0.004390197340399,1.0008201599121094,-0.0420395359396934,-0.0905365496873855,0.1223541870713234,0.0002398440556135,0.0007778430008329,0.020814336836338,0.3019658327102661,0.8752128481864929,0.0560682602226734,0
12115,0.0168136041611433,0.005450181197375,1.001883029937744,0.1260202080011367,0.3107383251190185,0.155119314789772,0.0004366151697468,0.0007552457391284,0.0215851720422506,0.3051599562168121,0.8725727200508118,0.0585283897817134,0
12125,0.0179490521550178,0.0062352828681468,1.000775933265686,-0.1849454343318939,0.309298425912857,0.0397353358566761,0.0004366151697468,0.0007552457391284,0.0215851720422506,0.3051599562168121,0.8725727200508118,0.0585283897817134,0
12285,0.0182171519845724,0.00553291849792,0.9978781938552856,0.095959797501564,-0.3671607077121734,0.0963110402226448,0.0004632426425814,0.001060276874341,0.0196475274860858,0.3008291125297546,0.8891774415969849,0.0663743466138839,0
12285,0.0182171519845724,0.00553291849792,0.9978781938552856,0.095959797501564,-0.3671607077121734,0.0963110402226448,0.0004311264783609,-0.0011131822830066,0.0213289521634578,0.3941751420497894,0.8917366862297058,0.0645090267062187,0
12405,0.0174658074975013,0.0055477363057434,0.9995602369308472,-0.0143533563241362,-0.1482436656951904,0.1745834201574325,0.0004376822907943,0.0010349735384806,0.0225150249898433,0.2997380495071411,0.8931064605712891,0.0764121636748313,0
12415,0.0173301715403795,0.0051018903031945,1.0020672082901,0.0036541356239467,0.2408080101013183,0.0670110136270523,0.0004376822907943,0.0010349735384806,0.0225150249898433,0.2997380495071411,0.8931064605712891,0.0764121636748313,0
12455,0.0171234533190727,0.0060842279344797,1.000179886817932,0.1151661649346351,0.0597087144851684,0.0285034775733947,0.0001590846077306,0.0002305636153323,0.021089993417263,0.3336261510848999,0.9008756279945374,0.0789175927639007,0
12465,0.0170583687722682,0.0061238994821906,1.0006202459335327,-0.0360586866736412,0.1548918038606643,-0.0884142071008682,0.0001537224889034,0.0007385016069747,0.0210794862359762,0.3122915625572204,0.9002068042755127,0.0806091427803039,0
12475,0.0173428356647491,0.0055849147029221,0.999888002872467,-0.0961190834641456,0.0411385148763656,-0.0463880188763141,0.0001496406184742,0.0009858979610726,0.0210684724152088,0.3035393059253692,0.8994799256324768,0.0805174112319946,0
12625,0.0179604534059762,0.005828027613461,1.0000187158584597,0.1618337929248809,-0.0840143412351608,0.1371444016695022,0.0003247575077693,0.0007026581442914,0.0206254422664642,0.3131676912307739,0.9046828150749208,0.0881762877106666,0
12715,0.0154242869466543,0.0072914361953735,0.9979062676429749,-0.077946700155735,0.2248039543628692,-0.1343853026628494,0.0002889763854909,-2.852629950211849e-05,0.0231098383665084,0.3383885622024536,0.91598379611969,0.0956863313913345,0
12815,0.0148595534265041,0.0050076027400791,1.0021957159042358,0.0225495006889104,0.0113591738045215,0.1638174057006836,6.707784632453695e-05,0.000700163829606,0.0230050086975097,0.3124445974826813,0.9207636713981628,0.1029043942689895,0
12815,0.0148595534265041,0.0050076027400791,1.0021957159042358,0.0225495006889104,0.0113591738045215,0.1638174057006836,6.707784632453695e-05,0.000700163829606,0.0230050086975097,0.3124445974826813,0.9207636713981628,0.1029043942689895,0
12855,0.0165091920644044,0.0069077736698091,0.9998796582221984,0.1311905533075332,0.2631427943706512,-0.0723347589373588,0.0003027687198482,-6.39949575997889e-05,0.0231498833745718,0.3419975042343139,0.9159862399101256,0.1034984141588211,0
12955,0.0163377579301595,0.004624783527106,1.0012683868408203,0.0647182986140251,-0.0095943855121731,0.2821234464645386,0.0003155729209538,-8.00207708380185e-05,0.0216890834271907,0.3469682335853576,0.9145582318305968,0.1100185140967369,0
12955,0.0163377579301595,0.004624783527106,1.0012683868408203,0.0647182986140251,-0.0095943855121731,0.2821234464645386,0.0003155729209538,-8.00207708380185e-05,0.0216890834271907,0.3469682335853576,0.9145582318305968,0.1100185140967369,0
12995,0.0149741768836975,0.0058567421510815,1.0034714937210083,-0.271744966506958,0.0630816742777824,0.0713905394077301,0.0003677927015814,-9.906892955768852e-05,0.0193752665072679,0.3444911241531372,0.9134085178375244,0.1136357560753822,0
13135,0.0142760053277015,0.0064999847672879,1.001120924949646,-0.0541031248867511,-0.4461226463317871,0.0036648148670792,0.0003208506677765,0.0006697122007608,0.019780708476901,0.3097793161869049,0.903128445148468,0.1189863160252571,0
13245,0.0163183119148015,0.0054943487048149,1.0010982751846311,-0.0352739095687866,-0.0519487150013446,-0.0081731136888265,0.0002966812753584,0.0009046358754858,0.0210496373474597,0.3043102025985718,0.9081586599349976,0.1267536133527755,0
13255,0.0158176980912685,0.0058862855657935,1.001033902168274,0.0173365846276283,-0.0729088932275772,-0.0747122317552566,0.0003106447111349,0.0009373830398544,0.0210749488323926,0.3042140603065491,0.908196985721588,0.1263720542192459,0
13265,0.0184889789670705,0.0063530625775456,1.0000193119049072,-0.1282372921705246,-0.1803182512521743,0.0234679095447063,0.000324831722537,0.0009704703115858,0.0211216490715742,0.304305225610733,0.9088134765625,0.127006709575653,0
13355,0.0147570287808775,0.006204699166119,1.0016838312149048,0.0610354281961917,0.1418254524469375,0.1330806314945221,-0.0005493787466548,0.0001285527396248,0.0231981724500656,0.3388105928897857,0.9462391138076782,0.1345704346895218,0
13395,0.0171263702213764,0.0040258229710161,1.0104738473892212,-0.3713266849517822,1.3197358846664429,-2.170581102371216,-0.0005287912790663,0.000434339774074,0.0226932279765605,0.324665904045105,0.934742271900177,0.1295162886381149,0
13535,0.0130395051091909,-0.005287607666105,0.9814850091934204,0.6203967332839966,0.7250734567642212,1.0018513202667236,-0.0005673898849636,0.0056068492121994,0.0223321784287691,0.1305163502693176,0.8433017730712891,0.0793952643871307,0
13555,0.0054158624261617,-0.0147762736305594,1.0229953527450562,-0.2859348654747009,-1.0093488693237305,1.324256181716919,-0.0010321985464543,0.005892832763493,0.0226133838295936,0.1506357640028,0.8132805228233337,0.0879042074084281,0
13565,0.0017663047183305,0.0003221207880415,1.0397577285766602,-0.7994040250778198,0.5119712352752686,1.5541986227035522,-0.0012825243175029,0.0060324617661535,0.0226672086864709,0.1453046202659607,0.8150648474693298,0.1059182286262512,0
13685,0.0144249247387051,0.0116679277271032,1.0310062170028689,-0.3276848196983337,8.104657173156738,-1.7275662422180176,-0.0013068811967968,0.0065440209582448,0.0253688506782054,0.3000836968421936,0.649318277835846,0.1160580590367317,0
13695,0.0250314008444547,0.0037132969591766,1.034314513206482,-2.273606300354004,3.2911906242370605,-1.5007438659667969,-0.0028561113867908,0.0041394997388124,0.0246743056923151,0.3678745031356811,0.5769118666648865,0.0808796882629394,0
13755,-0.0127264484763145,0.0131114106625318,1.007739543914795,-6.451346397399902,3.766119718551636,2.226747512817383,-0.0005583527963608,-0.0033715649042278,0.0248882640153169,0.630432665348053,0.1065216735005378,0.2435633391141891,0
13845,-0.0013973548775538,0.0089012347161769,1.014577865600586,-11.370954513549805,17.033998489379883,8.225309371948242,0.0070337653160095,-0.0175799056887626,0.0228944923728704,0.6036897301673889,-0.623340904712677,1.0061547756195068,0
13865,0.0041564777493476,-0.0021144060883671,1.0105655193328855,-35.30484390258789,-8.80724048614502,9.726163864135742,0.0076990681700408,-0.0207747127860784,0.0244248230010271,0.1970937550067901,-0.7079472541809082,1.1914165019989014,0
13905,0.0102617256343364,0.0094251092523336,1.068018078804016,-12.78927230834961,-16.137378692626953,5.824361801147461,0.0139819290488958,-0.0261661242693662,0.0246390029788017,-0.7224162817001343,-0.3100708723068237,1.487647294998169,0
13905,0.0102617256343364,0.0094251092523336,1.068018078804016,-12.78927230834961,-16.137378692626953,5.824361801147461,0.0139819290488958,-0.0261661242693662,0.0246390029788017,-0.7224162817001343,-0.3100708723068237,1.487647294998169,0
14015,0.0063606151379644,0.0111446576192975,1.0870040655136108,-0.2276906073093414,-14.65171718597412,-0.0354054942727088,0.0293427649885416,-0.0187128093093633,0.0198256429284811,-2.168828010559082,0.301089733839035,1.793431520462036,0
14035,0.0215145051479339,0.005165952257812,1.0608826875686646,7.900599479675293,-7.584343910217285,0.8679261207580566,0.0301237292587757,-0.0155745325610041,0.0207326859235763,-2.238465547561645,0.562100350856781,1.7915698289871216,0
14185,0.0116735352203249,-0.0126372929662466,1.04388165473938,19.656482696533203,7.0421977043151855,3.675445556640625,0.0314276739954948,0.0125966109335422,0.0337268859148025,0.7467994689941406,1.4802193641662598,2.0576181411743164,0
14215,0.0013611535541713,-0.0101546449586749,0.9792541265487672,6.870656490325928,5.880731105804443,5.03160572052002,0.0300186816602945,0.0154957463964819,0.0372829400002956,1.2433323860168457,1.3309504985809326,2.179553270339966,0
14225,0.0117810955271124,-0.008572407066822,0.9963133335113524,1.1120378971099854,3.4031193256378174,5.22440242767334,0.0298463962972164,0.0164933241903781,0.0399360097944736,1.3005602359771729,1.2825087308883667,2.232334852218628,0
14305,0.0169374793767929,-0.002535380423069,1.028764009475708,10.242992401123049,20.882465362548828,4.542581081390381,0.0269006472080945,0.0218667574226856,0.0515254698693752,1.5068349838256836,1.048396348953247,2.6175405979156494,0
14385,0.0107669671997427,-0.0170556455850601,0.9788944125175476,-7.3925628662109375,-8.039239883422852,-1.78465735912323,0.022011986002326,0.0229052305221557,0.0677319467067718,2.182651996612549,-0.1682637482881546,2.772268772125244,0
14475,0.0118462638929486,0.0094990022480487,1.0041260719299316,-5.656928062438965,22.812620162963867,0.0059527237899601,0.0166002586483955,0.0190723519772291,0.0847635120153427,0.9976003170013428,-0.8669416308403015,2.7202963829040527,0
14555,0.0200319644063711,0.0155055383220314,0.9524579048156738,-17.80897331237793,-12.142626762390137,-0.1300994604825973,0.0160450711846351,0.0155790988355875,0.0950644984841346,0.1381303668022155,-1.3964576721191406,2.7544174194335938,0
14555,0.0200319644063711,0.0155055383220314,0.9524579048156738,-17.80897331237793,-12.142626762390137,-0.1300994604825973,0.0162878148257732,0.0144854793325066,0.0963161885738372,-0.0173460468649864,-1.290155291557312,2.7609610557556152,0
14645,0.0176980681717395,0.004722025245428,1.0290125608444214,-6.974575996398926,-2.544511079788208,-0.4597951769828796,0.0180034674704074,0.0106186019256711,0.1055278405547142,-0.4929116070270538,-1.01957905292511,2.795036792755127,0
14725,-0.00361382891424,0.0083154486492276,1.019079089164734,0.5410231947898865,-6.21610164642334,-0.7028363347053528,0.0202068369835615,0.0084357066079974,0.1178965643048286,-0.9958600997924804,-0.2936590015888214,2.7884981632232666,0
14735,0.0188268963247537,0.0050846938975155,1.0188729763031006,3.5398552417755127,-3.966854095458984,-1.2074614763259888,0.0209842938929796,0.0079766176640987,0.1194674149155616,-0.964722752571106,-0.2598386704921722,2.7832939624786377,0
14915,0.0218347702175378,0.0171342976391315,1.0178191661834717,2.3946757316589355,-0.2720867991447449,-2.375908613204956,0.0306972656399011,0.0063792732544243,0.1527165472507476,-0.670479416847229,0.3412702083587646,2.522226333618164,0
14935,-0.0039417217485606,0.0138513492420315,1.0182273387908936,4.536250591278076,-2.8941261768341064,-2.72529673576355,0.0324422195553779,0.0065326415933668,0.1563952565193176,-0.597126841545105,0.3324079513549804,2.48215389251709,0
14935,-0.0039417217485606,0.0138513492420315,1.0182273387908936,4.536250591278076,-2.8941261768341064,-2.72529673576355,0.0324422195553779,0.0065326415933668,0.1563952565193176,-0.597126841545105,0.3324079513549804,2.48215389251709,0
14985,0.0061428267508745,0.004249794408679,1.023841381072998,2.2729945182800293,-5.294097900390625,-2.239488124847412,0.0342610590159893,0.0074299713596701,0.1664979308843612,-0.3508690297603607,0.5929481983184814,2.3627305030822754,0
15085,0.0026714380364865,-0.0108030587434768,1.0248305797576904,3.69132399559021,-0.2157473415136337,-2.4801650047302246,0.0387828424572944,0.0082149859517812,0.1902643293142318,0.0170172490179538,0.6473091840744019,2.184144258499145,0
15125,0.0056123901158571,-0.0110569903627038,1.011494517326355,0.6244364380836487,1.8617351055145264,-1.8884992599487305,0.0392995961010456,0.0064730904996395,0.2001980245113372,0.1439109593629837,0.713045060634613,2.0829498767852783,0
15135,0.0067975018173456,0.0022123665548861,0.9957216382026672,-1.321645736694336,0.8558516502380371,-1.6158500909805298,0.0394495278596878,0.0047043650411069,0.2027868628501892,0.1912031322717666,0.7088949680328369,2.0630640983581543,0
15175,0.0151185067370533,-0.0223672538995742,1.0395134687423706,0.3998374342918396,2.244779586791992,-1.1319139003753662,0.0409504286944866,0.0022134354803711,0.2132787704467773,0.2301122844219207,0.6194798350334167,2.005411386489868,0
15285,0.0004230683261994,0.0109281362965703,1.0021519660949707,-2.431708574295044,-0.7360014915466309,-0.4579706490039825,0.0439763665199279,-0.005707933101803,0.2430324703454971,0.0901328548789024,0.5902903079986572,1.8412352800369265,0
15315,0.0054395608603954,-0.0059652808122336,0.9817954301834106,-6.852841377258301,3.9850313663482666,-0.4137594401836395,0.0444228611886501,-0.0063229552470147,0.2534356415271759,-0.0999605804681778,0.5562155246734619,1.813115239143372,0
15325,0.0076528890058398,0.0007134914048947,0.9786698818206788,-9.134481430053713,6.749876499176025,-0.0672438219189643,0.0445341505110263,-0.0066766468808054,0.2562002539634704,-0.178055465221405,0.500294029712677,1.8082534074783323,0
15355,0.0025538217741996,-0.0061262594535946,0.9820823073387146,-8.316832542419434,7.29103946685791,-0.383778840303421,0.0446632951498031,-0.0051326807588338,0.2654440999031067,-0.4874729216098785,0.2893014848232269,1.8017634153366089,0
15465,0.011898580007255,0.0047737839631736,0.9949158430099488,-3.606607675552368,4.347623825073242,-0.8012223243713379,0.0429124198853969,-0.0137905580922961,0.2927244007587433,-0.4954078495502472,0.2994084358215332,1.730396032333374,0
15515,0.0017452761530876,-0.0046805851161479,0.9933538436889648,-0.966075599193573,4.897476196289063,-1.9379645586013796,0.0419235415756702,-0.0133255133405327,0.3059169352054596,-0.7201506495475769,0.0601213499903678,1.6681115627288818,0
15515,0.0017452761530876,-0.0046805851161479,0.9933538436889648,-0.966075599193573,4.897476196289063,-1.9379645586013796,0.0420160554349422,-0.0083767585456371,0.3085984289646148,-0.8350183963775635,0.0114250974729657,1.6480913162231443,0
15525,0.0110620139166712,0.0007608196465298,0.9882343411445618,1.5535234212875366,3.639612436294556,-2.0767083168029785,0.0415951833128929,-0.0086046187207102,0.3127058446407318,-0.8341930508613586,-0.0316015072166919,1.627403974533081,0
15535,0.0111535564064979,-0.0028522696811705,1.005128026008606,5.465506076812744,4.074420928955078,-1.5681108236312866,0.0411834008991718,-0.0077362372539937,0.3154478371143341,-0.8040777444839478,-0.0633277595043182,1.6102169752120972,0
15725,-0.0124020827934145,0.0052432888187468,0.9918563961982728,5.216123104095459,2.208038568496704,-1.913290023803711,0.0396782904863357,0.0055559747852385,0.3596429824829101,0.1387765556573867,-0.1563140153884887,1.4150389432907104,0
15725,-0.0124020827934145,0.0052432888187468,0.9918563961982728,5.216123104095459,2.208038568496704,-1.913290023803711,0.0391556285321712,0.0066360412165522,0.3621820509433746,0.1758035570383072,-0.1785833984613418,1.3968905210494995,0
15755,0.0056023737415671,-0.0142372380942106,0.9843525290489196,3.223959922790528,-0.7247263789176941,-2.827052354812622,0.0386808291077613,0.0085042528808116,0.3631728589534759,0.2252362519502639,-0.2270957976579666,1.3462454080581665,0
15755,0.0056023737415671,-0.0142372380942106,0.9843525290489196,3.223959922790528,-0.7247263789176941,-2.827052354812622,0.038617979735136,0.0089020878076553,0.3654618859291076,0.2476688623428344,-0.2323026210069656,1.3179163932800293,0
15785,0.0017718859016895,-0.0189173370599746,1.028110146522522,6.307236194610596,-1.341304063796997,-1.374723196029663,0.0375920608639717,0.0114365341141819,0.372192233800888,0.3768641054630279,-0.1765610873699188,1.2425168752670288,0
15815,0.0024801441468298,-0.0032921007368713,1.0323193073272705,6.61998176574707,0.5644535422325134,-0.842667818069458,0.0375980995595455,0.014111484400928,0.3767889142036438,0.4987275302410126,-0.1697818040847778,1.2209012508392334,0
15815,0.0024801441468298,-0.0032921007368713,1.0323193073272705,6.61998176574707,0.5644535422325134,-0.842667818069458,0.0375901125371456,0.0144272716715931,0.3791092038154602,0.5655472278594971,-0.1785954236984253,1.2126832008361816,0
15885,0.0120939137414097,-0.0069601261056959,1.0029783248901367,2.9826509952545166,-0.4036506414413452,-1.262805461883545,0.0373031757771968,0.0197338573634624,0.3976614773273468,0.8329285979270935,-0.1310164779424667,1.156447172164917,0
16055,0.00804587546736,0.0043682819232344,0.9747845530509948,5.075246334075928,-0.9931748509407043,-1.1707978248596191,0.0371999815106391,0.034190010279417,0.4402050375938415,1.1887812614440918,-0.0038513839244842,0.8705672025680542,0
16065,-0.0035470104776322,-0.0051710945554077,0.9756869077682496,4.147209644317627,0.6352217197418213,-0.6147090196609497,0.0372304767370224,0.0365742780268192,0.4427237510681152,1.207909345626831,-0.0023967607412487,0.859743058681488,0
16105,0.0019647770095616,-0.0069805616512894,0.9701189398765564,-3.587372303009033,3.2125794887542725,-0.378670871257782,0.0372666791081428,0.0374579168856143,0.4521552324295044,1.2134672403335571,-0.0612294673919677,0.8310697078704834,0
16105,0.0019647770095616,-0.0069805616512894,0.9701189398765564,-3.587372303009033,3.2125794887542725,-0.378670871257782,0.0372666791081428,0.0374579168856143,0.4521552324295044,1.2134672403335571,-0.0612294673919677,0.8310697078704834,0
16235,0.0147855104878544,-0.0145672122016549,0.9492329359054564,-2.716951370239258,-0.793384313583374,-2.4418604373931885,0.0362465903162956,0.0413515344262123,0.4838114082813263,0.9352468848228456,-0.0593571737408638,0.710258424282074,0
16255,0.0130633739754557,-0.0093151368200778,0.9311701655387878,-6.562860488891602,0.1901885569095611,-2.6462409496307373,0.0361259579658508,0.0419121272861957,0.4878237843513489,0.8705335855484009,-0.0431476235389709,0.6650863885879517,0
16275,0.0096566099673509,-0.0121785160154104,0.9376304149627686,-9.17827320098877,1.5567750930786133,-2.2665855884552,0.0372949801385402,0.0427379570901393,0.4926360547542572,0.6639460325241089,-0.0683081150054931,0.5979089140892029,0
16395,0.0014408099232241,-0.0240620579570531,0.9650567173957824,0.3235176205635071,1.8291380405426023,-1.5096592903137207,0.0375604480504989,0.0434655211865901,0.5073835253715515,0.3884417116641998,0.0389449037611484,0.4225814938545227,0
16415,0.0028851742390543,-0.0058752447366714,0.9586033225059508,-1.4382599592208862,1.526819944381714,-0.6057971715927124,0.0320697128772735,0.0415072180330753,0.509448766708374,0.3638775944709778,0.0438206009566783,0.3996995985507965,0
16505,0.0141601227223873,-0.0039835828356444,0.9754404425621032,-3.941909313201904,-0.7718179821968079,1.1488243341445925,0.0395620577037334,0.0459480509161949,0.5171027183532715,0.0155264381319284,-0.083979032933712,0.4262866377830505,0
16575,0.0064948364160954,-0.0115775661543011,0.9901662468910216,-1.1607372760772705,-0.7356590032577515,1.412019968032837,0.0388150848448276,0.0486479997634887,0.5193986296653748,-0.0296106617897748,-0.0020221450831741,0.5097480416297913,0
16675,0.0026864958927035,-0.002680879086256,0.991374373435974,-0.9676207900047302,-0.1463934332132339,0.3351199328899383,0.0409317500889301,0.0364926643669605,0.5286924242973328,-0.1931973397731781,0.1332809329032898,0.5811800956726074,0
16745,0.0053347656503319,-0.0147811723873019,0.990257978439331,-2.082403421401977,1.294113039970398,0.0037610770668834,0.0356724970042705,0.0272813811898231,0.534473180770874,-0.236215278506279,0.0662495568394661,0.5645291805267334,0
16835,0.0024527085479348,-0.0060879145748913,0.9788315892219543,-0.9007017016410828,1.048617243766785,0.8445539474487305,0.0368018820881843,0.0255648344755172,0.5357934236526489,-0.3655882179737091,0.0533954761922359,0.5836443901062012,0
16865,0.0118734296411275,-0.0212845392525196,0.978208303451538,0.226171463727951,2.559288501739502,0.3765595853328705,0.0356103517115116,0.0281181428581476,0.5371966361999512,-0.3990141749382019,0.0379361435770988,0.5981937646865845,0
16985,0.0091427927836775,-0.0135697862133383,0.990281105041504,0.2813918888568878,-1.3219889402389526,-0.200619027018547,0.0350956656038761,0.030859962105751,0.541643500328064,-0.3987254500389099,-0.0223036836832761,0.7145782113075256,0
17005,-0.0033375709317624,-0.0069958348758518,1.008457064628601,2.287262439727783,-0.5139746069908142,-0.5569816827774048,0.0349980369210243,0.0320641472935676,0.5407494902610779,-0.3704089522361755,0.0029582947026938,0.7065003514289856,0
17025,0.0096156150102615,-0.0095912972465157,1.004229187965393,1.1876260042190552,0.5814040303230286,-1.4303114414215088,0.0365686789155006,0.033641517162323,0.5411261916160583,-0.3449566066265106,-0.007830349728465,0.6831181049346924,0
17035,0.0013649608008563,-0.0036159772425889,0.9933266639709472,0.7509515285491943,1.4534968137741089,-1.4658567905426023,0.0365686789155006,0.033641517162323,0.5411261916160583,-0.3449566066265106,-0.007830349728465,0.6831181049346924,0
17165,-0.0030347113497555,-0.0103556411340832,1.00642991065979,2.9909660816192627,-1.8727524280548096,0.0130001520738005,0.0352368466556072,0.0453940778970718,0.5365453958511353,0.1009293422102928,-0.038029670715332,0.6261431574821472,0
17185,0.0044506811536848,-0.0140808383002877,1.0083717107772827,2.4457507133483887,-1.846543312072754,-0.6483876705169678,0.0363876335322856,0.0468850433826446,0.539559543132782,0.1916023194789886,-0.0075040995143353,0.6193973422050476,0
17185,0.0044506811536848,-0.0140808383002877,1.0083717107772827,2.4457507133483887,-1.846543312072754,-0.6483876705169678,0.0363876335322856,0.0468850433826446,0.539559543132782,0.1916023194789886,-0.0075040995143353,0.6193973422050476,0
17245,0.0013874444412067,-0.0152232609689235,1.0067803859710691,5.186905860900879,2.595414400100708,-1.7688933610916138,0.0334617607295513,0.0503052286803722,0.542722761631012,0.4535242021083832,-0.0708319023251533,0.5441420674324036,0
17335,0.0049237492494285,-0.0066539430990815,0.9963136911392212,1.0058411359786987,-4.220677852630615,-1.2710232734680176,0.0332176685333251,0.0586361102759838,0.5443186163902283,0.3234712779521942,-0.0354433208703994,0.4223625063896179,0
17385,0.0136830685660243,-0.0056727509945631,0.9864239692687988,3.919158935546875,-0.7913870215415955,-0.157475546002388,0.0336552821099758,0.063260331749916,0.543923556804657,0.52444988489151,0.0861155837774276,0.3763344883918762,0
17455,0.0099717956036329,-0.0048948507755994,0.9955354332923888,-2.751672744750977,0.7895768880844116,-1.016995549201965,0.0339068993926048,0.0686740577220916,0.5479291081428528,0.4522852301597595,0.0122153544798493,0.3149421513080597,0
17475,-0.0054272972047328,-0.0016767611959949,0.9975518584251404,0.8351877927780151,-0.7463876605033875,-0.4073837995529175,0.0338841378688812,0.0691664740443229,0.5500712990760803,0.4312090873718261,0.0005025721620768,0.3008986413478851,0
17645,0.0043522780761122,-0.0098301637917757,0.9793787598609924,-1.4120233058929443,-0.3064453601837158,-0.8191891312599182,0.0356649309396743,0.0740787610411644,0.5521195530891418,0.6266136765480042,-0.0544338077306747,0.1322240382432937,0
17665,0.0062980931252241,-0.0194308143109083,0.9840902090072632,-2.014629602432251,2.734023332595825,-0.7983757257461548,0.0336595736443996,0.0744037181138992,0.55206698179245,0.5925024747848511,-0.0577861852943897,0.1138277649879455,0
17675,0.0039411876350641,-0.0171861480921506,0.9965869188308716,-1.4819657802581787,2.138925552368164,-0.5175021290779114,0.0336429104208946,0.0744982287287712,0.5520168542861938,0.5758808851242065,-0.0827337875962257,0.1062943488359451,0
17815,-0.0077911801636219,0.0113475462421774,1.0095051527023315,-4.669512271881104,-0.236428365111351,-1.4755103588104248,0.0335323214530944,0.0755945146083831,0.5494827628135681,0.4102468192577362,-0.1185701861977577,0.0605194084346294,0
17825,0.0059818867594003,-0.0085815619677305,0.996254563331604,-4.573513031005859,-1.402274250984192,-1.4184597730636597,0.0335374139249324,0.0755617022514343,0.54719477891922,0.3670047223567962,-0.1162723302841186,0.0442278757691383,0
17835,0.0016452850541099,-0.0036341964732855,1.0001041889190674,-4.479647159576416,-2.1919994354248047,-1.4330954551696775,0.0335542038083076,0.0754960104823112,0.5468417406082153,0.283090740442276,-0.0944081842899322,0.0150625202804803,0
17975,0.0037590651772916,0.0024680795613676,1.0070830583572388,-4.589057922363281,-2.616910457611084,-0.2852175235748291,0.0370016321539878,0.072041779756546,0.5456095337867737,-0.1678249835968017,0.093541070818901,-0.0847377851605415,0
17995,-0.0051063201390206,-0.000102126483398,1.015626311302185,-4.040152072906494,-0.9835679531097412,-0.9479063153266908,0.0449305400252342,0.0734714493155479,0.5453965663909912,-0.2264763116836547,0.0736179277300834,-0.0889134332537651,0
18045,0.0074525191448628,0.0127719184383749,1.0038256645202637,-2.2172210216522217,-2.360079050064087,-1.504755616188049,0.0389391966164112,0.0728392675518989,0.5393911600112915,-0.3600151836872101,0.2065207809209823,-0.1386926770210266,0
18145,0.0072893728502094,-0.002186378929764,1.004204034805298,3.8729422092437744,-2.787802457809448,-1.0554141998291016,0.0337751843035221,0.0789928063750267,0.5446043610572815,-0.2750304341316223,0.2412551343441009,-0.2542639970779419,0
18185,-0.0016553974710404,-0.0144007010385394,1.012143611907959,6.353681564331055,0.7627118825912476,-0.2221944630146026,0.0389939025044441,0.0825737789273262,0.5410643815994263,-0.0801987200975418,0.2669838368892669,-0.2815425395965576,0
18325,0.0120849618688225,0.0027972364332526,1.005794644355774,2.2235093116760254,-2.125624418258667,0.2453799694776535,0.0354006066918373,0.092247188091278,0.5395417809486389,0.4263933002948761,-0.1523178368806839,-0.2422893345355987,0
18335,0.0110797528177499,-0.020527496933937,1.005102276802063,0.6162692904472351,-2.023836612701416,0.0521740168333053,0.035066332668066,0.0939859077334404,0.5381603837013245,0.4393234848976135,-0.1415840089321136,-0.2355632930994033,0
18345,-0.0078801019117236,-0.0382032245397567,1.0333185195922852,-0.6927750706672668,-2.808157444000244,0.0917154401540756,0.0338269248604774,0.0962293744087219,0.538063645362854,0.4382343590259552,-0.0871695876121521,-0.2346417754888534,0
18465,0.004181386437267,-0.0038410371635109,1.0011638402938845,-0.5756492614746094,5.264410018920898,-0.843194305896759,0.0335609577596187,0.1004453897476196,0.546166718006134,0.3902314603328705,-0.047227144241333,-0.2729097902774811,0
18545,0.0050223232246935,-0.0088079180568456,0.9796656966209412,3.5077433586120605,-1.4656264781951904,-0.8546750545501709,0.0319092236459255,0.103534497320652,0.5479707717895508,0.3723768889904022,-0.1644826829433441,-0.3509381711483001,0
18555,0.0033585994970053,0.0013612603070214,0.9716845154762268,3.5250816345214844,0.5524535775184631,-0.7006945013999939,0.0319092236459255,0.103534497320652,0.5479707717895508,0.3723768889904022,-0.1644826829433441,-0.3509381711483001,0
18695,0.0058638583868741,-0.003416784806177,0.9621541500091552,-4.75705099105835,0.0730677023530006,-1.2544554471969604,0.0269714444875717,0.108530007302761,0.5488173365592957,0.3356097936630249,-0.1074556931853294,-0.5113162398338318,0
18715,0.0023839171044528,-0.0074340542778372,0.9741573333740234,-4.467589855194092,2.8183376789093018,-0.5966373085975647,0.0267986208200454,0.1087324470281601,0.5483513474464417,0.2107555121183395,-0.1456451416015625,-0.5444393754005432,0
18755,0.0027295101899653,-0.0091889044269919,1.008357286453247,0.8619915843009949,-1.6163655519485474,-0.6862865090370178,0.0265939719974994,0.1089627370238304,0.5467108488082886,0.1431992650032043,-0.1934919506311416,-0.5689186453819275,0
18865,0.0062708011828362,0.0114810280501842,1.0064796209335327,-3.540692090988159,-1.2833614349365234,-0.7545619010925293,0.0297408923506736,0.1128030195832252,0.5399725437164307,0.3113935589790344,-0.0092620532959699,-0.6376048922538757,0
18885,0.0041678813286125,-0.0062307175248861,1.0186415910720823,-6.406744480133057,-0.361481636762619,-0.7401500344276428,0.0315153934061527,0.1130236908793449,0.5328385233879089,0.1930938959121704,0.0208041314035654,-0.6517440676689148,0
18995,-0.004381725564599,-0.015137055888772,1.0447568893432615,-1.5424532890319824,-6.310594081878662,-0.8997799754142761,0.0314213931560516,0.1126388236880302,0.5323951244354248,0.2140417844057083,0.1331472843885421,-0.7001208662986755,0
19055,0.0037599543575197,0.0102008311077952,1.0572848320007324,-1.780480980873108,3.0792407989501958,-0.3523924052715301,0.0362183339893817,0.1108557432889938,0.5329419374465942,-0.0496131591498851,0.2119172215461731,-0.7429088354110718,0
19065,0.0046912697143852,0.0091741317883133,1.0304633378982544,0.0955595150589943,3.336747646331787,-0.7067010402679443,0.0370921678841114,0.1125934422016143,0.5331399440765381,-0.066368244588375,0.1679007411003112,-0.7515368461608887,0
19175,0.0082729402929544,-0.0190913639962673,0.9914997220039368,-5.42216682434082,6.463496685028076,-0.7916262745857239,0.035827413201332,0.1143637746572494,0.5379469394683838,0.0343396253883838,0.3467344045639038,-0.8859385848045349,0
19195,0.0035839213524013,-0.0162929911166429,1.0005600452423096,1.515634536743164,8.18529224395752,0.2659074068069458,0.0384553521871566,0.1154788583517074,0.5395951271057129,-0.0708879679441452,0.2070971876382827,-0.9009215235710144,0
19245,0.0136612728238105,0.0034363134764134,0.9665555357933044,5.094801425933838,-3.700806379318237,0.5060057044029236,0.0339226499199867,0.1195292398333549,0.5395883917808533,0.1389313787221908,0.07380061596632,-0.9020814895629884,0
19345,0.0064478674903512,0.0050089829601347,0.972631573677063,3.419158935546875,4.336658000946045,0.5749008059501648,0.0375060588121414,0.1197996586561203,0.5424076318740845,0.0919971391558647,-0.0286894682794809,-0.8779149651527405,0
19365,-0.0017721770564094,-0.0167461317032575,0.989790678024292,3.410770893096924,-0.736286461353302,0.1258269399404525,0.0334772728383541,0.1192352101206779,0.5426188111305237,0.1696029007434845,-0.0886944010853767,-0.8705261945724487,0
19455,0.0129263959825038,-0.0061581186018884,1.0001792907714844,0.4557295441627502,1.2417361736297607,-0.0191365089267492,0.0361072719097137,0.124728187918663,0.5419212579727173,0.0865812450647354,0.1349345743656158,-0.8601081967353821,0
19465,0.0027992317918688,-0.0133667532354593,1.013831377029419,3.045792818069458,3.362361192703247,0.2156547904014587,0.0387496314942836,0.1241168677806854,0.5419179201126099,0.1164890453219413,0.0937919020652771,-0.8582802414894104,0
19525,0.013473430648446,-0.0108898151665925,0.9715394377708436,1.7678414583206177,-1.0238256454467771,-0.0193905681371688,0.0363237038254737,0.1287650614976883,0.5403395891189575,0.307484894990921,0.0344741716980934,-0.8599228262901306,0
19635,0.0033468250185251,-0.0060265003703534,1.0231457948684692,4.67877197265625,1.2599081993103027,0.7320663928985596,0.0374724492430686,0.129060611128807,0.5410940051078796,0.0701207965612411,-0.0533357597887516,-0.8320492506027222,0
19715,0.0078642228618264,-0.011835322715342,0.9865703582763672,-3.431605577468872,-1.590070366859436,0.6675342917442322,0.0389915779232978,0.1313285231590271,0.5424458980560303,0.3948889374732971,-0.0061723631806671,-0.7861790060997009,0
19875,0.0044718808494508,-0.0109801888465881,0.9926076531410216,-1.2410132884979248,0.5082845091819763,1.0742818117141724,0.0362786352634429,0.1366965472698211,0.5339282155036926,0.1648560017347335,-0.1308570206165313,-0.6550055742263794,0
19875,0.0044718808494508,-0.0109801888465881,0.9926076531410216,-1.2410132884979248,0.5082845091819763,1.0742818117141724,0.0362786352634429,0.1366965472698211,0.5339282155036926,0.1648560017347335,-0.1308570206165313,-0.6550055742263794,0
19895,0.0082941679283976,-0.0084629748016595,1.0163378715515137,1.865958571434021,-1.7599586248397827,2.024315595626831,0.0383056290447711,0.1362325400114059,0.5334534645080566,0.1721876114606857,-0.1154320612549781,-0.6438102126121521,0
20035,0.0051335366442799,0.0019424083875492,1.0317128896713257,1.5137007236480713,-1.837726354598999,0.7484269142150879,0.0428694449365139,0.1382340937852859,0.5284706950187683,0.0611200258135795,0.0766926556825637,-0.5598033666610718,0
20055,0.0133946621790528,-0.0101604722440242,1.0120724439620972,4.0648040771484375,-4.09689998626709,0.8513875007629395,0.0453043319284915,0.1373998671770095,0.5296624302864075,0.1556138098239898,0.1586574614048004,-0.5393211841583252,0
20155,-0.0019874591380357,-0.0032397513277828,1.0054001808166504,-1.182857632637024,-0.0277965310961008,1.1720949411392212,0.0483562424778938,0.1421617418527603,0.529251754283905,0.2050102800130844,0.041961695998907,-0.4434902369976043,0
20235,-0.0037579934578388,-0.0029864110983908,0.9936723113059998,0.836817741394043,-1.1346250772476196,0.9983767867088318,0.0482842773199081,0.1450523734092712,0.5262759327888489,0.0323324725031852,0.3801597952842712,-0.3502034842967987,0
20245,0.002799529582262,-0.0105718318372964,1.0173754692077637,1.7426047325134275,-0.9891504645347596,0.6604384779930115,0.0482842773199081,0.1450523734092712,0.5262759327888489,0.0323324725031852,0.3801597952842712,-0.3502034842967987,0
20255,0.0105617465451359,-0.0145829692482948,1.0220569372177124,3.7957355976104736,0.6623452305793762,0.8106175661087036,0.0482012666761875,0.1417070031166076,0.5262595415115356,0.0682292580604553,0.3887432515621185,-0.3440569043159485,0
20405,0.0116159124299883,-0.0034203103277832,0.9783976674079896,0.4882517755031585,3.9324655532836914,0.6903175115585327,0.0447169095277786,0.157912015914917,0.5344334244728088,0.3919809758663177,-0.1848311126232147,-0.2257429957389831,0
20425,0.0114478329196572,0.0021723809186369,0.9882290959358216,-3.204392910003662,-0.3611089289188385,0.2459736913442611,0.0446668975055217,0.1582118570804596,0.5348327159881592,0.3457576334476471,-0.1858851015567779,-0.2141248136758804,0
20575,0.0111552700400352,-0.0096881929785013,0.9719262719154358,-2.4634835720062256,0.92702716588974,0.0725361853837966,0.0420461483299732,0.1566874980926513,0.5327665209770203,0.1951949298381805,-0.0983451828360557,-0.204062208533287,0
20575,0.0111552700400352,-0.0096881929785013,0.9719262719154358,-2.4634835720062256,0.92702716588974,0.0725361853837966,0.0422923527657985,0.1601994037628173,0.5323905348777771,0.1450240463018417,-0.1168030053377151,-0.2046661078929901,0
20595,0.0087634613737463,-0.0090459827333688,0.984991490840912,-3.427271842956543,1.2104398012161257,0.3941437602043152,0.0421714931726455,0.157845064997673,0.5315750241279602,0.0880023837089538,-0.1318880170583725,-0.2035673409700393,0
20605,0.0043259956873953,-0.0118167931213974,0.9864081740379332,-1.3486019372940063,-1.4256784915924072,-0.249228298664093,0.0443121008574962,0.1578628122806549,0.5311447381973267,0.0743881464004516,-0.1298815160989761,-0.2048135697841644,0
20745,0.0108665293082594,0.014785292558372,1.0153381824493408,1.592027187347412,-1.8125536441802976,0.3662034869194031,0.0436669811606407,0.1703092902898788,0.5253419876098633,0.229815736413002,-0.2419973015785217,-0.2038541138172149,0
20755,0.0090132802724838,0.002767325611785,1.009667992591858,1.915189743041992,-1.89973247051239,0.1463527679443359,0.0436669811606407,0.1703092902898788,0.5253419876098633,0.229815736413002,-0.2419973015785217,-0.2038541138172149,0
20775,-0.0115466015413403,-0.0186096876859664,1.036730408668518,-1.1382813453674316,-4.891043186187744,-0.5390594601631165,0.0456098765134811,0.1704527884721756,0.5247493982315063,0.2466559708118438,-0.1863239705562591,-0.2049617618322372,0
20865,0.0099783828482031,-0.0051090032793581,1.0426480770111084,-3.0973079204559326,-2.5768628120422363,-1.5984424352645874,0.0561937242746353,0.1710260510444641,0.524478018283844,0.2042089402675628,0.1225376576185226,-0.3028199076652527,0
20935,0.0088702114298939,0.0176094640046358,0.9874086976051332,4.176731586456299,-1.0236726999282837,-1.064215898513794,0.0566364377737045,0.1740335822105407,0.5262508392333984,0.2972554862499237,0.1869992315769195,-0.4107890725135803,0
20995,0.0053934976458549,-0.0018496682168915,0.9950659275054932,0.4340700507164001,-5.3419575691223145,-1.1283735036849976,0.0631529837846756,0.1769793629646301,0.5257447361946106,0.4480889439582824,0.2417726963758468,-0.4887134432792663,0
21125,-0.0008424202096648,-0.0201657116413116,1.0267292261123655,1.3466920852661133,2.780550241470337,1.5903220176696775,0.0671467557549476,0.1697949916124344,0.5231127738952637,0.1608055382966995,0.3159928917884826,-0.5214740633964539,0
21145,0.0058179632760584,0.0018663833616301,0.9920734167099,1.4667408466339111,-2.2216010093688965,1.3147268295288086,0.0637533739209175,0.1722076833248138,0.5250706672668457,0.1733430474996566,0.3123557269573211,-0.4921013414859772,0
21195,0.0033994866535067,-0.0017158006085082,0.9914528131484984,-2.04732084274292,1.935479760169983,1.1367582082748413,0.0684638395905494,0.1761454194784164,0.5236226320266724,0.1329807341098785,0.3768594861030578,-0.4069888591766357,0
21205,-0.0003863534075208,-0.0129408258944749,0.988511323928833,-1.6761077642440796,3.130872964859009,0.8720088005065918,0.0685743689537048,0.176130473613739,0.5236040353775024,0.1123351380228996,0.3499287664890289,-0.3962422609329223,0
21335,0.0098130265250802,-0.0008491086191497,0.9942404627799988,-4.1494903564453125,2.623051166534424,1.3081214427947998,0.0639662444591522,0.1769032031297683,0.5239838361740112,-0.0132118118926882,0.2129828631877899,-0.2581959664821625,0
21355,0.0005501112900674,-0.0031583937816321,1.0084891319274902,-2.180874347686768,1.6018918752670288,1.5124799013137815,0.0645010992884635,0.1749081462621688,0.525134801864624,-0.0663767755031585,0.1770111471414566,-0.2287445962429046,0
21455,0.0046897465363144,-0.0068635954521596,0.9979244470596312,-0.0318700857460498,-0.4242316782474518,0.125671312212944,0.062665082514286,0.1769480407238006,0.5228809714317322,-0.0619393996894359,0.1511876285076141,-0.1475566923618316,0
21515,0.0019529996206983,0.0011573787778615,0.975007712841034,0.658303439617157,3.839711427688599,0.2993119060993194,0.0691088363528251,0.1792550683021545,0.521696925163269,-0.0915338844060897,-0.0967920422554016,-0.1225269064307212,0
21525,0.0053982003591954,-0.0054103825241327,0.9802775382995604,0.6758172512054443,3.615542411804199,0.4206330776214599,0.0691088363528251,0.1792550683021545,0.521696925163269,-0.0915338844060897,-0.0967920422554016,-0.1225269064307212,0
21665,0.012831593863666,-0.0234269015491008,1.012948989868164,1.6277192831039429,0.321534126996994,0.3420179486274719,0.0673521012067794,0.1874733120203018,0.5192902684211731,0.0389688424766063,-0.1438720822334289,-0.0436559356749057,0
21685,0.0040172622539103,-0.0046050208620727,1.0159920454025269,3.827864408493042,-3.622068405151367,-0.0682690143585205,0.0671940594911575,0.1896323263645172,0.5201540589332581,0.1246007606387138,-0.0935572683811187,-0.0314315184950828,0
21775,-0.0075690005905926,0.0081200525164604,1.0155377388000488,3.914689064025879,-0.5951022505760193,-0.4235563278198242,0.070358507335186,0.1987051218748092,0.5200920701026917,0.4669632017612457,0.1613108515739441,-0.031650923192501,0
21835,0.0124208750203251,0.0005965687450952,1.0001543760299685,-2.0866661071777344,-2.727377414703369,-0.5672017931938171,0.0701202973723411,0.202541097998619,0.5226166844367981,0.5482717156410217,0.2290420234203338,-0.0631593391299247,0
21845,0.0057301283814013,-0.0031534363515675,1.0032864809036257,-3.400505304336548,-1.4288928508758545,-1.0105924606323242,0.0719673559069633,0.2008061110973358,0.522803544998169,0.5245591402053833,0.2346896082162857,-0.0733777433633804,0
21945,-0.0030392208136618,0.0095850164070725,0.9941898584365844,-0.4613346755504608,3.189238786697388,-1.485257863998413,0.0688652247190475,0.2034954577684402,0.5205813646316528,0.4257046282291412,0.0232542157173156,-0.2056415975093841,0
22005,0.0033191754482686,-0.0132597908377647,1.0060276985168457,-1.8387556076049805,-1.749278903007507,0.0124675277620553,0.0668476298451423,0.20645572245121,0.5220917463302612,0.3522081673145294,-0.0172917824238538,-0.2191106230020523,0
22105,0.0138161126524209,-0.0021655661985278,0.9944312572479248,1.4624139070510864,0.9406904578208924,0.3574405610561371,0.066470168530941,0.2072080373764038,0.5192024111747742,0.4521512985229492,0.0171188078820705,-0.1827012300491333,0
22165,0.0044675162062048,-0.0019361828453838,1.010708570480347,-5.044400215148926,1.602527379989624,0.3523804247379303,0.063684232532978,0.2089227885007858,0.5192430019378662,0.2323387116193771,-0.0081330509856343,-0.1535025835037231,0
22265,0.0102142840623855,0.0075671458616852,1.0067647695541382,-0.7923287749290466,-0.9348283410072328,1.0809890031814575,0.0606338493525981,0.2086740285158157,0.519130527973175,0.2493556290864944,-0.1679584980010986,-0.0853312984108924,0
22335,0.0074818031862378,0.0037571878638118,0.9897220134735109,0.2641821503639221,0.2267643809318542,1.1363909244537354,0.0603602081537246,0.2091015130281448,0.5226863622665405,0.1490560919046402,-0.1653658151626587,-0.0002343287342227,0
22335,0.0074818031862378,0.0037571878638118,0.9897220134735109,0.2641821503639221,0.2267643809318542,1.1363909244537354,0.060293860733509,0.2090693712234497,0.5228571891784668,0.161382719874382,-0.1763600707054138,0.0085778338834643,0
22435,0.0121749201789498,-0.0049199955537915,0.9625707864761353,-3.678932428359986,2.3611347675323486,1.4856243133544922,0.0606162175536155,0.2098163366317749,0.5227140784263611,0.1764851212501526,-0.2643598020076751,0.0793917849659919,0
22505,0.009526215493679,-0.0018943028990179,0.9891729950904846,0.2261383384466171,-3.0456230640411377,0.9531216621398926,0.0597768239676952,0.2109816223382949,0.5237335562705994,0.0450176186859607,-0.2454928904771804,0.1554629951715469,0
22505,0.009526215493679,-0.0018943028990179,0.9891729950904846,0.2261383384466171,-3.0456230640411377,0.9531216621398926,0.059762243181467,0.2109654396772384,0.5212926864624023,0.0457689128816127,-0.2107981294393539,0.1649128347635269,0
22515,0.0206080488860607,0.0015475037507712,0.9953573346138,0.4392465949058532,-3.3016586303710938,1.0493063926696775,0.0597637072205543,0.2109242528676986,0.5210117101669312,0.0488411709666252,-0.1767753511667251,0.1744696944952011,0
22655,0.0022180113010108,-0.0018917312845587,0.9831313490867616,1.6928565502166748,-4.683521270751953,0.2092873305082321,0.0726422816514968,0.212985098361969,0.52326899766922,0.0815037190914154,0.1280305236577987,0.2602076530456543,0
22675,0.0080575086176395,-0.0055016214028,1.0113859176635742,1.2924108505249023,-3.912869453430176,0.3927670121192932,0.0744005590677261,0.2128436267375946,0.5203819274902344,0.1030446738004684,0.2046313136816024,0.2675322592258453,0
22845,0.001262713340111,-0.0105323176831007,1.0146353244781494,-2.3888378143310547,0.1437224894762039,-0.381818413734436,0.0807031989097595,0.2212268114089965,0.512497067451477,0.1759018003940582,0.5049558281898499,0.2659148573875427,0
22895,0.0129023604094982,0.0090122586116194,1.026227355003357,2.270171642303467,1.9359484910964968,0.1216089054942131,0.0814691707491874,0.2224575579166412,0.511626660823822,0.2014990001916885,0.4528798758983612,0.2517522871494293,0
22955,0.008652308024466,0.0099596567451953,1.0204474925994873,-2.192737102508545,1.7550902366638184,0.0337686836719512,0.0820745602250099,0.2276137769222259,0.5132487416267395,0.2491367161273956,0.3100759387016296,0.2264481037855148,0
23025,0.0112502202391624,-0.008872602134943,1.0053075551986694,-0.0215607713907957,1.6295170783996582,-0.0493024848401546,0.080056756734848,0.2225836813449859,0.5169081091880798,0.1849471926689148,0.1446994692087173,0.2321680188179016,0
23025,0.0112502202391624,-0.008872602134943,1.0053075551986694,-0.0215607713907957,1.6295170783996582,-0.0493024848401546,0.0801020041108131,0.2226196080446243,0.5140679478645325,0.1844182312488556,0.1276081502437591,0.2343871593475341,0
23125,0.0151977520436048,-0.0041324272751808,1.0086066722869873,-0.0820721089839935,-0.1277833133935928,0.9277904629707336,0.0808293148875236,0.2235862910747528,0.5157217979431152,0.027500431984663,0.053854402154684,0.2648116648197174,0
23185,0.0010683905566111,-0.0126551054418087,0.9998010993003844,0.6119915843009949,-1.1469087600708008,0.3896166384220123,0.0778148919343948,0.2271892726421356,0.5178205966949463,-0.0096989404410123,0.0985157936811447,0.2872288823127746,0
23195,0.0037912323605269,-0.0020454989280551,0.999369204044342,1.5848181247711182,-0.3765572011470794,0.3159310221672058,0.0777620002627372,0.2272331267595291,0.5161219239234924,0.0025605303235352,0.1005462408065795,0.2895945906639099,0
23345,0.0162118338048458,-0.0124994004145264,0.987318992614746,3.778031587600708,-0.7746772170066833,0.588139533996582,0.0774862021207809,0.2391224652528762,0.5197712779045105,0.120782233774662,0.0828928127884864,0.3367699384689331,0
23365,0.0049198237247765,-0.018159007653594,0.9905027747154236,3.281151294708252,-2.003563404083252,0.355189710855484,0.0774224773049354,0.2392828166484832,0.5198349356651306,0.1581288874149322,0.1038956120610237,0.338837593793869,0
23415,0.0075206877663731,0.0215563885867595,0.971781611442566,1.6571757793426514,1.260195016860962,-0.3633092045783996,0.0802525803446769,0.2464005202054977,0.5169239640235901,0.2676468789577484,0.1200839206576347,0.3200117647647857,0
23525,0.0024497732520103,0.0005678132292814,1.0187207460403442,-0.7443071603775024,-1.2778128385543823,1.3273411989212036,0.078261487185955,0.2509075701236725,0.5155351758003235,0.5576900839805603,-0.0731245651841163,0.4150581955909729,0
23545,0.0116755235940217,-0.0052770776674151,1.0029082298278809,0.338843822479248,-0.1570478677749633,1.2538892030715942,0.0782122313976287,0.2511221766471863,0.5140848159790039,0.5621536374092102,-0.0660686194896698,0.4315157532691955,0
23545,0.0116755235940217,-0.0052770776674151,1.0029082298278809,0.338843822479248,-0.1570478677749633,1.2538892030715942,0.0781595408916473,0.2512802183628082,0.5139245986938477,0.5651450753211975,-0.0576992407441139,0.4444943368434906,0
23685,0.0161667130887508,-5.2302897529443726e-05,0.9999834895133972,-1.9800344705581665,0.0090075777843594,-0.2342914789915084,0.0763053447008133,0.250635951757431,0.5168499946594238,0.5242310166358948,-0.1688456982374191,0.4869027137756347,0
23705,0.0008580940193496,-0.0001402673951815,0.9848263263702391,-3.516866445541382,0.3574720323085785,-0.2148921340703964,0.0827126502990722,0.2518397569656372,0.5170686841011047,0.4268088638782501,-0.2279233932495117,0.4785279929637909,0
23765,0.0060800500214099,0.0006443651509471,0.9923102259635924,-0.917605757713318,-2.028407573699951,0.2612559199333191,0.0851987823843956,0.2499737441539764,0.5162525177001953,0.1853729039430618,-0.1609603017568588,0.4652465879917145,0
23805,0.006042290944606,0.0003218975034542,0.996869683265686,1.209744572639465,-2.111668825149536,0.4855147302150726,0.0876613780856132,0.2494096159934997,0.5144917368888855,0.1828773021697998,-0.0929481610655784,0.4735746085643768,0
23895,0.0309799965471029,-0.0153494887053966,1.0091958045959473,-3.019777536392212,-4.395730972290039,0.6407434940338135,0.0917756855487823,0.2477622479200363,0.5114742517471313,0.1731588393449783,0.1719237864017486,0.5248963236808777,0
23905,0.0086343716830015,-0.0150368232280015,1.027117133140564,-2.1425552368164062,-3.2534375190734863,0.6067214608192444,0.0917756855487823,0.2477622479200363,0.5114742517471313,0.1731588393449783,0.1719237864017486,0.5248963236808777,0
24045,0.0193108394742012,-0.0271648336201906,1.0184814929962158,0.3705520927906036,1.950238943099976,-0.2294030487537384,0.0940922498703002,0.2459855377674102,0.5063720345497131,-0.1430468112230301,0.2815848290920257,0.5530059933662415,0
24065,0.0119209876284003,-0.0038397791795432,1.0111167430877686,0.241923913359642,2.609945297241211,-0.6308875679969788,0.0999481230974197,0.2413638681173324,0.5085445046424866,-0.1240971013903617,0.2007654756307602,0.5463210940361023,0
24065,0.0119209876284003,-0.0038397791795432,1.0111167430877686,0.241923913359642,2.609945297241211,-0.6308875679969788,0.0999481230974197,0.2413638681173324,0.5085445046424866,-0.1240971013903617,0.2007654756307602,0.5463210940361023,0
24115,0.0083585903048515,-0.0002294977603014,1.010167121887207,-5.568222522735596,-3.981405973434448,-0.4136591553688049,0.0967116728425026,0.2432189285755157,0.5105196237564087,-0.2287244498729705,0.2554202675819397,0.5222785472869873,0
24235,0.0115054547786712,-0.0230706501752138,0.995195746421814,4.745357036590576,2.309782028198242,-0.985837697982788,0.1006200611591339,0.2456341832876205,0.509459912776947,-0.1143967807292938,0.3564002215862274,0.3925320506095886,0
24255,0.003971345257014,-0.0141342701390385,1.0143160820007324,2.2683675289154053,2.9047739505767822,-1.4884297847747805,0.109563834965229,0.2477700263261795,0.5096188187599182,-0.0850863829255104,0.2791633009910583,0.38162362575531,0
24445,0.0002058421086985,0.000156928654178,1.0009061098098757,4.071049213409424,0.6255655884742737,-0.8666344881057739,0.1111245676875114,0.2552558779716491,0.5114051103591919,0.2611071765422821,0.5282080769538879,0.2266745716333389,0
24465,0.0126190902665257,-0.0235224738717079,1.008173942565918,0.0679585486650466,1.6342142820358276,-1.900830864906311,0.1112475469708442,0.254691869020462,0.5115057229995728,0.3109080195426941,0.5193742513656616,0.2067992538213729,0
24715,0.0016782088205218,-0.0074282498098909,0.9968963265419006,-2.879551410675049,2.3092989921569824,-0.4303175806999206,0.105916753411293,0.2547719180583954,0.5150610208511353,-0.0615066774189472,0.1407647281885147,-0.0745739042758941,0
24735,0.0073658376932144,-0.0070496266707777,1.006942868232727,0.5108311176300049,-0.5505092144012451,-0.4907344579696655,0.1041311398148536,0.252750426530838,0.5153310894966125,-0.1118299439549446,0.0883867815136909,-0.0859594866633415,0
24935,0.0193626321852207,-0.0067114029079675,1.0026681423187256,1.904027223587036,-2.2709438800811768,-0.2759431004524231,0.0985640585422515,0.2610788643360138,0.5133028030395508,0.0024097352288663,-0.2200050354003906,-0.158651053905487,0
24965,0.0080002788454294,0.0126538518816232,0.9879356026649476,3.412103176116944,-2.102701425552368,-0.2857769429683685,0.0982019081711769,0.2632179260253906,0.5141107439994812,0.1182329580187797,-0.1551278084516525,-0.1625888496637344,0
25145,0.0079483119770884,-0.0132883200421929,1.0103332996368408,-3.568678379058838,0.6700049638748169,-0.064000129699707,0.1036944910883903,0.2737715244293213,0.5113141536712646,0.4542498290538788,-0.200452908873558,-0.1398599296808242,0
25235,0.0114485202357172,-0.003603430930525,1.005557894706726,-0.3338589072227478,-3.083582639694214,0.5245704650878906,0.1049651801586151,0.2739173471927643,0.5086604952812195,0.338081419467926,-0.0588909611105918,-0.1175308302044868,0
25365,0.0048660882748663,-0.0006383987492881,0.9813835620880128,-0.4586934745311737,-3.2873215675354004,1.2596862316131592,0.1125978901982307,0.2726253867149353,0.5165635347366333,0.221736803650856,0.01029768679291,-0.0245108325034379,0
25385,0.0031224929261952,0.0046503082849085,0.9880146384239196,0.8767642974853516,-2.505424737930298,0.7142805457115173,0.1129221692681312,0.2725970149040222,0.5169095993041992,0.2158872932195663,0.0952269360423088,-0.0027893506921827,0
25385,0.0031224929261952,0.0046503082849085,0.9880146384239196,0.8767642974853516,-2.505424737930298,0.7142805457115173,0.1131104230880737,0.2725959122180938,0.5151858925819397,0.209517702460289,0.1386764794588089,0.0072630327194929,0
25625,0.0263758115470409,-0.0081761144101619,1.0061228275299072,-2.566893577575684,-2.631167411804199,0.6544138789176941,0.1253214925527572,0.2714656293392181,0.5097752809524536,-0.003464710433036,0.4426757395267486,0.2691874802112579,0
25655,0.0234448574483394,-0.0176852829754352,1.0105613470077517,1.0606610774993896,-2.261182308197021,-0.0757660493254661,0.1248252689838409,0.2685595452785492,0.5110393166542053,0.0399292930960655,0.5020260810852051,0.2725648880004883,0
25865,0.0031862328760325,-0.010072348639369,1.0220123529434204,-3.7292094230651855,1.1626521348953247,0.4640329778194427,0.127181738615036,0.2630131840705871,0.5016500949859619,-0.1751455962657928,0.2800796627998352,0.3326659500598907,0
25875,0.0305054895579814,0.0049854940734803,1.02325177192688,-3.03717041015625,-0.1338713765144348,0.3869681656360626,0.1272735148668289,0.261063814163208,0.5066103339195251,-0.2393766343593597,0.2463522404432296,0.3426820039749145,0
25895,0.0081006307154893,-0.010955024510622,1.029746174812317,-0.854895830154419,-0.5449690818786621,0.0273143239319324,0.1272569149732589,0.2607205212116241,0.507010817527771,-0.2826164960861206,0.2552226781845093,0.3480926752090454,0
26015,0.0055947415530681,0.0079676415771245,1.0068341493606567,3.3359289169311523,-0.3070654571056366,0.027917256578803,0.1270245909690857,0.263826459646225,0.5071496367454529,-0.3789776563644409,0.0559950806200504,0.3520945906639099,0
26085,0.0028097063768655,-0.0075297942385077,0.9971492290496826,0.0086963782086968,2.826936960220337,-0.5691846609115601,0.1265053004026413,0.2668898999691009,0.5046658515930176,-0.1538065522909164,0.0601408593356609,0.3441050350666046,0
26105,0.0145462723448872,-0.0018069962970912,0.9950002431869508,-2.2996573448181152,3.542229413986206,0.4910494387149811,0.1283765584230423,0.2702298760414123,0.5044728517532349,-0.1961468309164047,-0.0615799091756343,0.3356449902057647,0
26285,0.0063466997817158,0.0034799887798726,0.9980620741844176,3.363095998764038,-3.6021440029144287,0.3386649787425995,0.1323212087154388,0.2824811935424804,0.5036616921424866,-0.0364771038293838,-0.0163829959928989,0.4414955079555511,0
26295,0.0073574241250753,0.0055940984748303,0.9975040555000304,4.552448749542236,-3.476936101913452,0.4503720998764038,0.1328702419996261,0.2844813168048858,0.5090982913970947,0.016062207520008,0.0444997288286685,0.4486817717552185,0
26475,0.0122149940580129,-0.0111148618161678,1.0025798082351685,2.0150158405303955,-0.0921467915177345,0.5286747813224792,0.1407233625650406,0.2925971746444702,0.5050583481788635,0.6113895773887634,0.1919090747833252,0.5715581774711609,0
26485,0.0029103530105203,-0.013377564959228,1.0077617168426514,0.2718972563743591,-0.2771371603012085,1.0357863903045654,0.1408257037401199,0.2928440570831299,0.5048630833625793,0.661536455154419,0.1978950202465057,0.5803075432777405,0
26505,0.0022286036983132,-0.005464241374284,0.9967864155769348,-3.452975273132324,0.1193891838192939,1.2758339643478394,0.1409255713224411,0.296018898487091,0.5034171342849731,0.6376070380210876,0.1917790621519088,0.6112576127052307,0
26665,0.0076693450100719,-0.0097683407366275,1.0079847574234009,0.6083182096481323,-2.586388349533081,0.2045042961835861,0.1503101885318756,0.2966294884681701,0.5094389915466309,0.4011571407318115,0.2491158694028854,0.6444251537322998,0
26685,0.0231962837278842,0.0129086310043931,0.9972429871559144,1.8002923727035522,-2.019221544265747,0.047038123011589,0.1555387824773788,0.2959677875041961,0.509765625,0.4391984641551971,0.250771701335907,0.649978756904602,0
26805,0.005028014536947,-0.0089024109765887,0.997120440006256,-1.324076771736145,-3.0514230728149414,-1.4503583908081057,0.158636599779129,0.2950989007949829,0.5083655118942261,0.1456483751535415,0.2848778963088989,0.5996130704879761,0
26875,0.0169385578483343,-0.0143586965277791,0.991123914718628,-3.083529472351074,1.7637114524841309,-1.7629928588867188,0.1605565547943115,0.2941349446773529,0.5075129866600037,0.0980026870965957,0.3991857767105102,0.482710987329483,0
26905,0.0032917733769863,-0.0113588711246848,1.0091617107391355,-2.2918059825897217,3.36386513710022,-1.1695433855056765,0.1594804376363754,0.2947292327880859,0.5068151354789734,0.0261173415929079,0.3704191148281097,0.4465534090995788,0
26915,0.0082606524229049,0.0070875184610486,1.00299334526062,-1.88688063621521,1.8888686895370483,-1.2385568618774414,0.1595970541238784,0.2946708500385284,0.5066883563995361,-0.0092788748443126,0.3318621516227722,0.4282208085060119,0
27065,0.0030143749900162,-0.0098877884447574,0.9922352433204652,-1.3603079319000244,-1.8985620737075808,-0.3256214261054992,0.1608434021472931,0.2956255674362182,0.508144736289978,0.0644133761525154,0.1986453384160995,0.3427297174930572,0
27245,0.0097299655899405,-0.0093005262315273,0.9930168986320496,0.7729292511940002,-0.0428913533687591,-1.63145112991333,0.1629361510276794,0.2948332726955414,0.5065562129020691,-0.0593920387327671,0.1530797928571701,0.1960760951042175,0
27265,0.0151740182191133,0.0015908231725916,0.9858872890472412,1.7224414348602295,0.4524746835231781,-1.183780550956726,0.1629459708929062,0.294730931520462,0.5061068534851074,-0.0223678834736347,0.153417706489563,0.169721245765686,0
27445,0.0064145140349864,-0.000836914521642,1.0442019701004028,2.045088291168213,5.273780822753906,-0.5611962080001831,0.1610953956842422,0.2957727611064911,0.4980941414833069,-0.1670566499233245,0.0524271577596664,-0.0058968132361769,0
27465,0.0036075699608772,-0.0084686325863003,1.0397090911865234,-2.276321649551392,3.092064619064331,-0.7952684760093689,0.162245288491249,0.2962172329425812,0.4991362988948822,-0.1753381937742233,-0.0357794687151908,-0.0183412469923496,0
27585,0.0124055007472634,-0.0079871658235788,0.9880968332290648,0.5095677971839905,1.131191611289978,-1.3357573747634888,0.1636735498905182,0.3039558231830597,0.5024521946907043,0.1150512769818306,-0.027852127328515,-0.1156112998723983,0
27665,0.0036328053101897,-0.0114738019183278,0.99279522895813,3.711221218109131,-1.833246827125549,-1.232010006904602,0.1622699201107025,0.3051071166992187,0.5063004493713379,0.0279795415699481,-0.1493756175041198,-0.2025562673807144,0
27725,0.0087302112951874,-0.0051101353019475,0.9872880578041076,3.1809287071228027,-0.233660489320755,-0.8482818007469177,0.1655757129192352,0.3082658052444458,0.5044258832931519,0.2741164565086365,-0.0978377535939216,-0.2454680800437927,0
27875,-0.0006818763213232,-0.0145922880619764,0.9906566143035888,2.1352133750915527,-1.0192724466323853,0.642363965511322,0.1736203134059906,0.3158632218837738,0.5063986778259277,0.4582180976867676,-0.0025388959329575,-0.2848717868328094,0
27875,-0.0006818763213232,-0.0145922880619764,0.9906566143035888,2.1352133750915527,-1.0192724466323853,0.642363965511322,0.1736203134059906,0.3158632218837738,0.5063986778259277,0.4582180976867676,-0.0025388959329575,-0.2848717868328094,0
27975,0.0120836533606052,-0.0159870199859142,1.0010793209075928,-0.5737321376800537,-0.8673151731491089,0.3163812458515167,0.1765136420726776,0.3204667270183563,0.5034841299057007,0.5396602153778076,0.1947665959596634,-0.2330292910337448,0
28085,0.0071368087083101,-0.010684186592698,1.0012612342834473,-3.442152976989746,-2.502311944961548,-0.2629933953285217,0.1787119507789611,0.3165454864501953,0.5029956102371216,0.273281991481781,0.2534751296043396,-0.2498336881399154,0
28095,0.0022247687447816,-0.0112517559900879,1.0082409381866455,-1.9737303256988523,-3.641176223754883,-0.3272011578083038,0.1788690835237503,0.3165177702903747,0.5029897093772888,0.2355825155973434,0.2792589366436004,-0.2536646425724029,0
28265,0.0111565897241234,0.0043664318509399,0.96784245967865,1.4750665426254272,1.811358332633972,-1.2275673151016235,0.1876728534698486,0.3122172355651855,0.5057459473609924,0.055990807712078,0.4130380749702453,-0.453419029712677,0
28285,0.0021348658483475,-0.0103450650349259,0.9920359253883362,2.565305471420288,2.5603601932525635,-0.4119706451892853,0.1878272444009781,0.313795804977417,0.5082887411117554,0.0732249319553375,0.3906146287918091,-0.4711495041847229,0
28345,0.0121719194576144,0.0005741858039982,0.979439914226532,-2.1816766262054443,-0.2977866232395172,1.5058826208114624,0.1866049319505691,0.3138714432716369,0.5039254426956177,0.0379858464002609,0.2287528663873672,-0.4282661974430084,0
28465,0.0077379876747727,-0.0134079344570636,1.0053240060806274,3.790949106216431,0.7178071141242981,-0.0196232423186302,0.1900454610586166,0.3110985457897186,0.5040896534919739,0.0455600917339324,0.2562006711959839,-0.3102434277534485,0
28485,0.0117330867797136,-0.0177300386130809,1.0135222673416138,0.5230609774589539,0.729490339756012,0.3184191584587097,0.1881680786609649,0.3110570013523102,0.5038923621177673,0.0988606661558151,0.2497196495532989,-0.3099182546138763,0
28655,0.0076613356359303,-0.0092894472181797,1.014817237854004,1.8185572624206543,-0.5265646576881409,-0.2954778373241424,0.1871299296617508,0.3127910196781158,0.5062900185585022,-0.1007653251290321,0.1528940498828888,-0.3333598971366882,0
28685,0.0011200988665223,-0.0082576544955372,1.0060880184173584,-0.2932716608047485,1.6826627254486084,-1.054400086402893,0.1869993209838867,0.3126922845840454,0.5091314911842346,-0.080969251692295,0.1398422122001648,-0.3472592234611511,0
28695,0.0010346423368901,-0.0097150122746825,0.9993668794631958,-1.623819351196289,1.6823301315307615,-0.8832526206970215,0.1898902654647827,0.3132217526435852,0.5098731517791748,-0.0857728868722915,0.0941440463066101,-0.3658218383789062,0
28845,0.0053480952046811,0.0033616020809859,0.9736524224281312,3.483053684234619,-0.8486221432685852,0.2795102000236511,0.184616133570671,0.315866470336914,0.5041549205780029,-0.1553791910409927,-0.0199221055954694,-0.4956248998641968,0
28865,0.011922507546842,0.0016896347515285,0.9949947595596312,3.903761625289917,-1.0772866010665894,0.1634160429239273,0.1865885555744171,0.3152198493480682,0.5035960078239441,-0.0854599475860595,-0.0003948878438677,-0.4959217607975006,0
29015,0.0350840017199516,0.0008660441963002,1.0248453617095947,1.418487787246704,-0.6677426099777222,0.5462055206298828,0.1937636286020279,0.3218895196914673,0.4935275912284851,0.1511458605527877,-0.0314376503229141,-0.5076352953910828,0
29065,0.0103356465697288,-0.0207573343068361,1.0250496864318848,0.9049441814422609,-6.3196797370910645,-0.6365912556648254,0.1998813301324844,0.3245263695716858,0.4928675591945648,0.2072872370481491,0.2018653303384781,-0.5134602785110474,0
29165,0.008295084349811,-0.0142008922994136,1.012339472770691,-0.5554831624031067,2.859168529510498,-1.1468466520309448,0.2011844664812088,0.3283204138278961,0.4997498989105224,0.2603042721748352,0.1151039004325866,-0.6291636824607849,0
29225,0.0066257226280868,0.0058903582394123,0.9917845129966736,2.977853298187256,-5.1446919441223145,-0.7312638163566589,0.203186422586441,0.3295790255069732,0.504255473613739,0.3381980359554291,0.3600091636180877,-0.7059479355812073,0
29245,0.014012630097568,-0.0104737607762217,0.9939994215965272,0.0437899567186832,-1.2474054098129272,-1.1015359163284302,0.2032542824745178,0.3273491859436035,0.5052729845046997,0.3828032314777374,0.4173038303852081,-0.7225743532180786,0
29305,0.0159418396651744,-0.0033481153659522,0.999658226966858,-1.0708450078964231,5.492100238800049,-0.7856668829917908,0.2026589214801788,0.3303771615028381,0.501361072063446,0.2963322103023529,0.2336762845516204,-0.7808281779289246,0
29415,0.0130119081586599,0.0111223394051194,0.9803069829940796,2.677301406860352,2.6692073345184326,0.6227576732635498,0.2017267793416977,0.3302897810935974,0.5003758072853088,0.3971408605575561,0.2547985315322876,-0.7680668830871582,0
29435,0.0077666938304901,0.0167557206004858,0.991329789161682,-0.5301085114479065,3.604944944381714,-0.38116255402565,0.2021939307451248,0.3331236541271209,0.5000178217887878,0.4365859031677246,0.1716154366731643,-0.7641541957855225,0
29455,-0.0056700129061937,-0.0041418094187974,1.004198431968689,-4.04595947265625,-0.1730102747678756,-0.4405091404914856,0.202165886759758,0.3331542909145355,0.4998787641525268,0.4159778654575348,0.1487740278244018,-0.7662215232849121,0
29605,0.0227567981928586,-0.0123410718515515,0.9960924983024596,-1.150750994682312,-3.278073310852051,-0.3788571059703827,0.2012660652399063,0.3280650079250335,0.5079955458641052,0.111631341278553,0.1021609678864479,-0.795700192451477,0
29625,0.0104362582787871,0.0071371020749211,0.9905640482902528,-2.818427562713623,-0.5771666765213013,-0.5978986024856567,0.2011478394269943,0.3278856575489044,0.504976749420166,0.0852923095226287,0.1575895696878433,-0.806919515132904,0
29775,-0.0006929348455742,-0.0099438745528459,1.017463207244873,-4.172426223754883,-0.7063210606575012,0.997994899749756,0.2019066363573074,0.3260367810726166,0.5019813179969788,-0.0419532768428325,-0.0103115737438201,-0.798996090888977,0
29785,0.0001509351568529,-0.0001646882301429,0.9861190915107728,-4.135193347930908,0.3183931112289428,0.7195652723312378,0.1992065161466598,0.3216697573661804,0.5017516016960144,-0.0567101091146469,0.0060131479986011,-0.7896422743797302,0
29795,0.0053043439984321,0.0047967885620892,0.9923171997070312,-3.1680424213409424,0.3671055436134338,0.9271209239959716,0.1992065161466598,0.3216697573661804,0.5017516016960144,-0.0567101091146469,0.0060131479986011,-0.7896422743797302,0
29805,0.0166895035654306,-0.0140533177182078,1.020680546760559,-4.312356472015381,1.907597064971924,0.5880635976791382,0.1992634385824203,0.325505256652832,0.5013043880462646,-0.1580743342638015,-0.0017381295328959,-0.7725927233695984,0
29965,0.0019761736039072,-0.008917111903429,1.0417430400848389,3.824096918106079,-1.5364437103271484,1.8882445096969604,0.1985389143228531,0.3224063515663147,0.4975581765174866,-0.2286886423826217,0.1386191993951797,-0.5622780323028564,0
29995,0.0034165242686867,-0.0117222862318158,1.0146386623382568,5.299490928649902,2.1784958839416504,1.1147042512893677,0.2026650309562683,0.3251974880695343,0.4956846833229065,-0.1214349269866943,0.0981690660119056,-0.5150060653686523,0
29995,0.0034165242686867,-0.0117222862318158,1.0146386623382568,5.299490928649902,2.1784958839416504,1.1147042512893677,0.2026650309562683,0.3251974880695343,0.4956846833229065,-0.1214349269866943,0.0981690660119056,-0.5150060653686523,0
30095,0.0140200313180685,0.000830925127957,1.00821852684021,2.7815215587615967,-6.485782146453857,1.299068808555603,0.2039452344179153,0.3304278552532196,0.4988883137702942,-0.0113905416801571,0.1107781752943992,-0.368816614151001,0
30175,0.0099194096401333,-0.0144738834351301,0.9966253638267516,-4.483536720275879,3.1233811378479004,-0.0331963263452053,0.2069424092769622,0.3325784504413605,0.503794252872467,0.0847720503807067,0.14756540954113,-0.3210399150848388,0
30175,0.0099194096401333,-0.0144738834351301,0.9966253638267516,-4.483536720275879,3.1233811378479004,-0.0331963263452053,0.2069424092769622,0.3325784504413605,0.503794252872467,0.0847720503807067,0.14756540954113,-0.3210399150848388,0
30285,0.0047700540162622,-0.0037657434586435,0.9634233713150024,3.719325065612793,-0.9574595093727112,0.2981166839599609,0.2088562846183776,0.3325676023960113,0.5090441703796387,0.1536498367786407,0.2253185361623764,-0.2625186741352081,0
30355,0.0062724873423576,-0.0061073536053299,0.9815422892570496,-1.7837949991226196,3.1974194049835205,0.5934894680976868,0.2100072503089904,0.3396352231502533,0.5030876994132996,0.0058431504294276,0.047602605074644,-0.2407510876655578,0
30455,-0.0059549822472035,-0.003302585799247,1.0327160358428955,3.847795248031616,-2.886690616607666,1.3098067045211792,0.2110388875007629,0.3453395366668701,0.5005325675010681,0.2517789900302887,0.1433228850364685,-0.1038215905427932,0
30545,0.0113673312589526,0.0035672469530254,1.013100266456604,2.5365452766418457,2.7710893154144287,-0.4510847628116607,0.2091351598501205,0.3504223227500915,0.5072659850120544,0.5104604959487915,0.1471762508153915,-0.0726018622517585,0
30555,0.0133277177810668,-0.0011773839360103,1.0074660778045654,1.0768769979476929,4.205525875091553,-0.1413505524396896,0.2090995162725448,0.3505869805812835,0.5086199045181274,0.5346314907073975,0.1152775362133979,-0.0719690918922424,0
30615,0.0093227652832865,-0.0093235475942492,0.9904918074607848,-1.8385189771652224,-1.0094540119171145,0.1540466248989105,0.2078147381544113,0.3518418073654175,0.510714054107666,0.4142375290393829,-0.0368195883929729,-0.0626043230295181,0
30705,0.0105807622894644,-0.0164313092827796,0.9903435111045836,-1.9634199142456052,2.9251482486724854,-0.0188598055392503,0.2096829563379287,0.3541416823863983,0.503853976726532,0.4664011597633362,0.0053444956429302,-0.0467178635299205,0
30735,0.013114527799189,-0.0145719246938824,1.0085885524749756,-2.208259105682373,1.6757915019989014,-0.2080541253089904,0.2096493989229202,0.3542799353599548,0.5044409036636353,0.4221742749214172,-0.0178729947656393,-0.0509805381298065,0
30885,0.0085195293650031,0.0037836914416402,1.0157040357589722,2.110888957977295,2.770472526550293,0.8343251347541809,0.2117444425821304,0.3522270917892456,0.4931268095970154,0.2717882990837097,0.1016620844602584,-0.0112043097615242,0
30915,0.024800106883049,0.0251888558268547,1.0055991411209106,-2.8317089080810547,1.959659218788147,0.617807149887085,0.2118045687675476,0.3520314693450928,0.4897829890251159,0.244830921292305,0.0160536654293537,0.0256154183298349,0
31075,0.0234385803341865,-0.0079634152352809,1.0071852207183838,-0.7857834100723267,-3.426361560821533,-0.1739794909954071,0.2178766578435897,0.3504566252231598,0.4982171058654785,-0.0806977599859237,0.2808877825736999,0.0225308015942573,0
31095,0.0141259180381894,-0.0212715119123458,1.0249993801116943,2.4101128578186035,-0.5250846743583679,0.2336515486240387,0.2179484665393829,0.3503134250640869,0.4990807473659515,-0.0383875742554664,0.2756957411766052,0.0219771414995193,0
31125,0.0054827006533741,0.0028506438247859,1.0011667013168335,-0.4204939603805542,2.0042507648468018,0.0957071334123611,0.2182168811559677,0.3530474901199341,0.5013316869735718,-0.0480313524603843,0.2726275324821472,0.022264290601015,0
31295,0.0022762916050851,-0.0135599300265312,0.9814794063568116,2.1027281284332275,-0.8497811555862427,0.2723160088062286,0.218671828508377,0.3506962060928345,0.5091551542282104,-0.0758692473173141,0.1515395641326904,0.0920679345726966,0
31315,0.0099582802504301,-0.0160987749695777,0.9888758063316344,0.233772337436676,0.6798200607299805,0.2809436619281769,0.2187597155570984,0.3534015119075775,0.5098044872283936,-0.054841112345457,0.1532223671674728,0.0955672636628151,0
31385,0.0083864545449614,-0.0083478419110178,0.986222207546234,-0.4715216159820556,1.7875858545303345,-0.4657685756683349,0.2202582359313964,0.35420823097229,0.5069671273231506,-0.1384350955486297,-0.0401919409632682,0.0586891919374465,0
31515,0.0163816772401332,0.0007036688621155,0.9970074892044068,2.934823513031006,1.9071859121322632,0.1637087762355804,0.2187311351299286,0.3630504012107849,0.5019281506538391,-0.076619453728199,0.0616172477602958,0.0577833317220211,0
31545,0.0066107758320868,-0.0060523422434926,1.017261266708374,4.0187835693359375,0.4407385587692261,0.5217708945274353,0.2185639441013336,0.369049996137619,0.499281495809555,0.0115575091913342,0.020705085247755,0.0604889839887619,0
31725,0.0070741507224738,0.0025893391575664,1.023868203163147,4.938198089599609,0.2504576444625854,-0.0057740062475204,0.2214787155389785,0.3842360973358154,0.5004578828811646,0.507006824016571,0.0932842716574668,0.1082271635532379,0
31735,-0.0051994966343045,0.0031309437472373,1.0164145231246948,4.261050701141357,2.4579360485076904,0.4550861716270447,0.2249879091978073,0.3822911083698272,0.5009058713912964,0.627938449382782,0.0537379942834377,0.1122072488069534,0
31745,0.007472489029169,-0.0025811993982642,1.005077600479126,3.204631090164185,2.781728982925415,-0.092342808842659,0.2249879091978073,0.3822911083698272,0.5009058713912964,0.627938449382782,0.0537379942834377,0.1122072488069534,0
31915,0.011485643684864,-0.0060784444212913,0.9856230020523072,-1.724194049835205,1.1893950700759888,0.7944817543029785,0.2312194108963012,0.3943014144897461,0.5098333954811096,0.8189706206321716,-0.0279813688248395,0.0838728472590446,0
31935,0.0119899688288569,-0.0105724511668086,0.998756229877472,-3.908087491989136,-1.2785614728927612,0.4766099452972412,0.2314655929803848,0.3946242332458496,0.5096006989479065,0.7808915376663208,-0.01210259180516,0.1034349724650383,0
31945,0.0163045097142457,-0.0186503361910581,1.0046977996826172,-3.776008129119873,-2.5394551753997803,0.3495635390281677,0.2315835356712341,0.3947500884532928,0.5098713040351868,0.7422581315040588,0.0046880282461643,0.1097520142793655,0
32095,0.0050980588421225,-0.0085128908976912,0.9882021546363832,-3.993685960769653,-3.6777420043945312,1.2257657051086426,0.2340648770332336,0.3851318359375,0.5068504214286804,0.3328360319137573,0.2339968830347061,0.1611513346433639,0
32105,0.0044671799987554,-0.0068382872268557,0.99116450548172,-2.8522093296051025,-2.614706754684448,1.215162754058838,0.2333278656005859,0.3832047581672668,0.5085355043411255,0.3059367835521698,0.2709498703479767,0.174598753452301,0
32125,0.0066463076509535,0.000596439174842,0.9880556464195251,-2.568764925003052,-1.601738691329956,1.255816102027893,0.2354463189840316,0.3787949383258819,0.5080467462539673,0.2764849364757538,0.2975940406322479,0.1997848600149154,0
32285,0.0161328986287117,-0.0010595169151201,1.0326639413833618,-2.830782651901245,-3.865467071533203,-0.2243429720401764,0.2360136210918426,0.3679468333721161,0.4978723526000976,-0.4835980236530304,0.2636583745479584,0.2694199979305267,0
32305,-0.0091837188228964,0.0099468016996979,1.0684726238250732,-0.1297701895236969,-4.093798637390137,-0.2089807242155075,0.2373683303594589,0.3683872520923614,0.4974429607391357,-0.5542677044868469,0.3700172007083893,0.26951664686203,0
32315,-0.0039963591843843,-0.0033162410836666,1.0286277532577517,1.3451645374298096,-1.0825986862182615,0.2615090906620025,0.2373670488595962,0.3681141436100006,0.4992742836475372,-0.551112949848175,0.3862743079662323,0.2708108127117157,0
32495,0.0158735271543264,-0.0120389899238944,1.0220130681991575,4.169631481170654,1.773607611656189,0.7897745370864868,0.2307598739862442,0.3685953319072723,0.5009176731109619,-0.3940901458263397,0.0362958945333957,0.2227464020252227,0
32555,0.0150421075522899,-0.0008474395726807,0.9861891865730286,3.875155210494995,0.7424757480621338,0.91783607006073,0.2295446097850799,0.3753297030925751,0.5049147605895996,-0.1519934087991714,-0.1248817145824432,0.2600128054618835,0
32655,0.0021813930943608,-0.0056707961484789,0.9892803430557252,1.7436838150024414,0.9489057660102844,0.4842743575572967,0.2279215306043625,0.3820594549179077,0.5031085014343262,-0.0563460551202297,-0.2377335280179977,0.2933902144432068,0
32685,0.008630733937025,-0.0063682249747216,0.9951279163360596,5.164452075958252,-1.9352788925170896,0.007789384573698,0.2278120517730713,0.3848634362220764,0.5011851787567139,0.0640767514705658,-0.2329089790582656,0.300714910030365,0
32775,0.0233230404555797,-0.0050496403127908,1.0051859617233276,-0.289434015750885,-0.2642944455146789,-1.0967727899551392,0.2266004085540771,0.3919336199760437,0.5007557272911072,0.2347639948129654,-0.1126066446304321,0.2744669616222381,0
32845,0.010102423839271,-0.0219888724386692,1.017101764678955,3.7076358795166016,-1.9679360389709477,-0.1599589884281158,0.2255554795265197,0.3946309387683868,0.5019552111625671,0.3750039637088775,-0.0482474900782108,0.2741484045982361,0
32895,0.0138380462303757,-0.0144107583910226,1.013702154159546,1.8664692640304563,-0.4232531785964966,-0.4374554753303528,0.2270236164331436,0.3990352749824524,0.5049997568130493,0.5036267042160034,0.0356272272765636,0.252627432346344,0
32895,0.0138380462303757,-0.0144107583910226,1.013702154159546,1.8664692640304563,-0.4232531785964966,-0.4374554753303528,0.2270236164331436,0.3990352749824524,0.5049997568130493,0.5036267042160034,0.0356272272765636,0.252627432346344,0
32945,0.0015927884960547,-0.0087763490155339,0.9977074861526488,2.1640784740448,4.118638515472412,-0.2865161895751953,0.2267859280109405,0.401048332452774,0.5060217976570129,0.6019791960716248,-0.0755512937903404,0.2088078558444976,0
33065,0.0007305103354156,-0.0044222776778042,0.9845030903816224,0.9091403484344482,3.11800479888916,-1.122833251953125,0.2206749767065048,0.4030408263206482,0.5087716579437256,0.7546897530555725,-0.1399256587028503,0.1897920966148376,0
33125,0.0095403017476201,-0.0010115873301401,0.9927724599838256,-5.256838798522949,1.2770678997039795,0.88020920753479,0.2215755730867386,0.4035432338714599,0.508309543132782,0.6462641954421997,-0.31488698720932,0.2069150805473327,0
33235,0.0002461340627633,-0.0012445771135389,1.0070346593856812,-3.0478851795196533,0.5121846199035645,0.8948041200637817,0.2220343053340912,0.3998802304267883,0.4971500635147095,0.3575165569782257,-0.076239138841629,0.2600331008434295,0
33255,0.0034128802362829,-0.0018937813583761,1.0050424337387085,-6.602993488311768,1.4077680110931396,1.297600030899048,0.2245924323797226,0.3959461748600006,0.4955744445323944,0.2284758239984512,-0.1051123738288879,0.2848381400108337,0
33255,0.0034128802362829,-0.0018937813583761,1.0050424337387085,-6.602993488311768,1.4077680110931396,1.297600030899048,0.2245924323797226,0.3959461748600006,0.4955744445323944,0.2284758239984512,-0.1051123738288879,0.2848381400108337,0
33355,0.0205563697963953,-0.0282500330358743,1.0377657413482666,-2.222771406173706,-4.999343395233154,-0.5646898150444031,0.2289299070835113,0.3902688324451446,0.4981404840946197,-0.1326826810836792,0.2257537692785263,0.3369274139404297,0
33415,0.0264336075633764,-0.009460880421102,1.032920479774475,-5.633776664733887,4.086587905883789,-0.6763501763343811,0.2321626842021942,0.3896152079105377,0.4949301779270172,-0.3931685090065002,0.1600034981966018,0.3004646599292755,0
33435,0.0054583624005317,-0.0128040211275219,1.0188586711883545,-1.0389409065246582,-1.1292685270309448,-0.2869385778903961,0.2323575168848037,0.3892034292221069,0.4961966574192047,-0.4589092433452606,0.1419420689344406,0.2974321544170379,0
33495,0.0178503468632698,-0.0058078980073332,0.9951925873756408,1.293576717376709,-2.0777361392974854,-0.0125064887106418,0.2337031066417694,0.3882300853729248,0.4938169121742248,-0.3930659890174866,0.355966180562973,0.2949032783508301,0
33605,0.0049986741505563,-0.0032722325995564,1.024042010307312,4.089138507843018,-0.1538992226123809,-0.4452932178974151,0.2326755672693252,0.3904298543930053,0.4981723129749298,-0.5328958034515381,0.2430463433265686,0.2906058430671692,0
33775,0.0040810396894812,-0.0141250248998403,0.9862211346626282,3.880957841873169,3.651031732559204,-0.2286600768566131,0.2352285236120224,0.4061246216297149,0.5060847997665405,0.1056756600737571,0.050665121525526,0.1919724345207214,0
33805,0.0009270431473851,-0.0005761049105785,0.988692045211792,5.369210720062256,-0.892223060131073,-0.1813348531723022,0.2336370050907135,0.408860832452774,0.5070387721061707,0.2600394189357757,0.0418312959372997,0.1959211528301239,0
33815,0.0036976439878344,-0.0134340291842818,0.9901307821273804,4.670193672180176,1.3022791147232056,0.0567014962434768,0.2336370050907135,0.408860832452774,0.5070387721061707,0.2600394189357757,0.0418312959372997,0.1959211528301239,0
33965,0.0112352380529046,0.0013887939276173,0.9727855920791626,-0.685335636138916,-1.107434868812561,1.9865472316741943,0.2308774590492248,0.4235592186450958,0.5068323016166687,0.6583619117736816,-0.1855545938014984,0.2416788339614868,0
33985,0.006079030688852,-0.0020650583319365,0.9804267287254332,-0.2455175668001175,-2.654444932937622,1.7078005075454712,0.230692058801651,0.424410343170166,0.5066839456558228,0.6515405774116516,-0.1548220962285995,0.296414852142334,0
34135,0.0092266388237476,-0.0154450312256813,1.0194883346557615,-3.9296133518218994,-2.1846961975097656,0.8114568591117859,0.2317233830690384,0.4295758306980133,0.4999492764472961,0.4860704243183136,-0.0653373673558235,0.3784825503826141,0
34155,0.0072807534597814,-0.0059062195941805,1.0330983400344849,-1.3863365650177002,-2.555952310562134,0.5117105841636658,0.2334422916173935,0.4279999434947967,0.4995675981044769,0.4340853989124298,-0.0295072067528963,0.3925208151340484,0
34205,0.0005594790563918,-0.0081543438136577,1.0167065858840942,-2.0398945808410645,-1.168418049812317,-0.0770576745271682,0.2374477535486221,0.4278162717819214,0.4988389909267425,0.4637166857719421,0.0659372583031654,0.4155180156230926,0
34315,0.0030852044001221,-0.0110744722187519,1.0069944858551023,3.155245304107666,-3.9605166912078857,-0.5709574222564697,0.2408736497163772,0.4277478456497192,0.498756468296051,0.2777361273765564,0.2251005917787552,0.3421775698661804,0
34325,0.0066401222720742,-0.0148083502426743,1.0096806287765503,2.8980584144592285,-2.1861202716827397,-0.3437974452972412,0.2409652918577194,0.4277315735816955,0.4987943768501282,0.312244713306427,0.2545569837093353,0.3370000720024109,0
34335,0.0072399103082716,-0.0249563977122306,1.0254095792770386,4.984389305114746,-2.513361930847168,-0.3795419931411743,0.2429112941026687,0.4270887076854706,0.4965315461158752,0.3597693145275116,0.2671886384487152,0.330440878868103,0
34395,0.0166665613651275,-0.0125868609175086,0.9974566102027892,-1.99911367893219,1.8861676454544067,-1.1546897888183594,0.2478938996791839,0.432194709777832,0.4956481456756592,0.3967338502407074,0.2076051831245422,0.2638891041278839,0
34505,0.0048609087243676,-0.0132540091872215,1.005292892456055,3.3742120265960693,-3.2390739917755127,1.2968809604644775,0.2481424808502197,0.4296526908874511,0.4992128014564514,0.2598489820957184,0.3723085820674896,0.3004069030284881,0
34525,0.0115127572789788,0.0075414851307868,1.0040562152862549,1.963023662567139,2.2435402870178223,0.6652528643608093,0.2485877275466919,0.4274225831031799,0.4983419477939605,0.338179737329483,0.4027581512928009,0.3301770985126495,0
34525,0.0115127572789788,0.0075414851307868,1.0040562152862549,1.963023662567139,2.2435402870178223,0.6652528643608093,0.2485877275466919,0.4274225831031799,0.4983419477939605,0.338179737329483,0.4027581512928009,0.3301770985126495,0
34685,0.0298727117478847,-0.0129569955170154,1.0006741285324097,0.6266522407531738,0.9252633452415466,-0.4273010790348053,0.2522581815719604,0.4302193522453308,0.4988521635532379,-0.0281276442110538,0.3644424080848694,0.3853698670864105,0
34945,0.0104699991643428,-0.0056520104408264,1.0131837129592896,-66.52645111083984,-53.50683975219727,30.010835647583008,0.2216062992811203,0.3426783978939056,0.5106723308563232,2.249847650527954,-1.375931978225708,-4.752812385559082,0
34955,0.0049527082592248,-0.0079093035310506,1.0160425901412964,-44.815616607666016,-55.17461013793945,29.9298152923584,0.2196525484323501,0.352735310792923,0.5113815665245056,1.346888303756714,-0.8855671882629395,-4.456063270568848,0
34955,0.0049527082592248,-0.0079093035310506,1.0160425901412964,-44.815616607666016,-55.17461013793945,29.9298152923584,0.223104789853096,0.3531305193901062,0.5120890736579895,0.7423339486122131,-0.3564582169055938,-4.16912841796875,0
35145,0.0019537187181413,-0.0367374718189239,0.9639870524406432,21.239547729492188,-11.865110397338867,12.524192810058594,0.2659317255020141,0.4468365311622619,0.5156371593475342,-3.2438886165618896,-0.1502938568592071,-0.6912735104560852,0
35175,0.0043108067475259,-0.0383533239364624,0.9733801484107972,24.40628433227539,1.0875747203826904,10.635062217712402,0.2798653244972229,0.4824523627758026,0.5091962218284607,-2.636317253112793,0.0363297052681446,-0.2031712830066681,0
35225,0.0150144081562757,-0.0542318895459175,1.0162898302078247,27.57630157470703,-12.508987426757812,8.885780334472656,0.2963683903217315,0.537132740020752,0.4979912340641022,-1.8314895629882808,0.0381733365356922,0.2577590644359588,0
35355,-0.0351254567503929,-0.0311476960778236,1.1562227010726929,44.27919006347656,-8.681963920593262,7.844604969024658,0.3388236761093139,0.6666141152381897,0.4605908095836639,1.8376665115356443,1.4277052879333496,1.2486088275909424,0
35415,-0.0218216050416231,-0.0563756115734577,1.1897801160812378,40.58558654785156,-15.506195068359377,5.146339416503906,0.3678300380706787,0.7358410954475403,0.4516333639621734,4.074599742889404,2.0097696781158447,1.6423553228378296,0
35435,-0.0075450399890542,-0.0645953640341758,1.1624664068222046,37.8226432800293,-14.242562294006348,4.571614742279053,0.385027527809143,0.7754152417182922,0.4458489418029785,4.986936569213867,2.3661439418792725,1.7663747072219849,0
35625,-0.0279774349182844,-0.0734622552990913,1.080407977104187,20.09311866760254,-2.1645119190216064,0.1579190641641616,0.4667634069919586,0.979987859725952,0.4459626674652099,8.75464916229248,3.7117769718170166,1.7817779779434204,0
35635,-0.0264430865645408,-0.0497117340564727,1.1035258769989014,17.49669647216797,-0.4173851609230041,-0.1863833963871002,0.4683919847011566,0.9852855205535888,0.447092741727829,8.93543529510498,3.727383852005005,1.780500411987305,0
35875,-0.0084095047786831,-0.0450574196875095,0.9260737299919128,-10.261399269104004,0.9125657677650452,-2.0727691650390625,0.5395136475563049,1.1799193620681765,0.4996723234653473,8.50300121307373,3.4899044036865234,1.4677062034606934,0
35895,-0.0176927763968706,-0.0524625033140182,0.9197547435760498,-10.48214054107666,1.3961416482925415,-2.051090240478516,0.5436804890632629,1.1911932229995728,0.5062375664710999,8.204425811767578,3.429573535919189,1.4312381744384766,0
36085,-0.0024101207964122,-0.0382697470486164,0.945122003555298,-5.442804336547852,7.251801490783691,-2.4587044715881348,0.5862954258918762,1.3034517765045166,0.5277009606361389,6.477399826049805,2.6426398754119877,1.030920147895813,0
36125,-0.0039031927008181,-0.0419173128902912,0.9354666471481324,4.529305934906006,-0.8821179270744324,-3.540419578552246,0.5960289239883423,1.32523512840271,0.531890869140625,6.292426586151123,2.357421398162842,0.9099013209342957,0
36125,-0.0039031927008181,-0.0419173128902912,0.9354666471481324,4.529305934906006,-0.8821179270744324,-3.540419578552246,0.5960289239883423,1.32523512840271,0.531890869140625,6.292426586151123,2.357421398162842,0.9099013209342957,0
36285,-0.0060702268965542,-0.0414784997701644,1.003425121307373,-0.5560305118560791,-5.118000030517578,0.6705159544944763,0.6319853663444519,1.412647724151611,0.5309609174728394,5.418436050415039,1.877978801727295,0.8181292414665222,0
36335,0.0042326506227254,-0.0620777122676372,0.9972899556159972,5.327425956726074,-5.702165126800537,-2.031698703765869,0.6406242847442627,1.4342414140701294,0.5299591422080994,5.3461737632751465,2.230390310287476,0.7854872941970825,0
36445,-0.0082457736134529,-0.0579793937504291,1.0134835243225098,0.9150915741920472,-10.207667350769045,-1.5612106323242188,0.6645714044570923,1.4992296695709229,0.522758960723877,4.613504409790039,2.121817111968994,0.3846627473831177,0
36515,-0.0041890065185725,-0.0555260851979255,1.0116013288497925,0.4033427238464355,3.106813669204712,-1.5660637617111206,0.6802464127540588,1.5436139106750488,0.5178487300872803,4.677839279174805,2.1363916397094727,0.3119940459728241,0
36545,0.0016120558138936,-0.0214942935854196,1.0036005973815918,-2.051480531692505,-12.744494438171388,-2.846865653991699,0.6853124499320984,1.5542300939559937,0.5155385136604309,4.5799479484558105,2.1499147415161133,0.2555737197399139,0
36545,0.0016120558138936,-0.0214942935854196,1.0036005973815918,-2.051480531692505,-12.744494438171388,-2.846865653991699,0.6853124499320984,1.5542300939559937,0.5155385136604309,4.5799479484558105,2.1499147415161133,0.2555737197399139,0
36665,-0.0052035064436495,-0.0341935567557811,1.0112683773040771,2.8311538696289062,-1.360945701599121,-1.9105780124664309,0.7085810303688049,1.604451060295105,0.5066810250282288,4.926724910736084,2.446919679641724,-0.1089396923780441,0
36735,0.0122352838516235,-0.0255028419196605,1.0162352323532104,-6.222972393035889,5.862401962280273,2.3026859760284424,0.7293688058853149,1.6519930362701416,0.5054237246513367,4.1391448974609375,2.5333497524261475,-0.1338899135589599,0
36755,-0.0113693960011005,-0.0369652584195137,1.0502270460128784,6.5274739265441895,10.30087661743164,2.7213313579559326,0.7350500226020813,1.6621743440628052,0.5046643018722534,4.061759948730469,2.3121016025543213,-0.0811691656708717,0
36775,-0.0287930518388748,-0.0321427769958972,1.0360504388809204,17.777542114257812,8.920554161071777,1.6568796634674072,0.7406943440437317,1.674559473991394,0.5045066475868225,4.0340728759765625,2.1488702297210693,-0.0514749437570571,0
36935,-0.0120022194460034,-0.0258232057094573,1.0220274925231934,9.049339294433594,4.030757427215576,0.5874804854393005,0.7825842499732971,1.764801263809204,0.5016940832138062,4.690709590911865,2.3177385330200195,-0.3062761127948761,0
36975,-0.0229526739567518,-0.0508722811937332,1.0207191705703735,10.46224880218506,7.031579971313477,0.3716297745704651,0.785770833492279,1.7725729942321775,0.5004642605781555,5.243288516998291,2.052032947540283,-0.2698253989219665,0
36985,-0.0020887595601379,-0.0291601177304983,0.9725847244262696,6.91033935546875,5.49060583114624,-0.949518620967865,0.7864468693733215,1.7742490768432615,0.5004030466079712,5.335351467132568,1.9890592098236084,-0.2675221860408783,0
36995,-0.00336350267753,-0.030862683430314,1.0233454704284668,1.0387589931488037,1.314414381980896,-1.048905849456787,0.7864468693733215,1.7742490768432615,0.5004030466079712,5.335351467132568,1.9890592098236084,-0.2675221860408783,0
37025,-0.000807995093055,-0.0244016423821449,1.0219337940216064,-11.972954750061035,-5.042944431304932,-1.3615549802780151,0.7884702086448669,1.7791187763214111,0.4982301294803619,5.274052143096924,2.000190258026123,-0.2954065501689911,0
37185,0.0014469075249508,-0.0305871553719043,0.998570442199707,-13.847001075744627,2.7368478775024414,-0.6900123953819275,0.7927376627922058,1.7898935079574585,0.502916693687439,2.989084243774414,1.2455661296844482,-0.441133588552475,0
37195,0.0039326883852481,-0.0146353784948587,0.9825623035430908,-14.52865505218506,8.0996675491333,-0.2662784457206726,0.7927376627922058,1.7898935079574585,0.502916693687439,2.989084243774414,1.2455661296844482,-0.441133588552475,0
37195,0.0039326883852481,-0.0146353784948587,0.9825623035430908,-14.52865505218506,8.0996675491333,-0.2662784457206726,0.7927376627922058,1.7898935079574585,0.502916693687439,2.989084243774414,1.2455661296844482,-0.441133588552475,0
37305,-0.0056819198653101,-0.0097597818821668,0.9809516668319702,-8.04545783996582,-2.6550188064575195,2.490389823913574,0.7921392321586609,1.788509726524353,0.506945013999939,1.2890955209732056,0.3777400851249695,-0.346022218465805,0
37405,-0.0079518472775816,-0.0279342588037252,0.9873608946800232,-10.301117897033691,9.197872161865234,2.2316365242004395,0.7907016277313232,1.7848427295684814,0.5108119249343872,0.214790478348732,0.0346083715558052,-0.0982327759265899,0
37415,-0.0053681111894547,-0.036948624998331,0.9839941263198853,-7.098377227783203,8.342157363891602,1.8889201879501345,0.7905294895172119,1.7844152450561523,0.5108760595321655,0.1078844666481018,-0.0603622011840343,-0.0790695920586586,0
37425,-0.0125926611945033,-0.0313880555331707,0.9752302169799804,-6.982667922973633,5.992638111114502,1.5012050867080688,0.7903575301170349,1.7839850187301636,0.5109232068061829,0.0260492619127035,-0.152596116065979,-0.0567231588065624,0
37545,0.0032063901890069,-0.0300947148352861,0.9905579686164856,-2.2375383377075195,-0.8415644764900208,2.1953587532043457,0.7884491086006165,1.778626799583435,0.5098235607147217,-0.5512591600418091,-0.1050510108470916,0.1607826054096222,0
37585,-0.0148413740098476,-0.0315568000078201,1.002215027809143,-0.5244005918502808,1.7382290363311768,0.6898388266563416,0.7880369424819946,1.7774500846862793,0.5069664716720581,-0.5437183380126953,-0.1594514697790146,0.2004150450229644,0
37585,-0.0148413740098476,-0.0315568000078201,1.002215027809143,-0.5244005918502808,1.7382290363311768,0.6898388266563416,0.7879190444946289,1.7771117687225342,0.5066356658935547,-0.5385116934776306,-0.1860009431838989,0.2093141824007034,0
37585,-0.0148413740098476,-0.0315568000078201,1.002215027809143,-0.5244005918502808,1.7382290363311768,0.6898388266563416,0.7878040075302124,1.7767826318740845,0.5062939524650574,-0.5441161394119263,-0.2013385742902755,0.2164945006370544,0.0
37655,-0.0064384238794445,-0.0238951742649078,1.016338348388672,2.0056748390197754,-0.9409319162368774,0.8479112386703491,0.787284791469574,1.7752962112426758,0.5050575733184814,-0.6128577589988708,-0.1349493861198425,0.2475142776966095,0
37825,-0.0189134888350963,-0.0582018122076988,1.033295512199402,3.9538557529449454,4.044080257415772,2.7493486404418945,0.7858583927154541,1.7718321084976196,0.4982542693614959,-0.2882299721240997,0.2313025295734405,0.4491834044456482,0
37835,-0.0001111714009311,-0.036054141819477,1.0002046823501587,3.179591178894043,4.789176940917969,2.395700693130493,0.7857962846755981,1.7717928886413574,0.4956658482551574,-0.2511661350727081,0.2137115746736526,0.4740835130214691,0
37835,-0.0001111714009311,-0.036054141819477,1.0002046823501587,3.179591178894043,4.789176940917969,2.395700693130493,0.7857962846755981,1.7717928886413574,0.4956658482551574,-0.2511661350727081,0.2137115746736526,0.4740835130214691,0
37845,-0.0034419174771755,-0.0445584580302238,1.0388273000717163,4.287727355957031,6.5630202293396,2.6536781787872314,0.7857030034065247,1.771656155586243,0.4953755736351013,-0.2119059860706329,0.1656451523303985,0.4987799227237701,0
38085,-0.0276128649711608,-0.0318008176982402,1.032174825668335,1.2635799646377563,2.537113904953003,0.916660726070404,0.7834040522575378,1.768614649772644,0.4935063123703003,-0.020122917369008,0.132352128624916,1.1230053901672363,0
38325,-0.0125844227150082,-0.0384018570184707,0.9560121297836304,1.4660208225250244,1.7251707315444946,-1.849416732788086,0.7808730602264404,1.765468955039978,0.5025634169578552,0.1352583765983581,0.0629537552595138,0.9731743931770324,0
38475,-0.0064887003973126,-0.0246571190655231,0.9941558837890624,1.1380064487457275,-1.209706425666809,-0.4527567923069,0.7789346575737,1.7628945112228394,0.4990011751651764,0.1302275359630584,0.0123135726898908,0.7195119261741638,0
38515,-0.0048291543498635,-0.0365370959043502,0.9885772466659546,1.915500283241272,-0.4276833236217499,-0.1638694256544113,0.7783730030059814,1.7620327472686768,0.4964925646781921,0.1366816312074661,0.024123128503561,0.7001810669898987,0
38675,-1.5829473733901978,-1.9803446531295776,0.9685186743736268,-245.65643310546875,115.77183532714844,-57.22666931152344,0.855976402759552,2.289642333984375,0.4943292140960693,-3.942415237426758,0.9178379774093628,3.1461498737335205,0
38735,-0.2762242555618286,0.0278267506510019,0.7848963141441345,-499.6421203613281,152.56277465820312,111.79410552978516,1.0638574361801147,2.2980823516845703,0.4856023490428924,-23.532936096191406,-9.002218246459961,3.768888473510742,0
38775,-0.0246870517730712,0.0157297365367412,0.6383457779884338,-644.3999633789062,69.88697052001953,93.04678344726562,1.0863564014434814,2.3500730991363525,0.4629946947097778,-52.85619354248047,-17.576662063598633,3.9627435207366943,0
38995,-0.1218162477016449,-0.0933022871613502,0.8102074861526489,-719.8677978515625,734.2432861328125,-138.45315551757812,2.0979228019714355,-0.0619088113307952,0.1879011541604995,-67.84896087646484,-44.13600540161133,-17.098241806030273,0
39035,-0.10716412961483,-0.1947119235992431,0.6760919094085693,-1132.799560546875,885.6964721679688,-99.3459701538086,2.245790243148804,0.0913961082696914,0.114712469279766,-131.740478515625,-31.33810234069824,-57.89962768554688,0
39245,-0.4505562782287597,-1.8456369638442995,1.534428596496582,-1940.694580078125,1014.53955078125,22.297874450683597,0.0265304744243621,0.0599159635603427,0.4400320947170257,-119.74737548828124,-26.9659366607666,-42.08758163452149,0
39285,-0.3903906643390655,-2.5081000328063965,1.1922907829284668,-1948.709716796875,423.9172973632813,75.89883422851562,0.0593158788979053,0.1248951032757759,0.3744086623191833,171.5151824951172,-5.428146362304688,-56.59455871582031,0
39435,0.3675570487976074,-2.611947774887085,1.3513364791870115,-1964.5147705078125,-379.6480102539063,137.96400451660156,0.5480416417121887,0.9018576741218568,1.0400006771087646,-84.68644714355469,4.2136640548706055,-49.39935302734375,0
39445,0.3057200908660888,-2.5865581035614014,1.4946880340576172,-1963.4232177734373,-438.4325866699219,144.9547576904297,0.5784174203872681,0.928327977657318,1.0829575061798096,-105.0882339477539,2.393007755279541,-45.23335266113281,0
39465,0.4227608740329742,-2.1298959255218506,1.7626527547836304,-1963.85107421875,-452.1507568359375,135.3547821044922,0.6251904368400574,0.9665570259094238,1.1294175386428833,-126.08477783203124,-0.8941828012466431,-41.68190002441406,0
39635,0.3970154821872711,-1.0376853942871094,1.044571042060852,-1977.458984375,-823.7806396484375,69.31404113769531,-0.0140458513051271,0.0507349781692028,0.8501828908920288,-161.34066772460938,-9.565820693969728,36.88628387451172,0
39645,0.3861362636089325,-1.032725811004639,1.2971415519714355,-1976.4119873046875,-851.975341796875,42.21376037597656,-0.0140458513051271,0.0507349781692028,0.8501828908920288,-161.34066772460938,-9.565820693969728,36.88628387451172,0
39715,0.3451515436172485,-1.2005876302719116,0.5945454239845276,-1974.4090576171875,-972.6217651367188,14.629958152770996,-0.0419714078307151,0.1272355765104293,0.0691358596086502,-18.813140869140625,10.226729393005373,-5.924365520477295,0
39765,-0.0288729723542928,-0.047766800969839,0.1912296265363693,-272.9754638671875,231.6536407470703,-503.1248168945313,0.2075756043195724,-0.6452207565307617,0.4363108575344085,-130.42916870117188,57.28110504150391,30.555877685546875,0
39775,-0.0216066129505634,-0.057698767632246,0.2567776143550873,-300.5338134765625,288.665771484375,-472.90716552734375,0.2312575131654739,-0.7457537651062012,0.4874635338783264,-143.62779235839844,67.51766967773438,39.13399505615234,0
39805,-0.0483451038599014,-0.0391902364790439,0.2792610228061676,-439.2116394042969,520.0517578125,-442.2015380859375,0.2555038928985595,-0.8452184796333313,0.5348716378211975,-166.9510498046875,78.12751007080078,56.1605339050293,0
39875,-0.1415145248174667,-0.0558120086789131,0.4201796054840088,-690.6607666015625,1018.876953125,-505.1025085449219,0.4844157993793487,-0.992046356201172,0.163399264216423,-4.714859962463379,-0.437414675951004,-134.37741088867188,0
39885,-0.1125248298048973,-0.0764993652701377,0.4445298016071319,-737.3233642578125,1105.1502685546875,-499.6318054199219,0.4844157993793487,-0.992046356201172,0.163399264216423,-4.714859962463379,-0.437414675951004,-134.37741088867188,0
40105,-0.2112559825181961,-0.2926847636699676,0.0537786222994327,-1135.511962890625,-150.8585968017578,-439.4332885742188,1.7880035638809204,-2.120518684387207,0.4690709710121155,130.0462646484375,2.6705448627471924,-142.45150756835938,0
40115,-0.1696972846984863,-0.2442654520273208,0.1273281425237655,-1190.5511474609375,-16.271150588989258,-401.2480163574219,1.8350340127944944,-2.1794888973236084,0.4816254377365112,118.19327545166016,-0.6253126263618469,-140.9043426513672,0
40285,0.473855584859848,0.0334356725215911,-1.4638463258743286,537.4762573242188,-906.3396606445312,-293.7153625488281,-0.0089104417711496,0.0073058409616351,0.5680971741676331,-8.302535057067871,-6.766900539398193,-43.63252639770508,0
40325,-0.00986934825778,-0.0759758204221725,-0.9060980677604676,-94.63214874267578,-58.296783447265625,-202.073974609375,-0.0171401984989643,0.0034634382463991,0.673870861530304,-8.519105911254883,-5.203466892242432,-52.38862609863281,0
40335,-0.0236901901662349,-0.0379634387791156,-0.1417561024427414,-182.70269775390625,-5.18622636795044,-202.01416015625,-0.0198704469949007,0.0029890248551964,0.6554481983184814,-10.412555694580078,-4.699679374694824,-54.30198669433594,0
40485,0.0225092377513647,0.0373862162232399,-1.160901427268982,13.281903266906738,4.90649938583374,-72.80194091796875,-0.0640674233436584,-0.0313247069716453,0.9344472885131836,-23.7368278503418,-2.351893424987793,-71.75971984863281,0
40605,0.0641805231571197,0.0473894886672496,-1.056470274925232,4.413963317871094,1.4959949254989624,-4.034389019012451,-0.0979746580123901,-0.042846854776144,0.705413818359375,-20.797945022583008,0.7479499578475952,-74.17871856689453,0
40735,0.0833751335740089,-0.0106776347383856,-1.029071569442749,-2.060514450073242,-7.238131523132324,15.499066352844238,-0.0436972193419933,-0.0736972242593765,1.0316509008407593,-18.96339988708496,2.2594356536865234,-71.8583984375,0
40815,0.0619064047932624,0.0125007703900337,-1.037724494934082,2.5841734409332275,3.255603313446045,-0.1505383849143982,-0.0174801610410213,-0.0908415988087654,1.1674407720565796,-13.554330825805664,3.652074098587036,-71.39778137207031,0
40825,0.0073278029449284,-0.0095880310982465,-1.0345277786254885,-3.0078046321868896,-3.032130002975464,-0.0844706296920776,-0.0174801610410213,-0.0908415988087654,1.1674407720565796,-13.554330825805664,3.652074098587036,-71.39778137207031,0
40995,-0.0005863039987161,0.0022556933108717,-1.032662868499756,-0.0595182888209819,0.0752854794263839,0.157289832830429,-0.5628157258033752,-0.4143683016300201,0.7611854672431946,-16.622920989990234,9.296299934387209,-55.25514602661133,0
41105,-0.0024980129674077,0.0037010414525866,-1.0328541994094849,-0.0306969247758388,0.1448089033365249,-0.086913026869297,-0.8161466121673584,-0.6740797758102417,1.1493861675262451,-15.393333435058594,7.4228739738464355,-49.62908172607422,0
41315,0.0008999159908853,0.0012575871078297,-1.0320775508880615,0.2827116250991821,0.141512930393219,0.0985230281949043,-1.1887829303741455,-0.9174864292144777,1.3419350385665894,-17.80608558654785,8.105040550231934,-47.039825439453125,0
41325,-0.0015264168614521,0.0026297830045223,-1.0312420129776,0.0892027989029884,-0.3511329889297485,-0.0279826782643795,-1.1887829303741455,-0.9174864292144777,1.3419350385665894,-17.80608558654785,8.105040550231934,-47.039825439453125,0
41345,-0.000201219736482,0.001563765341416,-1.0315345525741575,-0.0088840816169977,0.4574251472949981,0.0242737215012311,-1.233744502067566,-0.9481356143951416,1.3490285873413086,-18.26637840270996,8.033089637756348,-46.71200942993164,0
41515,0.000319026526995,0.002074715681374,-1.031943440437317,0.0928574204444885,0.1492984443902969,-0.0509052947163581,-1.5303752422332764,-1.1555118560791016,1.1443208456039429,-20.19725227355957,8.29822063446045,-45.35418319702149,0
41545,-0.0026835498865693,0.0014919996028766,-1.0335378646850586,0.3898634016513824,0.0243945885449647,0.0062607992440462,-1.585452437400818,-1.1882920265197754,1.159019947052002,-20.69964599609375,8.389615058898926,-45.08226013183594,0
41595,-0.0003912237589247,0.0025426351930946,-1.0305814743041992,0.1165823265910148,0.2342363148927688,0.2576040625572204,-1.7041178941726685,-1.288454532623291,1.068617820739746,-21.334428787231445,8.276514053344727,-44.53326034545898,0
41605,-0.0008351877331733,0.0015092542162165,-1.032070875167847,-0.0368823297321796,-0.1143746227025985,0.0773219168186187,-1.7671260833740234,-1.3374346494674685,1.172337532043457,-21.829191207885746,8.223855972290039,-44.24078750610352,0
41615,-0.0013609677553176,0.0024805986322462,-1.0320667028427124,0.1279159635305404,0.1548065990209579,-0.3538296520709991,-1.7904963493347168,-1.3654402494430542,1.102563738822937,-21.83415412902832,8.123213768005371,-44.14295196533203,0
41625,0.0009509058436378,0.0014300888869911,-1.0317901372909546,0.0609572455286979,0.0449923276901245,-0.191579669713974,-1.7904963493347168,-1.3654402494430542,1.102563738822937,-21.83415412902832,8.123213768005371,-44.14295196533203,0
41715,0.0005849265726283,0.0030529468785971,-1.0336288213729858,-0.279960572719574,-0.2305989265441894,-0.0363721549510955,-2.035346508026123,-1.5930813550949097,1.082484483718872,-22.63091278076172,7.642626285552978,-43.35049057006836,0
41785,-0.0020976378582417,0.001578175346367,-1.031341314315796,-0.0056013758294284,-0.0974575579166412,-0.0374416299164295,-2.337700128555298,-1.7664390802383425,1.1437832117080688,-24.66112518310547,7.737313747406006,-42.7071418762207,0
41815,-0.0030314240138977,0.0022204976994544,-1.0314598083496094,0.1143634542822837,0.1067290306091308,0.0887663662433624,-2.366318702697754,-1.8014583587646484,1.0738896131515503,-24.645597457885746,7.626155853271484,-42.61187744140625,0
41925,-0.0010054191807284,0.0012074855621904,-1.030221939086914,0.3005140423774719,-0.1860186755657196,0.2827176749706268,-2.934457302093506,-2.204030513763428,1.1272376775741575,-27.366878509521484,7.080872058868408,-41.627071380615234,0
41975,-0.0006537094013765,0.0012913711834698,-1.030859112739563,-0.0447312220931053,-0.1599653214216232,0.0286540742963552,-3.272169589996338,-2.4449589252471924,1.1132949590682983,-28.87386512756348,6.701812267303467,-41.10036849975586,0
41995,0.0006467862403951,0.0018390659242868,-1.0279786586761477,0.0534441471099853,0.1842640340328216,-0.1247762143611908,-3.3090150356292725,-2.487900495529175,1.0446860790252686,-28.868749618530277,6.589398384094238,-41.003231048583984,0
42005,-0.0017097052186727,0.0002426686696708,-1.033209204673767,-0.1205175891518592,0.1787120103836059,0.2307199835777282,-3.4536519050598145,-2.5718469619750977,1.1021522283554075,-29.815444946289062,6.4753947257995605,-40.82508850097656,0
42075,0.0001622419367777,0.00254318700172,-1.0323023796081543,-0.1358748972415924,0.0069029368460178,0.1738476157188415,-3.943503856658936,-2.905266523361206,1.0791581869125366,-32.25773620605469,5.974697589874268,-40.24778366088867,0
42075,0.0001622419367777,0.00254318700172,-1.0323023796081543,-0.1358748972415924,0.0069029368460178,0.1738476157188415,-3.943503856658936,-2.905266523361206,1.0791581869125366,-32.25773620605469,5.974697589874268,-40.24778366088867,0
42075,0.0001622419367777,0.00254318700172,-1.0323023796081543,-0.1358748972415924,0.0069029368460178,0.1738476157188415,-3.943503856658936,-2.905266523361206,1.0791581869125366,-32.25773620605469,5.974697589874268,-40.24778366088867,0
42075,0.0001622419367777,0.00254318700172,-1.0323023796081543,-0.1358748972415924,0.0069029368460178,0.1738476157188415,-3.943503856658936,-2.905266523361206,1.0791581869125366,-32.25773620605469,5.974697589874268,-40.24778366088867,0
42075,0.0001622419367777,0.00254318700172,-1.0323023796081543,-0.1358748972415924,0.0069029368460178,0.1738476157188415,-3.943503856658936,-2.905266523361206,1.0791581869125366,-32.25773620605469,5.974697589874268,-40.24778366088867,0
42075,0.0001622419367777,0.00254318700172,-1.0323023796081543,-0.1358748972415924,0.0069029368460178,0.1738476157188415,-3.943503856658936,-2.905266523361206,1.0791581869125366,-32.25773620605469,5.974697589874268,-40.24778366088867,0
42075,0.0001622419367777,0.00254318700172,-1.0323023796081543,-0.1358748972415924,0.0069029368460178,0.1738476157188415,-3.943503856658936,-2.905266523361206,1.0791581869125366,-32.25773620605469,5.974697589874268,-40.24778366088867,0
42075,0.0001622419367777,0.00254318700172,-1.0323023796081543,-0.1358748972415924,0.0069029368460178,0.1738476157188415,-3.943503856658936,-2.905266523361206,1.0791581869125366,-32.25773620605469,5.974697589874268,-40.24778366088867,0
42075,0.0001622419367777,0.00254318700172,-1.0323023796081543,-0.1358748972415924,0.0069029368460178,0.1738476157188415,-3.943503856658936,-2.905266523361206,1.0791581869125366,-32.25773620605469,5.974697589874268,-40.24778366088867,0
42075,0.0001622419367777,0.00254318700172,-1.0323023796081543,-0.1358748972415924,0.0069029368460178,0.1738476157188415,-3.943503856658936,-2.905266523361206,1.0791581869125366,-32.25773620605469,5.974697589874268,-40.24778366088867,0
42075,0.0001622419367777,0.00254318700172,-1.0323023796081543,-0.1358748972415924,0.0069029368460178,0.1738476157188415,-3.943503856658936,-2.905266523361206,1.0791581869125366,-32.25773620605469,5.974697589874268,-40.24778366088867,0
42075,0.0001622419367777,0.00254318700172,-1.0323023796081543,-0.1358748972415924,0.0069029368460178,0.1738476157188415,-3.943503856658936,-2.905266523361206,1.0791581869125366,-32.25773620605469,5.974697589874268,-40.24778366088867,0
42075,0.0001622419367777,0.00254318700172,-1.0323023796081543,-0.1358748972415924,0.0069029368460178,0.1738476157188415,-3.943503856658936,-2.905266523361206,1.0791581869125366,-32.25773620605469,5.974697589874268,-40.24778366088867,0
42075,0.0001622419367777,0.00254318700172,-1.0323023796081543,-0.1358748972415924,0.0069029368460178,0.1738476157188415,-3.943503856658936,-2.905266523361206,1.0791581869125366,-32.25773620605469,5.974697589874268,-40.24778366088867,0
42075,0.0001622419367777,0.00254318700172,-1.0323023796081543,-0.1358748972415924,0.0069029368460178,0.1738476157188415,-3.943503856658936,-2.905266523361206,1.0791581869125366,-32.25773620605469,5.974697589874268,-40.24778366088867,0
42075,0.0001622419367777,0.00254318700172,-1.0323023796081543,-0.1358748972415924,0.0069029368460178,0.1738476157188415,-3.943503856658936,-2.905266523361206,1.0791581869125366,-32.25773620605469,5.974697589874268,-40.24778366088867,0
42075,0.0001622419367777,0.00254318700172,-1.0323023796081543,-0.1358748972415924,0.0069029368460178,0.1738476157188415,-3.943503856658936,-2.905266523361206,1.0791581869125366,-32.25773620605469,5.974697589874268,-40.24778366088867,0
42075,0.0001622419367777,0.00254318700172,-1.0323023796081543,-0.1358748972415924,0.0069029368460178,0.1738476157188415,-3.943503856658936,-2.905266523361206,1.0791581869125366,-32.25773620605469,5.974697589874268,-40.24778366088867,0
42075,0.0001622419367777,0.00254318700172,-1.0323023796081543,-0.1358748972415924,0.0069029368460178,0.1738476157188415,-3.943503856658936,-2.905266523361206,1.0791581869125366,-32.25773620605469,5.974697589874268,-40.24778366088867,0
42075,0.0001622419367777,0.00254318700172,-1.0323023796081543,-0.1358748972415924,0.0069029368460178,0.1738476157188415,-3.943503856658936,-2.905266523361206,1.0791581869125366,-32.25773620605469,5.974697589874268,-40.24778366088867,0
42075,0.0001622419367777,0.00254318700172,-1.0323023796081543,-0.1358748972415924,0.0069029368460178,0.1738476157188415,-3.943503856658936,-2.905266523361206,1.0791581869125366,-32.25773620605469,5.974697589874268,-40.24778366088867,0
42075,0.0001622419367777,0.00254318700172,-1.0323023796081543,-0.1358748972415924,0.0069029368460178,0.1738476157188415,-3.943503856658936,-2.905266523361206,1.0791581869125366,-32.25773620605469,5.974697589874268,-40.24778366088867,0
42075,0.0001622419367777,0.00254318700172,-1.0323023796081543,-0.1358748972415924,0.0069029368460178,0.1738476157188415,-3.943503856658936,-2.905266523361206,1.0791581869125366,-32.25773620605469,5.974697589874268,-40.24778366088867,0
42075,0.0001622419367777,0.00254318700172,-1.0323023796081543,-0.1358748972415924,0.0069029368460178,0.1738476157188415,-3.943503856658936,-2.905266523361206,1.0791581869125366,-32.25773620605469,5.974697589874268,-40.24778366088867,0
42075,0.0001622419367777,0.00254318700172,-1.0323023796081543,-0.1358748972415924,0.0069029368460178,0.1738476157188415,-3.943503856658936,-2.905266523361206,1.0791581869125366,-32.25773620605469,5.974697589874268,-40.24778366088867,0
42075,0.0001622419367777,0.00254318700172,-1.0323023796081543,-0.1358748972415924,0.0069029368460178,0.1738476157188415,-3.943503856658936,-2.905266523361206,1.0791581869125366,-32.25773620605469,5.974697589874268,-40.24778366088867,0
42075,0.0001622419367777,0.00254318700172,-1.0323023796081543,-0.1358748972415924,0.0069029368460178,0.1738476157188415,-3.943503856658936,-2.905266523361206,1.0791581869125366,-32.25773620605469,5.974697589874268,-40.24778366088867,0
42075,0.0001622419367777,0.00254318700172,-1.0323023796081543,-0.1358748972415924,0.0069029368460178,0.1738476157188415,-3.943503856658936,-2.905266523361206,1.0791581869125366,-32.25773620605469,5.974697589874268,-40.24778366088867,0
42075,0.0001622419367777,0.00254318700172,-1.0323023796081543,-0.1358748972415924,0.0069029368460178,0.1738476157188415,-3.943503856658936,-2.905266523361206,1.0791581869125366,-32.25773620605469,5.974697589874268,-40.24778366088867,0
42075,0.0001622419367777,0.00254318700172,-1.0323023796081543,-0.1358748972415924,0.0069029368460178,0.1738476157188415,-3.943503856658936,-2.905266523361206,1.0791581869125366,-32.25773620605469,5.974697589874268,-40.24778366088867,0
42075,0.0001622419367777,0.00254318700172,-1.0323023796081543,-0.1358748972415924,0.0069029368460178,0.1738476157188415,-3.943503856658936,-2.905266523361206,1.0791581869125366,-32.25773620605469,5.974697589874268,-40.24778366088867,0
42075,0.0001622419367777,0.00254318700172,-1.0323023796081543,-0.1358748972415924,0.0069029368460178,0.1738476157188415,-3.943503856658936,-2.905266523361206,1.0791581869125366,-32.25773620605469,5.974697589874268,-40.24778366088867,0
42075,0.0001622419367777,0.00254318700172,-1.0323023796081543,-0.1358748972415924,0.0069029368460178,0.1738476157188415,-3.943503856658936,-2.905266523361206,1.0791581869125366,-32.25773620605469,5.974697589874268,-40.24778366088867,0
42075,0.0001622419367777,0.00254318700172,-1.0323023796081543,-0.1358748972415924,0.0069029368460178,0.1738476157188415,-3.943503856658936,-2.905266523361206,1.0791581869125366,-32.25773620605469,5.974697589874268,-40.24778366088867,0
42075,0.0001622419367777,0.00254318700172,-1.0323023796081543,-0.1358748972415924,0.0069029368460178,0.1738476157188415,-3.943503856658936,-2.905266523361206,1.0791581869125366,-32.25773620605469,5.974697589874268,-40.24778366088867,0
