timestamp,acc.x,acc.y,acc.z,gyro.x,gyro.y,gyro.z,stateEstimate.x,stateEstimate.y,stateEstimate.z,stabilizer.roll,stabilizer.pitch,stabilizer.yaw,groundtruth
14297,0.0029401574283838,-0.0010444022482261,0.9994359016418456,-0.1100438088178634,0.1140870377421379,0.0481496192514896,-0.0001573574409121,3.7057230656500906e-05,0.0119328740984201,-0.1339238882064819,0.0337448641657829,0.0923885107040405,0
14317,0.0007061404176056,-0.0039006748702377,1.000374436378479,0.1201721578836441,-0.1574493199586868,-0.0285704527050256,-0.0008096796227619,-0.0001747264323057,0.0122925955802202,-0.1239954978227615,0.0637865513563156,0.0925544202327728,0
14487,-0.0012180914636701,-0.002410695888102,1.0003100633621216,-0.2085912376642227,0.1009385511279106,-0.0294674336910247,-0.0001729245850583,0.0002727392711676,0.0121282842010259,-0.1434188038110733,0.0312528423964977,0.0918309763073921,0
14527,0.0005935203516855,-0.0044656111858785,0.9990189075469972,0.0350785218179225,-0.1429989337921142,-0.0628256723284721,-0.0001766621135175,-0.0001403875503456,0.0120337726548314,-0.1282678097486496,0.0309002380818128,0.0900686010718345,0
14617,1.0872869097511284e-05,-0.0013018494937568,1.0018049478530884,-0.0054170973598957,-0.3363468945026397,0.1120222508907318,-0.0001434386795153,-0.0002551473153289,0.011508815921843,0.0620376430451869,-0.01261349581182,0.0027119305450469,0
14637,-0.0007721926667727,-0.0011863928521052,1.001768708229065,-0.1385589390993118,-0.230263277888298,0.150220051407814,-0.00041179152322,8.83388020156417e-06,0.0115034030750393,-0.1105684712529182,0.084243819117546,0.0034308871254324,0
14657,0.0011278390884399,-0.001421463326551,1.000491976737976,0.0238708816468715,0.0114801246672868,0.165810614824295,-0.0004412183188833,-8.175431867130101e-05,0.0115010431036353,-0.0638631954789161,0.0695947259664535,0.0041787978261709,0
14667,0.0009942953474819,-0.0012661601649597,1.000262975692749,0.0087902890518307,0.0211344398558139,0.0582066811621189,0.0001440022460883,1.619267277419567e-05,0.0115097938105463,-0.1106991246342659,-0.2228068709373474,0.0041503719985485,0
14787,-0.0007242616266012,-0.0032787169329822,0.9990054368972778,-0.0332756377756595,-0.0844399482011795,0.194496288895607,-0.0004358172300271,-0.0005359453498385,0.0121964206919074,0.0279505103826522,0.0269641131162643,0.0072384537197649,0
14807,5.637949470838066e-06,-0.001722800778225,0.9972789883613586,-0.1349830627441406,0.1046071052551269,-0.1109559237957,-0.0002449171443004,-0.0007583367987535,0.0125641040503978,0.0594445988535881,-0.0158844962716102,0.0091642970219254,0
14837,0.0003095579741057,-0.0030391011387109,0.9978715777397156,-0.034441702067852,-0.163345381617546,0.2162839621305465,-0.0002568491036072,0.0001141432585427,0.0127236200496554,-0.1381218582391739,-0.019655916839838,0.0089026829227805,0
14847,-0.0003201096260454,-0.0013142209500074,1.0003039836883545,-0.1465342789888382,0.1031760945916175,0.0482006147503852,0.0004340721643529,0.0003469559305813,0.0133185032755136,-0.1751151233911514,-0.1323524117469787,0.0101754507049918,0
14977,-0.0004026268434245,-0.0024636194575577,0.9983193874359132,-0.2281601279973983,-0.1387007981538772,0.1388367116451263,-2.192178726545535e-05,0.000141306722071,0.0134822875261306,-0.1357142627239227,-0.0485274009406566,0.0110355550423264,0
15017,-0.0014418584760278,-0.0035135801881551,0.9989032745361328,0.036867156624794,-0.0645353123545646,-0.0137392319738864,0.0008094311342574,0.0001466604298911,0.0138639723882079,-0.1361670196056366,-0.1225220337510109,0.0131497997790575,0
15127,-0.0008033292833715,-0.0030142257455736,1.0002087354660034,-0.0287844594568014,0.0886362344026565,0.1824850291013717,0.0009297788492403,0.0004715530376415,0.0118838613852858,-0.1559511870145797,-0.0911351814866066,0.0157220363616943,0
15157,0.0008588011842221,-0.0021300935186445,0.9985118508338928,-0.0264062490314245,0.18575981259346,0.055460724979639,0.0008630270604044,0.0004590264288708,0.0111224725842475,-0.1555861383676529,-0.0808210894465446,0.0165822338312864,0
15197,8.205996709875762e-05,0.000767363992054,1.001094102859497,-0.036117248237133,0.2228106409311294,0.1553146541118621,-0.001403518486768,0.0001375614665448,0.0108260428532958,-0.1314079314470291,0.0632469728589057,0.0178799126297235,0
15327,0.001337127527222,-0.0014598066918551,0.9977160096168518,0.1244200021028518,0.0269814394414424,-0.0190277937799692,-0.0003911776584573,0.0001316780690103,0.0111150350421667,-0.1305960267782211,0.0065608802251517,0.0211469586938619,0
15367,0.0002798290515784,-0.003152533667162,1.0008032321929932,-0.0914623439311981,0.1508124023675918,-0.0773069933056831,-0.0003954193671233,0.0001553450711071,0.0118811810389161,-0.1371602267026901,0.010657693259418,0.0211536008864641,0
15437,-0.0011336740572005,-0.0025823535397648,1.000879406929016,0.0803992226719856,-0.1808344423770904,0.0069666118361055,-0.0003953816485591,-0.0001274546666536,0.0115881571546196,-0.1239819303154945,0.0130881899967789,0.0231529902666807,0
15497,0.0001473591255489,-0.0025923803914338,0.999639928340912,-0.0158111844211816,-0.2553154230117798,0.0371554307639598,0.0006965453503653,0.0004225836892146,0.0126528535038232,-0.1514514535665512,-0.0315789468586444,0.0233714878559112,0
15587,-0.0004883562214672,-0.0014873840846121,1.0002747774124146,-0.0103703998029232,0.0540998913347721,0.0036528727505356,-0.0004066755063831,-0.000927427841816,0.0122974403202533,-0.0900954753160476,0.0366770401597023,0.0268503371626138,0
15647,0.000687824038323,-0.003094739979133,0.9993738532066344,-0.0928321555256843,0.0902570933103561,0.1261185258626938,0.0003787767491303,0.0003752299817278,0.0116188470274209,-0.144943431019783,-0.0019438215531408,0.0302582904696464,0
15657,0.000825798488222,-0.0020707608200609,0.9976565837860109,0.0622530914843082,-0.0629266127943992,-0.2731595337390899,0.0003596277092583,0.0003695829364005,0.0115766413509845,-0.1439076662063598,-0.0015588490059599,0.0307010784745216,0
15687,-0.0019667367450892,-0.0024267940316349,1.0017412900924685,-0.0540510416030883,-0.2346789687871933,0.0997586548328399,0.0004146463470533,0.0004291002114769,0.0125357201322913,-0.1424585580825805,0.0026866148691624,0.0305600352585315,0
15697,-0.0018144802888855,-0.0011282208142802,1.0022375583648682,-0.005237738136202,0.1079010441899299,0.0692996755242347,-0.000433636829257,-0.00014156816178,0.0125671299174427,-0.1162162348628044,0.0395943000912666,0.031216150149703,0
15807,-0.001119005260989,-0.0025770608335733,1.0001444816589355,-0.0884067192673683,-0.0125884180888533,-0.1750558614730835,0.0006635208847001,0.0001296694390475,0.0114441076293587,-0.1294871270656585,-0.0131466323509812,0.0281917676329612,0
15827,0.001813719398342,-0.0012687188573181,1.002342939376831,-0.1775833219289779,0.1024897173047065,0.02745346352458,-0.0001221804704982,0.0004031327262055,0.0107650691643357,-0.1374860107898712,0.0214833375066518,0.029263824224472,0
15817,-0.0007396872388198,-0.0004533855244517,1.0005699396133425,0.2113938480615615,-0.2679706811904907,0.2136654406785965,-0.0001221804704982,0.0004031327262055,0.0107650691643357,-0.1374860107898712,0.0214833375066518,0.029263824224472,0
15847,-0.0003837252734228,-0.0027983454056084,0.9984637498855592,-0.0203451160341501,-0.0980657413601875,-0.0304147619754076,-0.0003835696552414,-0.0001202784696943,0.0107163963839411,-0.1161570996046066,0.0301972553133964,0.0293293911963701,0
15967,-0.0004357219149824,-0.0035074048209935,1.0009225606918335,0.1728137135505676,-0.083258680999279,-0.123488999903202,-0.0003748417075257,-0.0001024921366479,0.0126097472384572,-0.1187136471271514,0.0178116336464881,0.0290108863264322,0
15977,-6.901646702317521e-05,-0.0035694192629307,1.000906229019165,0.1354181766510009,-0.1185557842254638,0.1625882685184478,-0.0003748417075257,-0.0001024921366479,0.0126097472384572,-0.1187136471271514,0.0178116336464881,0.0290108863264322,0
15997,-0.0015140910400077,-0.0023514009080827,1.00080668926239,-0.1188249811530113,-0.0955991819500923,0.1045737341046333,-0.0004205557634122,0.000148407270899,0.0119958659633994,-0.1294488608837127,0.0211186632513999,0.0315584205090999,0
16117,-0.0013235688675194,-0.0034934445284307,1.0020307302474976,-0.1817359924316406,0.2583408057689667,0.0635369196534156,0.0006264674011617,0.0001475807803217,0.0122904041782021,-0.1342486888170242,-0.0347471013665199,0.0324730835855007,0
16127,0.0004148806619923,-0.0023587041068822,1.001954197883606,0.1073740273714065,-0.3009535372257232,0.0017372097354382,-0.0011170641519129,0.0001444012013962,0.0123192258179187,-0.1332980990409851,0.0393535867333412,0.0317944213747978,0
16147,-0.0005980666028335,-0.0005641714087687,1.000726342201233,-0.0056039057672023,0.0503717400133609,0.0928124263882637,0.0006064250483177,-9.732839680509642e-05,0.0123729547485709,-0.1222823932766914,-0.0335767418146133,0.0341325961053371,0
16227,0.00016586871061,-0.0016982044326141,1.0000250339508057,-0.3067087233066559,-0.0392456352710723,0.1337713301181793,0.0005589955253526,0.0001386656367685,0.0132432589307427,-0.132714956998825,-0.0266161561012268,0.0352728143334388,0
16267,0.0008867158321663,-0.0030996003188192,0.9997918009757996,-0.002441658405587,-0.2793567776679992,-0.0955632701516151,-0.0001427097449777,-0.0008226679055951,0.0133504094555974,-0.0915939658880233,0.0030689679551869,0.0366345271468162,0
16287,-0.0013146782293915,-0.0030520346481353,1.0000574588775637,-0.0845763981342315,0.0601580925285816,-0.0399582982063293,-0.0003837575495708,0.0001607692247489,0.0134485634043812,-0.1355456858873367,0.0132555533200502,0.0372355915606021,0
16367,-0.0016074280720204,-0.002866145921871,1.0018434524536133,0.0175706204026937,0.076720654964447,-0.1494956314563751,-0.0003668982826638,0.0001606900332262,0.0129082817584276,-0.1391818225383758,0.014037387445569,0.0369091182947158,0
16387,-0.0002763124939519,-0.0017676857532933,1.001645565032959,0.0701058581471443,0.265875369310379,-0.2301236093044281,-0.0001236684474861,0.000610374379903,0.0121990051120519,-0.1558046638965606,0.0052628237754106,0.0353549197316169,0
16437,-0.0004781512834597,-0.0020336336456239,0.9992436766624452,0.0649353563785553,0.0418795496225357,-0.0938059762120246,0.00052033259999,0.0001646155433263,0.0124060874804854,-0.136785477399826,-0.0177901461720466,0.0358106605708599,0
16457,0.0019374677212908,-0.0009168637334369,1.000444412231445,-0.0624398998916149,-0.2590527534484863,0.0759584233164787,0.0005505388253368,0.0001703866291791,0.0123926354572176,-0.1359960585832595,-0.0186116956174373,0.0352441631257534,0
16497,-0.0002830499142874,-0.0050410698167979,0.9981545805931092,-0.1243892684578895,0.6723319292068481,0.2141999304294586,0.0003204511885996,0.0001672281941864,0.013040866702795,-0.1411973387002945,-0.0093892849981784,0.0335128977894783,0
16617,-0.0005536726675927,-0.0012026579352095,0.9998762011528016,0.137250155210495,-0.0279826018959283,0.2302726358175277,-0.0001158806626335,0.0009939030278474,0.0135303977876901,-0.1797315925359726,0.0041041933000087,0.0325438864529132,0
16687,-0.0007052300497889,-0.0065414360724389,1.0002418756484983,-0.2080351263284683,0.018405606970191,-0.1312343329191208,0.0004769546794705,0.0001747686619637,0.0125508224591612,-0.1459299921989441,-0.0158267989754676,0.0351815931499004,0
16767,0.0009576345910318,-0.0101115033030509,1.0074909925460815,-0.2631925344467163,-0.0745132938027381,0.3136138319969177,-0.0003046938509214,0.000789905374404,0.0129744913429021,-0.1695816218852996,0.011858589015901,0.0501641184091568,0
16897,-0.0111816385760903,-0.0011103006545454,0.9829363822937012,-2.929161787033081,-0.5589599013328552,-1.027423620223999,-0.0010788302170112,0.0015348702436313,0.0132372928783297,-0.1705834120512008,-0.001262925681658,0.1143771111965179,0
16987,-0.0016470118425786,0.0133414799347519,1.0302293300628662,-5.416230201721191,23.91837310791016,2.469451665878296,0.0016339276917278,0.0016367875505238,0.0165152437984943,-0.1473630964756012,-0.2052042335271835,0.135239839553833,0
16987,-0.0016470118425786,0.0133414799347519,1.0302293300628662,-5.416230201721191,23.91837310791016,2.469451665878296,0.002438491443172,0.0017902842955663,0.0167671591043472,-0.1759865283966064,-0.4502404034137726,0.1613379567861557,0
17067,0.0098308892920613,0.011859961785376,0.9914226531982422,-17.250789642333984,-23.627880096435547,3.895456552505493,0.0004083927196916,-0.0042811436578631,0.0212745629251003,0.2486235350370407,0.5939314365386963,0.4464336931705475,0
17107,0.0235144905745983,-0.0010802189353853,1.018359661102295,2.644497871398926,4.783971309661865,4.795119762420654,0.0102851260453462,-0.0037982340436428,0.0171573925763368,-0.4759268760681152,0.7783687114715576,0.6800026297569275,0
17137,0.0065806503407657,0.00736113358289,1.082175612449646,10.437716484069824,11.637805938720703,6.865093231201172,0.015164878219366,-0.0015438545960932,0.0138340685516595,-0.3313901424407959,0.4545040726661682,0.8300415277481079,0
17267,0.0049089407548308,-0.0109357116743922,1.016287088394165,0.8471953272819519,-29.56281852722168,3.6920275688171382,0.0255005359649658,0.0033336039632558,0.0207517817616462,0.0388760678470134,0.5278611183166504,1.3794069290161133,0
17417,0.0160805359482765,-0.0089255273342132,1.0207653045654297,-3.857673168182373,2.1962640285491943,0.9019896388053894,0.0248735044151544,0.0131113454699516,0.0422162525355815,0.5592252016067505,1.5737532377243042,1.8835411071777344,0
17437,0.0063602160662412,-0.0226907134056091,0.987399697303772,8.96341609954834,4.429141521453857,-0.0765010863542556,0.0245026871562004,0.0130142327398061,0.0437210276722908,0.5693199038505554,1.5599415302276611,1.8883525133132932,0
17457,-0.0048244372010231,-0.0123047679662704,0.9697093963623048,11.399752616882324,11.95058250427246,0.7496049404144287,0.0222586579620838,0.0111185675486922,0.0502633303403854,0.9574036598205566,1.453203201293945,1.8944015502929688,0
17467,0.0079652862623333,-0.0030918046832084,0.965206742286682,13.500757217407228,15.179925918579102,0.4384609758853912,0.0222813300788402,0.0113036222755908,0.0518565699458122,1.0958435535430908,1.3117047548294067,1.903120875358581,0
17517,0.005386718083173,-0.005785109475255,0.974630892276764,-9.731425285339355,19.0103816986084,-1.3733071088790894,0.0202111732214689,0.0085294051095843,0.0604001618921756,1.293702483177185,0.5383481383323669,1.861940622329712,0
17617,0.0150845171883702,-0.0052023991011083,0.9895373582839966,-0.4260355830192566,-5.324162006378174,-0.2752942442893982,0.0184339713305234,0.0020377978216856,0.0725616961717605,0.0438189096748828,-0.4940334260463714,1.660807967185974,0
17647,0.0099182790145277,-0.0045932452194392,0.9737938046455384,-5.384501934051514,-7.726025581359863,0.3299459218978882,0.0184550192207098,0.0012758199591189,0.0761336237192154,-0.0161295849829912,-0.3636220693588257,1.6758803129196167,0
17647,0.0099182790145277,-0.0045932452194392,0.9737938046455384,-5.384501934051514,-7.726025581359863,0.3299459218978882,0.0184550192207098,0.0012758199591189,0.0761336237192154,-0.0161295849829912,-0.3636220693588257,1.6758803129196167,0
17657,0.0111250728368759,-0.0055706114508211,0.969301462173462,-5.817750453948975,-6.475593566894531,-0.274650365114212,0.0186861772090196,0.0006849126075394,0.0794875547289848,-0.0701322630047798,-0.3126349151134491,1.6743826866149902,0
17797,0.0167809408158063,-0.0085525913164019,1.0146344900131226,-1.615668773651123,-2.670598030090332,0.5405822396278381,0.0246933363378047,-0.0046818261034786,0.0966246500611305,-0.7974615097045898,-0.2958722710609436,1.5666605234146118,0
17827,0.0109556699171662,-0.0183742512017488,1.030343770980835,3.919708490371704,-10.591458320617676,-0.9787985682487488,0.0250417534261941,-0.0048905718140304,0.0990331619977951,-0.8110544681549072,-0.1798767298460006,1.5632926225662231,0
17907,0.0166429206728935,-0.018768772482872,1.0467289686203003,-2.2307398319244385,2.633105993270874,0.7923836708068848,0.027462588623166,-0.0071350140497088,0.1076209247112274,-0.7401063442230225,0.0900780484080314,1.4723330736160278,0
17957,-0.0004929733695462,-0.0060696653090417,1.086226463317871,2.725472211837769,-5.508613586425781,-1.163892388343811,0.0275567173957824,-0.0082899834960699,0.1135758310556411,-0.7050005793571472,0.1983366906642913,1.4922075271606443,0
18007,0.0163512844592332,-0.0060680215246975,1.0571601390838623,-1.901204228401184,1.2620577812194824,-0.6069101095199585,0.0281794127076864,-0.0074456962756812,0.1198253780603408,-0.6455813646316528,0.3708997666835785,1.4339823722839355,0
18007,0.0163512844592332,-0.0060680215246975,1.0571601390838623,-1.901204228401184,1.2620577812194824,-0.6069101095199585,0.0277968868613243,-0.0083347344771027,0.1220911592245101,-0.6317049264907837,0.3914003670215606,1.4267746210098269,0
18167,-0.0033965616021305,0.011528923176229,1.0367431640625,2.157998561859131,-4.798806190490723,0.1138515248894691,0.035069216042757,-0.0127248307690024,0.1496405452489853,-0.396930068731308,0.4450523257255554,1.3350830078125,0
18227,-0.0003515721182338,-0.004758265800774,1.0241626501083374,-1.0448540449142456,6.473533630371094,1.142309546470642,0.034006904810667,-0.0115241957828402,0.1635123491287231,-0.3440050184726715,0.5353575348854065,1.3415215015411377,0
18237,0.0092754429206252,-6.874943210277706e-05,1.0422313213348389,0.159027025103569,4.978682994842529,1.619375705718994,0.033719714730978,-0.014973247423768,0.1655516922473907,-0.2354326546192169,0.4810691475868225,1.3533174991607666,0
18277,0.0195536967366933,-0.0228206105530262,1.0085363388061523,1.50758159160614,-1.3014758825302124,-1.3557263612747192,0.0336364731192588,-0.0079770591109991,0.1779775172472,-0.4706260561943054,0.3922471404075622,1.3739113807678225,0
18407,0.0044905468821525,-0.0060540330596268,1.0022813081741333,-1.1684901714324951,1.6720302104949951,-0.8495609760284424,0.0324086509644985,-0.0072881793603301,0.2096256017684936,0.1376363933086395,0.1319802850484848,1.3140684366226196,0
18467,0.0144732138141989,-0.0139498440548777,0.9898788928985596,3.9756245613098153,3.692811727523804,0.5376080870628357,0.0295100137591362,-0.0072793052531778,0.2255864441394806,0.3342032134532928,-0.038553349673748,1.3285473585128784,0
18557,0.0071615604683756,-0.0169696249067783,0.9941983819007874,-0.4135018289089203,3.1747419834136963,0.864828884601593,0.026160454377532,-0.0073490273207426,0.2519506812095642,0.3241505920886993,-0.1346628069877624,1.2899105548858645,0
18607,0.0093793608248233,0.0011202712776139,0.979747235774994,0.3126050531864166,-0.0818174853920936,-0.5340482592582703,0.0311156772077083,-0.0063626361079514,0.2642231583595276,0.2663606107234955,-0.3553124368190765,1.2692114114761353,0
18617,0.0095860138535499,-0.0065241032280027,0.9772334694862366,0.3608281016349792,-1.4656182527542114,-0.7649173140525818,0.0307341441512107,-0.0098979761824011,0.2657040655612945,0.3419988453388214,-0.3364060223102569,1.2648112773895264,0
18617,0.0095860138535499,-0.0065241032280027,0.9772334694862366,0.3608281016349792,-1.4656182527542114,-0.7649173140525818,0.0307341441512107,-0.0098979761824011,0.2657040655612945,0.3419988453388214,-0.3364060223102569,1.2648112773895264,0
18627,0.0019044653745368,-0.0106833511963486,0.9745133519172668,-0.2876127064228058,-4.21000862121582,-0.7870358824729919,0.031266301870346,-0.004409004934132,0.2681597173213959,0.226616695523262,-0.3185969293117523,1.255383014678955,0
18767,0.0031048324890434,-0.0210790783166885,1.0097020864486694,-2.739161252975464,-1.3217016458511353,0.3685764372348785,0.0291038770228624,-0.0160577781498432,0.3020006120204925,-0.1668096482753753,-0.0993073508143425,1.2649160623550415,0
18807,0.0143021401017904,-0.0104622449725866,0.991860806941986,-2.411350965499878,-0.5771832466125488,-0.221791073679924,0.0284393113106489,-0.0165673419833183,0.3088517189025879,-0.2144786268472671,-0.020692303776741,1.2689090967178345,0
18807,0.0143021401017904,-0.0104622449725866,0.991860806941986,-2.411350965499878,-0.5771832466125488,-0.221791073679924,0.0294198207557201,-0.017016913741827,0.3112147450447082,-0.2247303873300552,-0.0227045826613903,1.2639317512512207,0
18867,0.0143959550186991,-0.0003974619030486,0.9810584187507628,1.1614468097686768,-1.3572337627410889,-2.2848074436187744,0.0263726878911256,-0.0218492783606052,0.3253919184207916,-0.3068943321704864,-0.0394667834043502,1.2484945058822632,0
18957,0.0059371888637542,-0.0113661875948309,1.020008563995361,-5.634404182434082,3.790842056274414,-0.2923564314842224,0.0267007425427436,-0.0236740689724683,0.3440599739551544,-0.356176346540451,-0.0303689539432525,1.196955323219299,0
18977,0.0144826145842671,-0.0131606720387935,1.0205165147781372,-3.785158395767212,1.5361545085906982,-0.0805983692407608,0.026580711826682,-0.0241392627358436,0.3487160801887512,-0.4290274083614349,-0.0781673192977905,1.191131830215454,0
19027,0.0046023768372833,-0.009336419403553,1.024009346961975,0.9323751330375672,-2.030716180801392,0.7156349420547485,0.0272536315023899,-0.0222189743071794,0.3616767227649688,-0.5074277520179749,-0.1573391407728195,1.219074249267578,0
19157,0.0078947907313704,-0.0114479074254632,0.994841694831848,1.0685791969299316,-0.1801391094923019,-0.8672517538070679,0.0293658468872308,-0.0142058115452528,0.391892671585083,-0.2933571934700012,-0.0693419948220253,1.135706663131714,0
19197,6.145334191387519e-05,-0.0100766038522124,1.007681131362915,6.632043361663818,1.0133658647537231,0.7932080626487732,0.0294621232897043,-0.0132585847750306,0.4031965732574463,-0.2017362117767334,-0.0533451177179813,1.1285914182662964,0
19197,6.145334191387519e-05,-0.0100766038522124,1.007681131362915,6.632043361663818,1.0133658647537231,0.7932080626487732,0.0294621232897043,-0.0132585847750306,0.4031965732574463,-0.2017362117767334,-0.0533451177179813,1.1285914182662964,0
19257,0.0011082633864134,-0.0106615973636507,1.0146106481552124,3.811123371124268,1.015756607055664,0.5760886073112488,0.0303427968174219,-0.0114400284364819,0.4165342450141907,0.0529905073344707,-0.0378553755581378,1.1285184621810913,0
19387,0.0145463701337575,-0.0130800828337669,0.9784142374992372,-0.5364281535148621,3.1931071281433105,0.2122570723295211,0.0327455513179302,-0.0084754712879657,0.451781302690506,0.4142305254936218,0.071779541671276,1.1465260982513428,0
19387,0.0145463701337575,-0.0130800828337669,0.9784142374992372,-0.5364281535148621,3.1931071281433105,0.2122570723295211,0.026992842555046,-0.0086537506431341,0.4543972611427307,0.4376329183578491,0.1094750463962555,1.1493526697158811,0
19397,-0.0150843458250164,-0.0270376093685627,0.9561696648597716,-0.7685685157775879,3.160524845123291,-0.2112533450126648,0.0322393216192722,-0.0065670819021761,0.457217127084732,0.4172912836074829,0.025922518223524,1.1471275091171265,0
19407,-0.0106339929625391,-0.0190389566123485,0.948615789413452,-1.098042607307434,1.2160333395004272,0.4189528524875641,0.0253958664834499,-0.0077218934893608,0.4597868323326111,0.4209754765033722,0.0657548904418945,1.1488820314407349,0
19527,0.0055376864038407,-0.0253754127770662,0.9414376616477966,-4.133410453796387,1.98833966255188,0.17953622341156,0.0235255192965269,-0.0107978777959942,0.4875698983669281,0.3133331835269928,0.0685250014066696,1.148842692375183,0
19567,0.0110589889809489,-0.0120311379432678,0.9374086260795592,-1.803438425064087,2.0022940635681152,0.2658011615276336,0.0251799263060092,-0.0156712308526039,0.4929459393024444,0.2880629599094391,-0.036211609840393,1.1541575193405151,0
19627,0.0038282210007309,-0.0115630747750401,0.9606008529663086,-4.213725090026856,-1.717923641204834,0.0627462491393089,0.0353125855326652,-0.028973376378417,0.4965347349643707,0.1238460913300514,-0.1925843507051468,1.1373220682144165,0
19627,0.0038282210007309,-0.0115630747750401,0.9606008529663086,-4.213725090026856,-1.717923641204834,0.0627462491393089,0.0353125855326652,-0.028973376378417,0.4965347349643707,0.1238460913300514,-0.1925843507051468,1.1373220682144165,0
19647,0.0126059027388691,-0.0229902938008308,0.976620078086853,-4.868203163146973,-3.774493455886841,-0.0280529465526342,0.0361447259783744,-0.0296555738896131,0.4975345730781555,0.0784647166728973,-0.1699853390455246,1.1404139995574951,0
19677,0.0089381085708737,-0.0111851701512932,0.9837727546691896,-6.665541648864746,-5.022529125213623,-1.1757999658584597,0.0360496714711189,-0.0308862328529357,0.5023004412651062,-0.109886810183525,-0.0780632346868515,1.1431645154953003,0
19687,0.012614962644875,-0.0123280538246035,0.9768383502960204,-6.004700660705566,-3.064831495285034,-1.540510177612305,0.0370263941586017,-0.0318782068789005,0.5042445659637451,-0.2408645749092102,0.0034127356484532,1.1228164434432983,0
19717,0.0050516882911324,-0.0113432249054312,0.9852858781814576,-3.055418014526367,-1.5125819444656372,-0.5326414704322815,0.0366201102733612,-0.0318037196993827,0.5079657435417175,-0.4031460583209991,0.066771350800991,1.0945543050765991,0
19727,0.0082980003207921,-0.013458888977766,0.9916417002677916,-1.604853272438049,-1.240155577659607,-0.2556004822254181,0.0377579182386398,-0.0330226458609104,0.5169520974159241,-0.4218866527080536,0.0824935436248779,1.0894752740859983,0
19807,0.0052934880368411,-0.0072437273338437,0.9661434888839722,-0.5239811539649963,-1.164338231086731,-0.9400280714035034,0.0394997224211692,-0.0341984257102012,0.5185956358909607,-0.5267449617385864,0.183981254696846,1.010405421257019,0
19807,0.0052934880368411,-0.0072437273338437,0.9661434888839722,-0.5239811539649963,-1.164338231086731,-0.9400280714035034,0.0394997224211692,-0.0341984257102012,0.5185956358909607,-0.5267449617385864,0.183981254696846,1.010405421257019,0
19877,0.0081521868705749,-0.0164793021976947,0.9870299696922302,-2.6172091960906982,0.2066360563039779,-0.8010905981063843,0.0417250208556652,-0.0341777764260768,0.5189112424850464,-0.5716768503189087,0.2346490323543548,0.95108962059021,0
19937,-0.0006686466513201,-0.0133002586662769,1.0036578178405762,3.5176680088043213,-2.495701313018799,0.5447214841842651,0.0416083633899688,-0.0318391099572181,0.52314692735672,-0.5266844034194946,0.2751098871231079,0.963306963443756,0
20047,0.0252299364656209,-0.0213530287146568,0.9986295700073242,3.980506658554077,0.9999606013298036,-0.1439281851053238,0.0413269326090812,-0.0213664900511503,0.5228146314620972,-0.2168849259614944,0.2435639500617981,0.871067225933075,0
20107,0.018124395981431,-0.0132785225287079,1.0054439306259155,1.9773807525634768,0.5503997206687927,-0.2654025554656982,0.0431327745318412,-0.015173390507698,0.5210936069488525,-0.0840766131877899,0.197773739695549,0.8447914123535156,0
20217,0.0228588972240686,-0.0276202782988548,0.993200659751892,3.7899281978607178,0.2093675136566162,-0.6435341835021973,0.0423421524465084,-0.0058569819666445,0.533577561378479,0.3765921592712402,0.1008340120315551,0.7499297857284546,0
20237,0.0075430436991155,-0.0189038775861263,0.9991443753242492,3.4134421348571777,-0.177005648612976,-1.366182804107666,0.0423008687794208,-0.0052289692685008,0.5349142551422119,0.4479934573173523,0.1064507886767387,0.7237057089805603,0
20237,0.0075430436991155,-0.0189038775861263,0.9991443753242492,3.4134421348571777,-0.177005648612976,-1.366182804107666,0.0423008687794208,-0.0052289692685008,0.5349142551422119,0.4479934573173523,0.1064507886767387,0.7237057089805603,0
20347,0.0041768844239413,-0.0118774762377142,0.9772863388061525,3.3146603107452397,2.313139677047729,-0.2139389812946319,0.0378921069204807,0.0035222263541072,0.5387231707572937,0.6135382652282715,-0.068247266113758,0.6855798959732056,0
20357,0.0061030215583741,-0.0098892906680703,0.984257161617279,2.522186040878296,0.7951943278312683,-0.1231235712766647,0.0363203361630439,0.0027153980918228,0.5392086505889893,0.6542650461196899,-0.0789041519165039,0.6813544631004333,0
20417,-0.0063444697298109,-0.0019242283888161,0.9683991074562072,-1.7825796604156494,0.0875957384705543,-1.1811039447784424,0.0359676070511341,0.0078247906640172,0.5389058589935303,0.662115752696991,-0.0617490895092487,0.6455605626106262,0
20567,0.0089366659522056,0.0039272978901863,1.0095676183700562,4.649184703826904,-0.9210367798805236,0.3049711883068084,0.0368213430047035,0.0151776308193802,0.5419854521751404,0.5521609783172607,-0.1132766902446746,0.7080711126327515,0
20597,0.0222304631024599,-0.0266666486859321,0.995958149433136,-0.2531354427337646,-2.5364317893981934,-0.966399073600769,0.036416906863451,0.0172394625842571,0.5423083305358887,0.5604449510574341,-0.0911117941141128,0.699407160282135,0
20697,0.0185520257800817,-0.0097018051892519,1.0140923261642456,-1.3568589687347412,-2.1423802375793457,-1.341842532157898,0.0347848385572433,0.0153287099674344,0.5377030372619629,0.3084495365619659,-0.0782055705785751,0.6745241284370422,0
20757,0.021466176956892,-0.0155774177983403,1.015615701675415,-1.7111490964889526,1.2415375709533691,0.5632165670394897,0.0362281575798988,0.0144002791494131,0.5408318042755127,0.3699846565723419,-0.0492055788636207,0.6637354493141174,0
20767,0.0180955938994884,-0.0177288874983787,1.0258249044418335,-2.233731269836426,0.2655456364154815,-0.3144238591194153,0.0362146347761154,0.0144019350409507,0.5445513129234314,0.3345488905906677,-0.0564065016806125,0.6683152318000793,0
20877,0.0137460390105843,-0.011953605338931,0.9956905245780944,-0.0267531685531139,-3.243536949157715,-0.4958486258983612,0.0359643697738647,0.0095561323687434,0.5480406880378723,0.0527132228016853,0.0702254697680473,0.6577849388122559,0
20947,0.0050299763679504,-0.0046350103802978,0.9806807041168212,-1.904803276062012,0.003825316671282,0.0593407899141311,0.0370649509131908,0.0092362323775887,0.5500593185424805,-0.1838074326515197,-0.0224263314157724,0.633124053478241,0
21007,0.0086917877197265,-0.0087986560538411,0.9821124076843262,0.7114664912223816,1.0389020442962646,-0.9715034365653992,0.0391039699316024,0.008791871368885,0.5473283529281616,-0.1702334880828857,0.0395211949944496,0.5807831287384033,0
21107,0.0116418628022074,-0.0142784612253308,0.989176630973816,3.2961583137512207,0.1659514605998993,-0.3095143139362335,0.036712359637022,0.0111085642129182,0.5469558238983154,-0.2261691838502884,0.0321122445166111,0.5550320148468018,0
21137,0.0065637505613267,-0.0051294947043061,0.9918850064277648,3.769291877746582,-1.5904659032821655,0.6194303631782532,0.0360378324985504,0.0092609943822026,0.5468698740005493,-0.0972843095660209,0.0589143522083759,0.5675239562988281,0
21277,0.0140293622389435,-0.0046018566936254,1.0140868425369265,-0.7062922716140747,-1.276388168334961,-2.053225517272949,0.0333104319870471,0.0118609592318534,0.5403662323951721,0.0128664253279566,0.0868793055415153,0.5298136472702026,0
21307,0.0031271579209715,0.0008293670834973,1.0100082159042358,-1.923666000366211,3.420773267745972,-0.813378632068634,0.0334261395037174,0.0147074060514569,0.5385344624519348,-0.003807162400335,0.0812967345118522,0.4940147995948791,0
21317,0.0012556485598906,-0.0091018099337816,1.0058833360671997,-1.1317100524902344,4.766673564910889,-0.5851980447769165,0.03336613625288,0.014778827317059,0.5382537841796875,-0.0232386514544487,0.0512618161737918,0.4847175180912018,0
21457,0.0102949049323797,-0.0046620890498161,0.9845831990242004,-2.047082901000977,2.948312997817993,-0.4475091099739074,0.0297556035220623,0.0216476768255233,0.5460650324821472,0.1664143651723861,-0.1623048782348632,0.4051558375358581,0
21517,0.0071274009533226,-0.0090500824153423,0.98806232213974,3.65151572227478,-1.2900420427322388,0.9032427072525024,0.0293740276247262,0.0241704769432544,0.5442779064178467,0.1864853203296661,-0.1977403163909912,0.4223074913024902,0
21577,0.0040878294967114,-0.0070071215741336,0.9869144558906556,-2.51318097114563,1.1954585313796997,-0.2628475725650787,0.0283738635480403,0.027047861367464,0.5407825112342834,0.3085597157478332,-0.0690973699092865,0.439268946647644,0
21687,0.0029802159406244,-0.0152457971125841,1.0222337245941162,-0.7235835790634155,-0.134809523820877,-0.7283125519752502,0.0276507250964641,0.0305254328995943,0.5352979302406311,0.3140815496444702,-0.0598533116281032,0.4236839711666107,0
21687,0.0029802159406244,-0.0152457971125841,1.0222337245941162,-0.7235835790634155,-0.134809523820877,-0.7283125519752502,0.0276507250964641,0.0305254328995943,0.5352979302406311,0.3140815496444702,-0.0598533116281032,0.4236839711666107,0
21717,-0.004356519319117,0.0068378332071006,1.042634129524231,-0.0586585700511932,1.35498046875,0.6841311454772949,0.0281081441789865,0.0276959687471389,0.5348858833312988,0.3001132309436798,-0.0922195762395858,0.4284403324127197,0
21717,-0.004356519319117,0.0068378332071006,1.042634129524231,-0.0586585700511932,1.35498046875,0.6841311454772949,0.0280860792845487,0.0277535393834114,0.5347617268562317,0.2955473363399505,-0.1109511852264404,0.4345521628856659,0
21857,0.0015887609915807,-0.0227027311921119,1.0126919746398926,-3.26804518699646,1.0072497129440308,-0.0858132317662239,0.0311331134289503,0.0296851303428411,0.5261374115943909,0.1177693307399749,-0.0716974958777427,0.3993594348430633,0
21867,0.0156825128942728,-0.0120770949870347,1.037818193435669,-3.351773262023926,1.4431997537612915,0.1170267015695571,0.0311331134289503,0.0296851303428411,0.5261374115943909,0.1177693307399749,-0.0716974958777427,0.3993594348430633,0
21887,0.0077233579941093,-0.0038590859621763,1.0235469341278076,-1.859017014503479,-0.1918275356292724,0.9574670791625975,0.0314109772443771,0.0272259972989559,0.5258195400238037,0.06279157102108,-0.0964860841631889,0.4091101884841919,0
21957,0.0197340007871389,-0.0055675916373729,1.011994481086731,-3.053102731704712,-1.2840501070022583,-1.5974656343460083,0.0370741188526153,0.023860303685069,0.5353729128837585,0.0701456144452095,0.0640948340296745,0.3930916786193847,0
22047,0.004889368545264,0.0014284221688285,0.984520137310028,-3.4184939861297607,-1.9552671909332275,-1.0186502933502195,0.0324290730059146,0.0238614231348037,0.537316083908081,-0.0523757971823215,0.1084750816226005,0.4093160033226013,0
22107,0.0072386711835861,-0.0221419408917427,0.9775417447090148,0.1300863325595855,-0.7372371554374695,-0.0935040786862373,0.0341438800096511,0.0202032830566167,0.5409157276153564,-0.0545267239212989,0.2129700183868408,0.3822471499443054,0
22117,0.0230198353528976,-0.0461068302392959,0.996177852153778,1.0420494079589844,-0.3636282384395599,0.0523222908377647,0.0308604519814252,0.0200978256762027,0.5412179231643677,-0.0500037148594856,0.2313688844442367,0.3829959034919739,0
22237,-0.0059756711125373,-0.0046065878123044,0.9804251790046692,3.70025897026062,-1.0769147872924805,-1.3413944244384766,0.0305143781006336,0.0174628961831331,0.5386205911636353,-0.1823802590370178,0.1439112722873687,0.3748777210712433,0
22317,0.0153716597706079,-0.0200272928923368,1.015807867050171,-7.650474548339844,2.9472782611846924,-1.0774952173233032,0.0267775170505046,0.0218092240393161,0.5345574021339417,-0.1036106869578361,0.0474480651319026,0.3776914179325104,0
22317,0.0153716597706079,-0.0200272928923368,1.015807867050171,-7.650474548339844,2.9472782611846924,-1.0774952173233032,0.026712842285633,0.0218120533972978,0.5376133918762207,-0.1636480093002319,0.0292945597320795,0.3692744374275207,0
22637,0.0020724511705338,-0.0145626123994588,0.99296373128891,-0.1446690708398819,0.3116396963596344,-0.1398020535707473,0.0194331854581832,0.036957386881113,0.5326184034347534,0.1399770826101303,-0.1626231968402862,0.1633610874414444,0
22647,0.0118441125378012,-0.0123875485733151,1.008278727531433,2.5646917819976807,-0.1480326801538467,0.2378036975860595,0.0193326082080602,0.0370829626917839,0.5325223207473755,0.1638373434543609,-0.1636081486940384,0.1662159860134124,0
22667,0.0058716270141303,-0.0151989571750164,1.005063533782959,4.51355504989624,1.4606388807296753,-0.3124094307422638,0.0191595125943422,0.0372780188918113,0.5338021516799927,0.2553164958953857,-0.1837257742881775,0.1641844063997268,0
22677,0.0109048699960112,-0.023687494918704,0.9981430172920228,3.814535140991211,-0.6052861213684082,-0.1108930483460426,0.0190680418163537,0.0373929850757122,0.5337933897972107,0.2993517816066742,-0.1754662543535232,0.1626409292221069,0
22827,0.0051106479950249,-0.0097612664103508,1.0033119916915894,3.6093902587890634,-1.0352147817611694,0.0833036825060844,0.0250081457197666,0.0470561645925045,0.5292308926582336,0.2864161133766174,-0.1195785403251648,0.0939767137169838,0
22837,0.0002278308238601,0.0031227350700646,1.0160152912139893,3.8074355125427246,-0.1871482580900192,0.6548934578895569,0.024560997262597,0.0492827296257019,0.5338876247406006,0.3503797650337219,-0.0963880643248558,0.102762795984745,0
22997,0.0063861333765089,-0.00974300224334,0.9820401072502136,-1.6105293035507202,-2.729139566421509,-1.0023670196533203,0.0280166771262884,0.0558604672551155,0.5307123064994812,0.395372599363327,0.0824074000120163,0.0469064824283123,0
23177,-0.0039538256824016,-0.0139293223619461,1.004873514175415,-2.764134407043457,0.3599187731742859,-1.3317866325378418,0.0350298732519149,0.0472169667482376,0.527749240398407,0.0730535686016082,0.2487119138240814,-0.0068413210101425,0
23187,0.0051457262597978,-0.0121652521193027,1.0101324319839478,-5.828279972076416,4.464927673339844,-0.6866520643234253,0.0351267419755458,0.0471407324075698,0.5277161598205566,0.0240306183695793,0.209465354681015,-0.0148565545678138,0
23317,0.0100231794640421,-0.0083217695355415,0.9911009669303894,-3.0815629959106445,3.481661796569824,-0.2690010666847229,0.0357186906039714,0.0418992564082145,0.5298536419868469,-0.1065278649330139,0.2886539399623871,-0.0886583402752876,0
23387,0.0131044182926416,-0.0097615988925099,0.998820662498474,-0.8187326788902283,-0.4403280913829803,0.0457399934530258,0.0341501720249652,0.0431393273174762,0.5328508019447327,-0.2722809612751007,0.1280443370342254,-0.1049050614237785,0
23447,0.0159626584500074,-0.0113738123327493,0.9769899249076844,0.393854022026062,-0.3781742751598358,-0.1445215940475464,0.034123457968235,0.0427788645029068,0.5279152393341064,-0.13918998837471,0.1724421828985214,-0.0957401543855667,0
23557,0.0234917160123586,-0.0291641242802143,1.008794903755188,-1.7821056842803955,-1.8127282857894895,0.3051058351993561,0.0304665528237819,0.0409315042197704,0.5255107879638672,-0.2086207866668701,-0.0217834543436765,-0.1083804965019226,0
23637,0.0032992148771882,-0.025753391906619,1.0386453866958618,2.5663902759552,1.1314101219177246,-0.0163678620010614,0.0257599335163831,0.0377284809947013,0.5210325121879578,-0.2367121130228042,-0.0563136003911495,-0.1505456417798996,0
23747,0.0149777885526418,-0.0068960567004978,1.0327997207641602,0.6695469617843628,-1.2918236255645752,0.1316525042057037,0.0236806795001029,0.0376440919935703,0.520721971988678,-0.1837164461612701,-0.2578181624412536,-0.192588672041893,0
23817,0.0076007908210158,-0.0136217530816793,1.0101794004440308,4.556378364562988,1.05630624294281,0.2760888338088989,0.0202764365822076,0.0368989780545234,0.5225743055343628,-0.0960122272372245,-0.1911931186914444,-0.2914634346961975,0
23827,0.0188179966062307,-0.0125501444563269,1.0065573453903198,5.178794860839844,1.671106219291687,0.3328733146190643,0.0202764365822076,0.0368989780545234,0.5225743055343628,-0.0960122272372245,-0.1911931186914444,-0.2914634346961975,0
23827,0.0188179966062307,-0.0125501444563269,1.0065573453903198,5.178794860839844,1.671106219291687,0.3328733146190643,0.0202764365822076,0.0368989780545234,0.5225743055343628,-0.0960122272372245,-0.1911931186914444,-0.2914634346961975,0
24007,0.0013561538653448,-0.0138544719666242,1.0055159330368042,1.848287582397461,0.8392589092254639,-0.6329801678657532,0.0245836935937404,0.0431844815611839,0.519707202911377,0.1400708109140396,-0.140107974410057,-0.3443587720394134,0
24027,0.0085172345861792,-0.011436179280281,1.0087484121322632,1.229458570480347,-0.3581306934356689,0.0349238663911819,0.0244920030236244,0.0455082766711711,0.5198453068733215,0.155297502875328,-0.1412074267864227,-0.3463670313358307,0
24027,0.0085172345861792,-0.011436179280281,1.0087484121322632,1.229458570480347,-0.3581306934356689,0.0349238663911819,0.0245111007243394,0.0456118807196617,0.5199972987174988,0.170821413397789,-0.1340804100036621,-0.345601350069046,0
24177,0.0065179876983165,-0.0071201100945472,0.9677322506904602,3.1638286113739014,-1.4986162185668943,-0.278167575597763,0.0278575588017702,0.0479641407728195,0.5267713069915771,0.2093932032585144,0.0090537527576088,-0.3479311466217041,0
24207,0.0042451741173863,-0.011953848414123,0.9758865833282472,0.9653854370117188,-1.746304631233215,-0.0219710599631071,0.0280341077595949,0.0481399968266487,0.5310643911361694,0.2333039939403534,0.0638815462589263,-0.3563829064369201,0
24227,-0.0019980373326689,-0.0077251940965652,0.9810194373130798,-0.2597012519836426,-0.989880621433258,0.4180259704589844,0.0280977804213762,0.0482034161686897,0.5313337445259094,0.2350007593631744,0.0831491500139236,-0.3573979437351227,0
24367,0.0008945919107645,-0.0119992978870868,0.9837625622749328,-0.1470877677202224,-3.785153150558472,0.5426939725875854,0.0327437184751033,0.045986071228981,0.5354765057563782,0.1804422885179519,0.2037151902914047,-0.3388908803462982,0
24387,0.0026491584721952,-0.0082465894520282,0.9739490151405334,-2.3147401809692383,-2.022186517715454,-0.747421145439148,0.0328261256217956,0.0459707714617252,0.5355759859085083,0.1687048077583313,0.2249874919652938,-0.3434272110462188,0
24397,0.0046779364347457,-0.0063053630292415,0.9767293334007264,-1.9027528762817385,0.3151015639305115,-0.8923476338386536,0.0329339616000652,0.0459591336548328,0.5325782895088196,0.149406298995018,0.2372395694255828,-0.3511308133602142,0
24537,0.0111451810225844,-0.0011501917615532,1.0086442232131958,2.5623576641082764,-0.5988234877586365,1.458551049232483,0.0269129332154989,0.0381362810730934,0.5238584876060486,-0.0201804433017969,0.1977393478155136,-0.2888654172420501,0
24557,0.0028207830619066,-0.0003212348674423,1.0091102123260498,1.3616554737091064,-1.047124266624451,0.6532007455825806,0.0295949671417474,0.0435681119561195,0.5233446955680847,-0.0339695364236831,0.1932550072669983,-0.2787059247493744,0
24707,0.0197154730558395,-0.0063379029743373,1.0340676307678225,-3.057955265045166,2.397289991378784,-0.1175308972597122,0.0262728035449981,0.0317005179822444,0.5147143006324768,-0.2073913365602493,-0.0098845623433589,-0.2529355883598327,0
24727,0.0022595622576773,-0.0115537270903587,1.0321252346038818,-3.742248773574829,4.603989124298096,0.6249997615814209,0.0260032098740339,0.0311799626797437,0.5112122893333435,-0.3183761835098266,-0.1035949140787124,-0.2430753409862518,0
24777,0.0286473538726568,-0.0208153333514928,1.0207265615463257,0.8205665349960327,-2.314683437347412,-1.3113631010055542,0.0257053226232528,0.0255400277674198,0.512470543384552,-0.3204141557216644,-0.0851277932524681,-0.2502040266990661,0
24837,0.0024877821560949,-0.00820695143193,1.0367683172225952,-3.180247068405152,5.677623271942139,0.6211101412773132,0.0226330962032079,0.0255946367979049,0.5125243067741394,-0.3227249681949615,-0.0802508518099784,-0.2920453548431396,0
24907,0.0057231583632528,-0.0098096271976828,1.0081456899642944,4.445302486419678,-0.4360955357551574,-1.538554310798645,0.0216257460415363,0.0253463871777057,0.5124502778053284,-0.4109157025814056,-0.1815157830715179,-0.3437070250511169,0
25067,0.0065194629132747,-0.0232027471065521,1.0215981006622314,1.6840934753417969,-1.6290162801742554,0.1002984493970871,0.0183401349931955,0.0247503891587257,0.5180349349975586,-0.137191966176033,-0.2068979740142822,-0.3362022638320923,0
25227,0.0118691306561231,-0.0087719289585947,0.9948796033859252,-1.332137107849121,-1.4184762239456177,0.8973227143287659,0.018868887796998,0.0258826799690723,0.5180637836456299,0.0010964071843773,-0.0790958702564239,-0.3313921689987182,0
25257,-0.0055904909968376,-0.0118733029812574,0.9929016828536988,0.7964432835578918,-0.6557790637016296,1.2778644561767578,0.0208612475544214,0.0257791113108396,0.5172982811927795,0.0162841752171516,-0.0562722720205783,-0.2974211871623993,0
25407,0.0044789784587919,-0.0205807127058506,1.0174089670181274,1.6097968816757202,2.5348658561706543,0.4316295087337494,0.0199713241308927,0.0284321121871471,0.5173290967941284,0.0595362894237041,0.0604047887027263,-0.281748503446579,0
25417,0.0003294822527095,-0.0104864444583654,1.0264625549316406,2.816073417663574,1.004275918006897,0.9067588448524476,0.0199701245874166,0.0284543950110673,0.5173940062522888,0.0794871374964714,0.0420802906155586,-0.2749294936656952,0
25427,0.0018507996574044,-0.0085864784196019,1.0190366506576538,2.470257043838501,-0.1817187219858169,1.0761661529541016,0.0199675243347883,0.028487654402852,0.5190448760986328,0.1337124109268188,0.0302213709801435,-0.2537544369697571,0
25527,0.0117952199652791,-0.027627907693386,0.992048442363739,0.5661566853523254,0.0880002304911613,0.1016458868980407,0.0196375325322151,0.0255325008183717,0.5206552147865295,0.0252597946673631,-0.0219086278229951,-0.2450269609689712,0
25607,0.0071238023228943,-0.015164827927947,0.991905927658081,0.0168508905917406,1.0740081071853638,0.9975403547286988,0.0197162982076406,0.0244906023144722,0.5185080766677856,0.1072282269597053,-0.0093140937387943,-0.2454971075057983,0
25617,0.0034530663397163,-0.0174104887992143,0.9994341731071472,-1.9463165998458865,1.13031268119812,0.48944091796875,0.0197162982076406,0.0244906023144722,0.5185080766677856,0.1072282269597053,-0.0093140937387943,-0.2454971075057983,0
25617,0.0034530663397163,-0.0174104887992143,0.9994341731071472,-1.9463165998458865,1.13031268119812,0.48944091796875,0.0197080932557582,0.0244331378489732,0.5184486508369446,0.0879312381148338,-0.0127270836383104,-0.2393410801887512,0
25707,0.0041253878735005,-0.0183773841708898,0.9836443662643432,1.0173161029815674,0.527446985244751,0.6995586156845093,0.0173815432935953,0.0220531933009624,0.5229873061180115,-0.0661751851439476,-0.0664314553141594,-0.2196312844753265,0
25787,0.0017619841964915,-0.0124111482873559,0.9911159873008728,-1.417322278022766,0.2279147505760193,0.8645601868629456,0.0234511420130729,0.0212726257741451,0.525932252407074,-0.0676175579428672,0.0481836535036563,-0.2319814711809158,0
25887,0.0023531238548457,-0.0114350747317075,0.9865161180496216,-2.126786947250366,-2.5447704792022705,1.226016640663147,0.0242638140916824,0.0176909007132053,0.5180500745773315,-0.1324582397937774,0.0108125377446413,-0.139217734336853,0
25897,0.0044240443967282,-0.0096496641635894,0.982546329498291,-3.12540340423584,-2.6522669792175293,1.1373369693756104,0.0242638140916824,0.0176909007132053,0.5180500745773315,-0.1324582397937774,0.0108125377446413,-0.139217734336853,0
25967,0.0003579881158657,-0.0163197144865989,1.027124285697937,4.209073066711426,-0.512783944606781,0.8546376824378967,0.0237511787563562,0.0154283260926604,0.5104189515113831,-0.236769288778305,0.0748230069875717,-0.1369689702987671,0
25967,0.0003579881158657,-0.0163197144865989,1.027124285697937,4.209073066711426,-0.512783944606781,0.8546376824378967,0.0234920904040336,0.0178693309426307,0.5097856521606445,-0.208772987127304,0.077958196401596,-0.1294117867946624,0
26117,-5.715110455639661e-05,-0.0027328471187502,1.0297428369522097,1.530373454093933,0.6909464597702026,-0.5107409954071045,0.0218711867928504,0.0172138474881649,0.5097257494926453,-0.215751826763153,-0.0203572548925876,-0.1272322386503219,0
26137,0.0124213509261608,-0.0144227715209126,1.0319437980651855,1.176520586013794,0.0579117834568023,-0.0382224917411804,0.0218405872583389,0.0172001477330923,0.5102865695953369,-0.1775911003351211,-0.0331679321825504,-0.1329452246427536,0
26197,-0.0017007458955049,0.0193045772612094,1.0114221572875977,1.4828826189041138,0.2441837340593338,-1.2707574367523191,0.0243333186954259,0.0188758745789527,0.5100159049034119,-0.1134625598788261,-0.0036938518751412,-0.1402953416109085,0
26197,-0.0017007458955049,0.0193045772612094,1.0114221572875977,1.4828826189041138,0.2441837340593338,-1.2707574367523191,0.0243536736816167,0.0189098212867975,0.5097948908805847,-0.1053011640906333,-0.0027761298697441,-0.1547574549913406,0
26297,0.0227456595748662,-0.0184505209326744,0.978596329689026,-1.60395610332489,-0.6837180256843567,-0.9478314518928528,0.0201476905494928,0.0209989454597234,0.5113295912742615,0.009375499561429,-0.006580801680684,-0.1506486535072326,0
26387,0.0101138316094875,-0.0056532626040279,1.0020849704742432,5.863426685333252,0.5050704479217529,-0.2676783204078674,0.0201409440487623,0.0231448654085397,0.5137737989425659,0.0691350325942039,0.010756155475974,-0.1738679558038711,0
26507,0.0091704865917563,-0.0107760690152645,0.9938704371452332,2.6105940341949463,-0.2069702595472335,1.1920688152313232,0.0203261822462081,0.0237194094806909,0.5105528831481934,0.0539015233516693,-0.0623649805784225,-0.1734633445739746,0
26537,0.0079994387924671,-0.0211689658463001,1.0028809309005735,5.089817047119141,-4.009444713592529,0.5983662009239197,0.0193155724555253,0.0234729442745447,0.5103939175605774,0.1510421931743621,-0.0502848923206329,-0.1389926671981811,0
26587,-0.003320425748825,-0.006122768856585,0.9985686540603638,-4.864433288574219,0.8991648554801941,0.4457761645317077,0.0196962859481573,0.0212650503963232,0.5136809945106506,0.1747052818536758,0.0457706227898597,-0.1377404630184173,0
26597,0.0047782738693058,-0.0076569248922169,1.002364158630371,-3.9113364219665527,1.9455868005752563,0.970752775669098,0.0196765139698982,0.0212550181895494,0.5137959718704224,0.1273500621318817,0.0264607351273298,-0.1342722773551941,0
26717,0.0113371973857283,-0.0130336116999387,0.9973618984222412,-2.714919328689575,-0.4414231479167938,-0.074061818420887,0.0136174336075782,0.015834117308259,0.5159993767738342,-0.0390713810920715,-0.0180578343570232,-0.0771116539835929,0
26737,0.0122514283284544,-0.0117350723594427,0.9867538213729858,-2.2617318630218506,-0.3304236233234405,-0.508773922920227,0.013816725462675,0.0127668967470526,0.5164666771888733,-0.059907279908657,-0.0299228131771087,-0.103359006345272,0
26907,-0.0010126591660082,-0.0136717809364199,1.0102143287658691,-1.128218650817871,-0.8431956171989441,-0.085165835916996,0.0061947829090058,0.0068678073585033,0.5115624070167542,-0.1877086758613586,-0.1495394259691238,-0.0886119976639747,0
26917,0.0057103130966424,-0.0067351786419749,1.0203757286071775,-1.9230306148529053,-1.7645889520645142,-0.4944207370281219,0.0059918719343841,0.010719733312726,0.5111754536628723,-0.2016561925411224,-0.129040315747261,-0.0895404741168022,0
27087,0.007255527190864,-0.0074274674989283,0.9985237121582032,-1.1311625242233276,0.6877116560935974,-0.3838715255260467,0.0004035094461869,0.0104076378047466,0.5086545348167419,-0.1703822463750839,-0.2472091317176818,-0.128102496266365,0
27117,0.0070957904681563,-0.006538176909089,1.0036512613296509,-2.549896001815796,1.512825608253479,0.1130180954933166,0.000221311012865,0.0104492828249931,0.5110262036323547,-0.2067394852638244,-0.251147985458374,-0.1379073858261108,0
27277,0.0090783154591918,-0.0220712218433618,1.024665355682373,1.9208359718322756,-1.1910580396652222,-0.029804041609168,0.0063456478528678,0.0176372937858104,0.5035840272903442,0.0535354055464267,-0.0741427764296531,-0.0725690200924873,0
27287,0.0002656714932527,-0.0115231461822986,1.011752724647522,0.3805410265922546,-0.3070558607578277,-0.117278516292572,0.0063964584842324,0.0177800990641117,0.5033376812934875,0.0835073590278625,-0.0508918091654777,-0.0679137781262397,0
27297,0.0097759207710623,-0.0203210525214672,1.0093886852264404,-1.2664847373962402,0.0623626597225666,0.1552050709724426,0.0090713696554303,0.0178638100624084,0.5028951168060303,0.1004319041967392,-0.0510128997266292,-0.0659047216176986,0
27457,0.00035710161319,-0.0057589318603277,1.008151888847351,-3.1883139610290527,-1.6016120910644531,-0.5590546727180481,0.0176710542291402,0.0194430388510227,0.5064239501953125,0.2314223796129226,0.0925225690007209,-0.0554391965270042,0
27477,0.0216391310095787,-0.0249940119683742,1.0129380226135254,-1.6753697395324707,-2.3734776973724365,0.5617209672927856,0.0162970926612615,0.0205512568354606,0.5070511102676392,0.1681417673826217,0.1376281678676605,-0.065688818693161,0
27617,0.0101877581328153,-0.0073785218410193,0.9692829847335817,0.6563860177993774,-0.2864624559879303,1.396645426750183,0.0218733176589012,0.0197310596704483,0.5145127177238464,0.1170627921819686,0.2503904402256012,0.0460042245686054,0
27627,0.0156802143901586,-0.0116591863334178,0.9783126711845398,-0.3139550387859344,-1.406402826309204,1.09674334526062,0.0219995528459548,0.0197560358792543,0.5147765278816223,0.1199333518743515,0.2614237368106842,0.0606068670749664,0
27647,0.0082769338041543,-0.0009062052704393,0.9650681018829346,1.4132637977600098,-2.2848713397979736,0.1285399496555328,0.021538358181715,0.0174439549446105,0.5150148868560791,0.1347434669733047,0.281510055065155,0.0693930685520172,0
27657,0.008266563527286,0.0007311110966838,0.965154767036438,2.158070802688598,-1.6648248434066772,-0.2878880202770233,0.023438237607479,0.0170332696288824,0.5156279802322388,0.1523403376340866,0.3107673525810241,0.0698126256465911,0
27797,0.0034070403780788,-0.0147927831858396,1.0088353157043457,1.2285343408584597,-3.3768534660339355,0.995166540145874,0.0310674477368593,0.0071578910574316,0.515165388584137,-0.0608709305524826,0.3048704862594604,0.1522866934537887,0
27827,0.0009167701355181,-0.0066303582862019,0.9911460876464844,-2.6679344177246094,-0.8762416839599609,0.103946603834629,0.031334176659584,0.0068212836049497,0.5150972008705139,-0.0529638305306434,0.3530550599098205,0.1712475419044494,0
27917,0.0102632530033588,-0.0135306632146239,0.9974943995475768,2.3187570571899414,0.2998420298099518,-0.0509036369621753,0.0293633639812469,0.0051012500189244,0.5115824341773987,-0.3006964921951294,0.2990826368331909,0.1775515079498291,0
27977,-0.0068976795300841,-0.0032338581513613,0.9995034337043762,-0.3040800094604492,2.8014848232269287,-0.077306292951107,0.0250875707715749,0.0044466708786785,0.5125884413719177,-0.2862842381000519,0.2011951506137848,0.1681111007928848,0
27997,-0.0039357151836156,-0.0011680250754579,0.9994796514511108,0.1119846627116203,0.5308470726013184,-0.4598135352134704,0.0248876493424177,0.0041558262892067,0.512451708316803,-0.3148280680179596,0.1501228213310241,0.160735473036766,0
28037,0.0141706317663192,-0.014268678613007,1.0130150318145752,0.4538665115833282,3.257946014404297,-0.8930197358131409,0.0226614922285079,0.0042303227819502,0.5101508498191833,-0.2920744717121124,0.1020104736089706,0.1270753592252731,0
28147,0.0025744172744452,-0.0092976912856101,0.998886227607727,2.043438196182251,2.690351247787476,-0.4574544131755829,0.017516965046525,0.0034850330557674,0.507893443107605,-0.2047009021043777,-0.1396621912717819,0.0970416367053985,0
28167,0.0041935332119464,-0.0190476141870021,1.0178896188735962,2.922501802444458,4.134804725646973,0.4926488399505615,0.0127688124775886,0.0028726349119096,0.5077478289604187,-0.1713073551654815,-0.1406781822443008,0.0975491106510162,0
28177,0.0180128533393144,-0.0132088828831911,0.9993373155593872,0.2060476541519165,2.7490336894989014,0.5748562812805176,0.0125421602278947,0.0028433834668248,0.5076102614402771,-0.1431534886360168,-0.1728753000497818,0.1018275395035743,0
28317,0.023599699139595,-0.0141845811158418,1.0092918872833252,-1.061601996421814,1.4049564599990845,-1.0505592823028564,0.0100918654352426,0.0053181597031652,0.5065087676048279,-0.0309138055890798,-0.4372488558292389,0.0914394706487655,0
28337,0.0009740532841533,-0.0081743989139795,1.0029467344284058,0.6188837885856628,0.7563891410827637,-0.0863709449768066,0.0076726037077605,0.0050046485848724,0.5065233111381531,-0.024788225069642,-0.4459208250045776,0.0792835429310798,0
28347,-0.0028755550738424,-0.0098896501585841,1.0057874917984009,1.5464239120483398,0.5821093916893005,0.1752300709486007,0.0108355749398469,0.0043408470228314,0.5067130327224731,-0.0104106618091464,-0.4684362709522247,0.0785425975918769,0
28507,0.0064533450640738,-0.0080384528264403,0.990461766719818,0.5848948359489441,-1.1361421346664429,0.1597983390092849,0.0156258940696716,0.0093969888985157,0.5067479014396667,0.0906260833144187,-0.1960771083831787,0.1215568855404853,0
28527,-0.002227138262242,-0.004917733836919,1.0085657835006714,0.3607587516307831,-1.7422844171524048,0.4624376893043518,0.0151501484215259,0.0122196953743696,0.5068064332008362,0.0904397740960121,-0.1642098575830459,0.1244919151067733,0
28627,0.0033863163553178,-0.015546784736216,1.0224229097366333,1.360855221748352,0.0528946593403816,0.8770468235015869,0.018111053854227,0.0128271291032433,0.5060732364654541,0.1718056499958038,0.0416281670331954,0.1283865571022033,0
28677,0.0018195935990661,-0.0078903408721089,0.9894548058509828,-0.3506940305233001,-2.058518886566162,-0.841350257396698,0.0209209211170673,0.0133412973955273,0.5034953951835632,0.1700833141803741,0.0770790427923202,0.1348430216312408,0
28707,0.0021693194285035,-0.0124408993870019,1.0078290700912476,1.2750239372253418,-2.182291984558105,0.082839161157608,0.0213317982852458,0.0135208293795585,0.504329264163971,0.1692154556512832,0.1291731745004654,0.1277175098657608,0
28727,0.0086613353341817,-0.0147419879212975,1.0127891302108765,3.75682544708252,-1.3930803537368774,0.7347595691680908,0.0214699767529964,0.0135793425142765,0.5043104887008667,0.1858631074428558,0.1490899920463562,0.1336912512779235,0
28867,0.0105436565354466,-0.0111102098599076,1.002066969871521,-3.885822296142578,1.1934531927108765,-0.2052880078554153,0.0288062971085309,0.0067047947086393,0.5036718249320984,0.1064324527978897,0.3133140504360199,0.1381827741861343,0
28877,0.0057424749247729,-0.0113777071237564,1.0086607933044434,-1.9089128971099851,1.2447128295898438,-0.0468850173056125,0.0290387775748968,0.0065426072105765,0.507297158241272,0.045350182801485,0.299034833908081,0.1348030567169189,0
28937,0.0122463358566164,-0.0091446070000529,0.9938910603523254,-3.325244188308716,0.2459123730659485,-0.3741091787815094,0.028749955818057,0.0032215102110058,0.5108644366264343,0.0066547808237373,0.3325646221637726,0.1501561403274536,0
29037,0.0148172248154878,-0.0011623995378613,0.9880618453025818,-1.8473376035690308,1.4347327947616575,-0.7974591255187988,0.028985321521759,0.000959159922786,0.5134966373443604,-0.1582417041063308,0.3368563055992126,0.1376914232969284,0
29067,0.0162664856761693,-0.0214310735464096,0.9934821724891664,-2.036238431930542,1.945667743682861,-0.4135521650314331,0.0271154940128326,0.0001918988709803,0.514212965965271,-0.2506718039512634,0.2886859774589538,0.1177288442850112,0
29167,0.0155449267476797,-0.016841921955347,0.9866578578948976,0.4587074220180511,5.191514492034912,0.1119553670287132,0.0189608708024024,-0.0021309852600097,0.5155777931213379,-0.2555548846721649,0.1534476429224014,0.0801653712987899,0
29167,0.0155449267476797,-0.016841921955347,0.9866578578948976,0.4587074220180511,5.191514492034912,0.1119553670287132,0.0187758710235357,-0.0022892551496624,0.5123205780982971,-0.2551064789295196,0.1016208380460739,0.0800953358411789,0
29237,0.0160773824900388,-0.0469622686505317,0.97544926404953,-2.399465799331665,0.1317217051982879,-1.169052004814148,0.0197954643517732,-0.0019390250090509,0.5113147497177124,-0.3019959032535553,-0.0465444922447204,0.0650397092103958,0
29247,0.013890198431909,-0.0210522711277008,0.9911866784095764,-0.4512954652309418,0.4916189610958099,-0.913418173789978,0.0194448474794626,-0.0021146063227206,0.5052290558815002,-0.3186406195163727,-0.046346940100193,0.0458031445741653,0
29387,0.0025913291610777,-0.0065739741548895,1.050801396369934,2.2029502391815186,3.275999069213867,0.6038649678230286,0.0049224351532757,0.0056066089309751,0.5017103552818298,-0.0868145450949668,-0.3525506854057312,-0.0086066145449876,0
29567,0.0112711517140269,-0.0091620832681655,0.982590913772583,2.808095693588257,-1.4647258520126345,-0.0329525284469127,0.0004050222341902,0.0123108439147472,0.5003647208213806,0.1402306109666824,-0.5136966109275818,-0.0526702255010604,0
29587,-0.0013425283832475,-0.0113689070567488,1.0068145990371704,4.459234714508057,-2.026167869567871,1.07953143119812,0.00268250470981,0.0115001602098345,0.4998119175434112,0.2242501974105835,-0.4808293879032135,-0.0421623401343822,0
29637,0.0137488674372434,-0.0214199870824813,1.0086958408355713,-3.26165771484375,-0.6289374828338623,-0.3925190269947052,0.0026994319632649,0.0134794581681489,0.5017420649528503,0.3191805779933929,-0.4798467457294464,-0.0279367733746767,0
29647,-0.0089415861293673,0.0086567401885986,1.0077109336853027,-1.851139068603516,-0.6188282370567322,-0.6658146381378174,0.0026856192853301,0.0136039769276976,0.5017141699790955,0.2981265485286712,-0.4704792499542236,-0.033365610986948,0
29747,0.014340566471219,-0.0118220942094922,0.999290943145752,1.277681589126587,-3.6432909965515137,0.1832359433174133,0.010278127156198,0.012908068485558,0.5002180337905884,0.3014490306377411,-0.1821491420269012,-0.026212953031063,0
29777,-0.0101844472810626,-0.0080346101894974,0.9828444123268129,-1.90667188167572,-0.5175260305404663,-0.4196312725543976,0.0074904928915202,0.0132149159908294,0.4998694062232971,0.2922956645488739,-0.1487112939357757,-0.0308526158332824,0
29777,-0.0101844472810626,-0.0080346101894974,0.9828444123268129,-1.90667188167572,-0.5175260305404663,-0.4196312725543976,0.0076029044575989,0.0132558466866612,0.4999628067016601,0.2801192998886108,-0.1499827206134796,-0.0328043736517429,0
29927,0.0140814622864127,-0.000110305394628,0.9921796917915344,-0.5372888445854187,-0.5149067044258118,0.0923009067773819,0.0124555546790361,0.0060124197043478,0.5063874125480652,0.0972177535295486,0.1994907557964325,-0.0368595272302627,0
30087,0.014310342259705,-0.0075474106706678,0.9932956099510192,-1.5942705869674685,0.8551256060600281,-0.3453143239021301,0.0169448219239711,0.0032684868201613,0.506933867931366,-0.2153463810682296,0.2848643362522125,-0.0391855016350746,0
30177,0.0040610856376588,-0.0094832209870219,0.9951441287994384,-1.6405214071273804,2.2228453159332275,-0.6615707874298096,0.0153232449665665,-0.0005796870682388,0.5046854019165039,-0.2509829103946686,0.3049546182155609,-0.0656420812010765,0
30177,0.0040610856376588,-0.0094832209870219,0.9951441287994384,-1.6405214071273804,2.2228453159332275,-0.6615707874298096,0.0153232449665665,-0.0005796870682388,0.5046854019165039,-0.2509829103946686,0.3049546182155609,-0.0656420812010765,0
30187,0.0037486951332539,-0.0068562026135623,0.9989614486694336,-1.9346044063568115,3.242893695831299,-0.283370703458786,0.0158835127949714,0.0018704443937167,0.5045620203018188,-0.2851440906524658,0.2760119438171386,-0.0678269192576408,0
30327,0.0011916507501155,-0.0156602784991264,1.030359148979187,3.338661193847656,2.018718719482422,0.4862466156482696,0.0147560704499483,0.0035144609864801,0.5039284825325012,-0.1997369527816772,0.0940736457705497,-0.0827265083789825,0
30367,0.0066129770129919,-0.0074990019202232,1.0027626752853394,1.067198634147644,-2.107308149337769,-1.0595492124557495,0.0119926361367106,0.0030162022449076,0.5059438943862915,-0.0905303955078125,0.1127916797995567,-0.0751983299851417,0
30377,0.0101144025102257,-0.0110140815377235,1.0078136920928955,-0.0991102531552314,-0.1522151827812194,-1.1386771202087402,0.0119926361367106,0.0030162022449076,0.5059438943862915,-0.0905303955078125,0.1127916797995567,-0.0751983299851417,0
30377,0.0101144025102257,-0.0110140815377235,1.0078136920928955,-0.0991102531552314,-0.1522151827812194,-1.1386771202087402,0.0119926361367106,0.0030162022449076,0.5059438943862915,-0.0905303955078125,0.1127916797995567,-0.0751983299851417,0
30377,0.0101144025102257,-0.0110140815377235,1.0078136920928955,-0.0991102531552314,-0.1522151827812194,-1.1386771202087402,0.0118006281554698,0.0030688557308167,0.5064582824707031,-0.1062900722026825,0.1088960096240043,-0.0968815088272094,0
30577,0.0110163949429988,-0.0172662548720836,0.9950633645057678,3.1958508491516118,1.3064110279083252,-1.2136776447296145,0.0017359510529786,0.0156561769545078,0.5106139779090881,0.1974009722471237,-0.2934530973434448,-0.127396821975708,0
30597,0.010940876789391,-0.0173113215714693,0.9918904304504396,-0.8418808579444885,0.5774074196815491,-0.241435095667839,0.0014079404063522,0.0160349458456039,0.5108492970466614,0.1985232234001159,-0.3387878239154815,-0.1478772908449173,0
30757,0.0013117576017975,-0.0142335733398795,1.0116212368011477,0.9192331433296204,-1.9015434980392456,0.7457931041717529,-0.0015713276807218,0.0209062546491622,0.5039316415786743,0.335494190454483,-0.3824421167373657,-0.0928040593862533,0
30777,0.0051438785158097,-0.0197045281529426,1.0333373546600342,0.8323933482170105,-4.340872764587402,0.396803617477417,-0.0023725994396954,0.0203061997890472,0.5044816732406616,0.3693809807300567,-0.3256743848323822,-0.080570638179779,0
30837,0.0030138723086565,-0.0118334582075476,0.9959657192230223,-1.8430737257003784,0.7506574392318726,0.3528397381305694,-0.0028950180858373,0.0205242913216352,0.5060532093048096,0.316620260477066,-0.2418347001075744,-0.0754150301218032,0
30887,0.0137114711105823,-0.0237576849758625,0.9980435967445374,-1.2053858041763306,-3.243577718734741,-0.1621186137199401,-0.0016547864070162,0.0208145454525947,0.5021940469741821,0.2980570197105407,-0.1880871504545211,-0.0579952523112297,0
30967,0.0103484457358717,-0.004456793423742,0.9999701380729676,-2.9575436115264893,-0.2209516912698745,0.299610286951065,0.0029006053227931,0.0184389203786849,0.5067616105079651,0.1502648591995239,-0.0465855076909065,-0.0676814913749694,0
30977,0.0140617415308952,-0.0042004096321761,1.00079083442688,0.9584551453590392,-1.5228906869888306,-0.3972932994365692,0.0029006053227931,0.0184389203786849,0.5067616105079651,0.1502648591995239,-0.0465855076909065,-0.0676814913749694,0
31067,0.0065623596310615,-0.0102933244779706,0.9998457431793212,-1.420380711555481,-1.6605528593063354,0.1284777522087097,0.0113969109952449,0.013738177716732,0.5075420141220093,0.0605691000819206,0.1237826719880104,-0.1288932710886001,0
31137,0.0040193479508161,-0.0083513362333178,0.991865873336792,-2.366840124130249,-0.7382742166519165,-0.8571866750717163,0.0116089489310979,0.0080528231337666,0.5079222321510315,-0.0150495171546936,0.2893998026847839,-0.163508728146553,0
31247,0.0108731565997004,-0.0154939116910099,1.0152883529663086,-2.684617519378662,-1.0334652662277222,-0.7933875918388367,0.0142226284369826,0.0016878732712939,0.5031062960624695,-0.2395273000001907,0.3102611005306244,-0.2142756879329681,0
31297,0.0061170617118477,-0.0130038522183895,1.0295515060424805,-1.2979260683059692,1.060403823852539,0.1630710959434509,0.0139885079115629,-0.0026934798806905,0.5029957890510559,-0.3878799676895141,0.2969754338264465,-0.2284188270568847,0
31327,0.0026679534930735,-0.0047748433426022,1.0076355934143066,-2.131957530975342,0.2438774704933166,-0.2830054759979248,0.0138083947822451,-0.0065226326696574,0.5033555626869202,-0.3851748406887054,0.307155042886734,-0.2341899126768112,0
31427,0.0144457463175058,-0.0048074792139232,1.0071698427200315,1.2275902032852173,-2.5026097297668457,-0.1472648531198501,0.0147094679996371,-0.0109128318727016,0.5021786093711853,-0.5070077776908875,0.140759989619255,-0.2335321903228759,0
31487,0.0060940058901906,-0.0050986758433282,1.0052649974822998,0.1818535029888153,4.252127170562744,-0.3179700672626495,0.0105513278394937,-0.0133448364213109,0.5017119646072388,-0.5906645655632019,0.1431004703044891,-0.2688128352165222,0
31557,0.0054073873907327,-0.0093394070863723,0.9975153207778932,-1.711787462234497,1.5229004621505735,-0.9070186018943788,0.0079647591337561,-0.0115020601078867,0.5032700896263123,-0.4807333350181579,0.0454955957829952,-0.2496735155582428,0
31627,0.0121584311127662,-0.0145476460456848,0.9996992349624634,5.493039131164551,1.976104021072388,0.3766016066074371,0.0026741893962025,-0.0138008771464228,0.5060192346572876,-0.3774467706680298,-0.1281670331954956,-0.2640237212181091,0
31677,0.0108408341184258,-0.0207459647208452,1.0055996179580688,-1.4908840656280518,2.499110460281372,-0.5310952067375183,0.0035709093790501,-0.0098246168345212,0.5038118958473206,-0.2940915524959564,-0.1461414247751236,-0.2506025433540344,0
31697,-0.002616416895762,-0.0277946200221776,1.0037919282913208,0.6055794358253479,3.189551591873169,-0.233743667602539,0.0033185428474098,-0.009727980941534,0.504046618938446,-0.3181604743003845,-0.189203679561615,-0.2535204887390136,0
31807,0.0064398474059998,-0.0033291683066636,0.991912841796875,-1.623122215270996,-1.0220354795455933,-0.037171971052885,0.002130345441401,-0.001554214162752,0.5084508657455444,-0.0402574203908443,-0.2780868411064148,-0.236778050661087,0
31817,0.0031460316386073,-0.0111863724887371,0.9967807531356812,0.8153414130210876,-0.7625423073768616,0.2065003663301468,0.002130345441401,-0.001554214162752,0.5084508657455444,-0.0402574203908443,-0.2780868411064148,-0.236778050661087,0
31877,0.0081027681007981,-0.0193240884691476,1.0096458196640017,3.263033628463745,0.6056467294692993,0.3045954406261444,0.0041591497138142,0.0024858703836798,0.504061758518219,0.2593052387237549,-0.2381374388933181,-0.1975234299898147,0
31887,0.010247147642076,-0.0279066190123558,0.9952345490455629,1.5204671621322632,-0.6257336735725403,-0.5662058591842651,0.0041490807197988,0.0026934982743114,0.5039576888084412,0.2737350463867187,-0.2477722465991974,-0.1974296569824218,0
32047,0.0029679196886718,-0.0166145432740449,1.0135729312896729,1.1121524572372437,-3.302778720855713,0.3392278850078583,0.0097845699638128,0.0058985226787626,0.5045320987701416,0.3179838955402374,-0.1153127029538154,-0.1929032653570175,0
32067,0.0008379073115065,-0.0088018933311104,1.0123093128204346,1.9243475198745728,-4.549958229064941,0.5675435662269592,0.0075162299908697,0.0044382307678461,0.5037862658500671,0.3623254895210266,-0.0057001146487891,-0.1846399307250976,0
32227,-0.0064531960524618,0.0030455135274678,0.9813066124916076,-7.9907145500183105,0.1821649670600891,-0.3609188199043274,0.0132042160257697,-0.006707252934575,0.501795768737793,0.1159170791506767,0.1684280037879943,-0.1909095495939254,0
32257,5.5191965657286346e-05,-0.0117603251710534,0.992004930973053,-1.2844555377960205,-0.4172140657901764,-0.166614681482315,0.0134075777605175,-0.0092050749808549,0.5018110871315002,0.0448410548269748,0.1696695536375045,-0.2085139006376266,0
32257,5.5191965657286346e-05,-0.0117603251710534,0.992004930973053,-1.2844555377960205,-0.4172140657901764,-0.166614681482315,0.0135069955140352,-0.009393585845828,0.501808762550354,0.0336175225675106,0.1686801612377166,-0.2129631042480468,0
32317,0.0181579310446977,-0.023650873452425,1.0185327529907229,-5.779668807983398,-2.330230712890625,-0.0813431441783905,0.0134000806137919,-0.0141616417095065,0.5036369562149048,-0.0285579971969127,0.1740502417087555,-0.203256070613861,0
32447,0.0052916831336915,-9.150621190201492e-05,0.9988083243370056,-3.2417778968811035,-1.2825548648834229,-0.020678112283349,0.0128753148019313,-0.0235335417091846,0.5068588852882385,-0.4329026639461517,0.1779157966375351,-0.2342841178178787,0
32467,0.0036387525033205,-0.0053594228811562,0.9963773488998412,-3.1010022163391118,0.553835391998291,-1.1094801425933838,0.015221182256937,-0.0276427641510963,0.5070804357528687,-0.4451044201850891,0.1886004656553268,-0.2411223351955413,0
32467,0.0036387525033205,-0.0053594228811562,0.9963773488998412,-3.1010022163391118,0.553835391998291,-1.1094801425933838,0.0152612272650003,-0.0279392749071121,0.5072990655899048,-0.480644553899765,0.1858119368553161,-0.2533520758152008,0
32567,0.0107054514810442,-0.0137859722599387,1.0168358087539673,-1.0166733264923096,-0.7714539766311646,-0.3166710138320923,0.0135890496894717,-0.0336003750562667,0.498923122882843,-0.5773094296455383,0.1038351953029632,-0.2353865057229995,0
32637,0.0101501373574137,-0.0133066941052675,1.015960931777954,5.371425151824951,1.3548272848129272,0.7031829953193665,0.0122190751135349,-0.0355883054435253,0.5022056102752686,-0.6419169902801514,0.0136927999556064,-0.2440054565668106,0
32727,0.0109270336106419,-0.0073108989745378,1.0210075378417969,2.8854787349700928,2.384913682937622,-0.0404500067234039,0.011522551998496,-0.0319268256425857,0.500339686870575,-0.5551159977912903,0.0104462131857872,-0.2564745545387268,0
32817,0.0168423373252153,-0.0079190302640199,0.997192680835724,0.1536589115858078,1.4011352062225342,-1.3135426044464111,0.0105629879981279,-0.0271787215024232,0.5015866756439209,-0.2381777316331863,-0.0505153611302375,-0.243898257613182,0
32907,-0.0065468996763229,-0.0057398057542741,0.9793926477432252,0.7377936244010925,2.575773239135742,-0.3283572793006897,0.0063982107676565,-0.0228150021284818,0.5056098103523254,0.0960821658372879,-0.1254956424236297,-0.2456756234169006,0
32967,0.0110252629965543,-0.0124519979581236,0.9839194416999816,4.932017803192139,0.2992975115776062,-0.4361926615238189,0.0045077656395733,-0.0165980216115713,0.5084757208824158,0.1225499287247657,-0.1885877698659896,-0.2899012863636017,0
32987,0.005035653244704,-0.0152763603255152,0.9879539608955384,5.301516056060791,-0.4030242562294006,0.4358642101287842,0.0022086552344262,-0.0174887236207723,0.5090292096138,0.2207111269235611,-0.1821387857198715,-0.2899951040744781,0
32987,0.005035653244704,-0.0152763603255152,0.9879539608955384,5.301516056060791,-0.4030242562294006,0.4358642101287842,0.0022086552344262,-0.0174887236207723,0.5090292096138,0.2207111269235611,-0.1821387857198715,-0.2899951040744781,0
33127,0.0041869925335049,-0.0085676107555627,0.99909907579422,2.4653000831604004,0.4344667196273803,0.4571206569671631,0.0018466586479917,-0.012020943686366,0.5078958868980408,0.3271935284137726,-0.1917871087789535,-0.2918733656406402,1
33157,0.0041869925335049,-0.0085676107555627,0.99909907579422,2.4653000831604004,0.4344667196273803,0.4571206569671631,0.0018466586479917,-0.012020943686366,0.5078958868980408,0.3271935284137726,-0.1917871087789535,-0.2918733656406402,1
33247,0.0041869925335049,-0.0085676107555627,0.99909907579422,2.4653000831604004,0.4344667196273803,0.4571206569671631,0.0018466586479917,-0.012020943686366,0.5078958868980408,0.3271935284137726,-0.1917871087789535,-0.2918733656406402,1
33307,0.0041869925335049,-0.0085676107555627,0.99909907579422,2.4653000831604004,0.4344667196273803,0.4571206569671631,0.0018466586479917,-0.012020943686366,0.5078958868980408,0.3271935284137726,-0.1917871087789535,-0.2918733656406402,1
33327,0.0041869925335049,-0.0085676107555627,0.99909907579422,2.4653000831604004,0.4344667196273803,0.4571206569671631,0.0018466586479917,-0.012020943686366,0.5078958868980408,0.3271935284137726,-0.1917871087789535,-0.2918733656406402,1
33337,0.0041869925335049,-0.0085676107555627,0.99909907579422,2.4653000831604004,0.4344667196273803,0.4571206569671631,0.0018466586479917,-0.012020943686366,0.5078958868980408,0.3271935284137726,-0.1917871087789535,-0.2918733656406402,1
33477,0.0041869925335049,-0.0085676107555627,0.99909907579422,2.4653000831604004,0.4344667196273803,0.4571206569671631,0.0018466586479917,-0.012020943686366,0.5078958868980408,0.3271935284137726,-0.1917871087789535,-0.2918733656406402,1
33487,0.0041869925335049,-0.0085676107555627,0.99909907579422,2.4653000831604004,0.4344667196273803,0.4571206569671631,0.0018466586479917,-0.012020943686366,0.5078958868980408,0.3271935284137726,-0.1917871087789535,-0.2918733656406402,1
33507,0.0041869925335049,-0.0085676107555627,0.99909907579422,2.4653000831604004,0.4344667196273803,0.4571206569671631,0.0018466586479917,-0.012020943686366,0.5078958868980408,0.3271935284137726,-0.1917871087789535,-0.2918733656406402,1
33597,0.0041869925335049,-0.0085676107555627,0.99909907579422,2.4653000831604004,0.4344667196273803,0.4571206569671631,0.0018466586479917,-0.012020943686366,0.5078958868980408,0.3271935284137726,-0.1917871087789535,-0.2918733656406402,1
33657,0.0041869925335049,-0.0085676107555627,0.99909907579422,2.4653000831604004,0.4344667196273803,0.4571206569671631,0.0018466586479917,-0.012020943686366,0.5078958868980408,0.3271935284137726,-0.1917871087789535,-0.2918733656406402,1
33677,0.0041869925335049,-0.0085676107555627,0.99909907579422,2.4653000831604004,0.4344667196273803,0.4571206569671631,0.0018466586479917,-0.012020943686366,0.5078958868980408,0.3271935284137726,-0.1917871087789535,-0.2918733656406402,1
33777,0.0041869925335049,-0.0085676107555627,0.99909907579422,2.4653000831604004,0.4344667196273803,0.4571206569671631,0.0018466586479917,-0.012020943686366,0.5078958868980408,0.3271935284137726,-0.1917871087789535,-0.2918733656406402,1
33837,0.0041869925335049,-0.0085676107555627,0.99909907579422,2.4653000831604004,0.4344667196273803,0.4571206569671631,0.0018466586479917,-0.012020943686366,0.5078958868980408,0.3271935284137726,-0.1917871087789535,-0.2918733656406402,1
33847,0.0041869925335049,-0.0085676107555627,0.99909907579422,2.4653000831604004,0.4344667196273803,0.4571206569671631,0.0018466586479917,-0.012020943686366,0.5078958868980408,0.3271935284137726,-0.1917871087789535,-0.2918733656406402,1
33897,0.0041869925335049,-0.0085676107555627,0.99909907579422,2.4653000831604004,0.4344667196273803,0.4571206569671631,0.0018466586479917,-0.012020943686366,0.5078958868980408,0.3271935284137726,-0.1917871087789535,-0.2918733656406402,1
34027,0.0041869925335049,-0.0085676107555627,0.99909907579422,2.4653000831604004,0.4344667196273803,0.4571206569671631,0.0018466586479917,-0.012020943686366,0.5078958868980408,0.3271935284137726,-0.1917871087789535,-0.2918733656406402,1
34037,0.0041869925335049,-0.0085676107555627,0.99909907579422,2.4653000831604004,0.4344667196273803,0.4571206569671631,0.0018466586479917,-0.012020943686366,0.5078958868980408,0.3271935284137726,-0.1917871087789535,-0.2918733656406402,1
34037,0.0041869925335049,-0.0085676107555627,0.99909907579422,2.4653000831604004,0.4344667196273803,0.4571206569671631,0.0018466586479917,-0.012020943686366,0.5078958868980408,0.3271935284137726,-0.1917871087789535,-0.2918733656406402,1
34177,0.0041869925335049,-0.0085676107555627,0.99909907579422,2.4653000831604004,0.4344667196273803,0.4571206569671631,0.0018466586479917,-0.012020943686366,0.5078958868980408,0.3271935284137726,-0.1917871087789535,-0.2918733656406402,1
34187,0.0041869925335049,-0.0085676107555627,0.99909907579422,2.4653000831604004,0.4344667196273803,0.4571206569671631,0.0018466586479917,-0.012020943686366,0.5078958868980408,0.3271935284137726,-0.1917871087789535,-0.2918733656406402,1
34207,0.0041869925335049,-0.0085676107555627,0.99909907579422,2.4653000831604004,0.4344667196273803,0.4571206569671631,0.0018466586479917,-0.012020943686366,0.5078958868980408,0.3271935284137726,-0.1917871087789535,-0.2918733656406402,1
34367,0.0041869925335049,-0.0085676107555627,0.99909907579422,2.4653000831604004,0.4344667196273803,0.4571206569671631,0.0018466586479917,-0.012020943686366,0.5078958868980408,0.3271935284137726,-0.1917871087789535,-0.2918733656406402,1
34387,0.0041869925335049,-0.0085676107555627,0.99909907579422,2.4653000831604004,0.4344667196273803,0.4571206569671631,0.0018466586479917,-0.012020943686366,0.5078958868980408,0.3271935284137726,-0.1917871087789535,-0.2918733656406402,1
34507,0.0041869925335049,-0.0085676107555627,0.99909907579422,2.4653000831604004,0.4344667196273803,0.4571206569671631,0.0018466586479917,-0.012020943686366,0.5078958868980408,0.3271935284137726,-0.1917871087789535,-0.2918733656406402,1
34537,0.0041869925335049,-0.0085676107555627,0.99909907579422,2.4653000831604004,0.4344667196273803,0.4571206569671631,0.0018466586479917,-0.012020943686366,0.5078958868980408,0.3271935284137726,-0.1917871087789535,-0.2918733656406402,1
34537,0.0041869925335049,-0.0085676107555627,0.99909907579422,2.4653000831604004,0.4344667196273803,0.4571206569671631,0.0018466586479917,-0.012020943686366,0.5078958868980408,0.3271935284137726,-0.1917871087789535,-0.2918733656406402,1
34547,0.0041869925335049,-0.0085676107555627,0.99909907579422,2.4653000831604004,0.4344667196273803,0.4571206569671631,0.0018466586479917,-0.012020943686366,0.5078958868980408,0.3271935284137726,-0.1917871087789535,-0.2918733656406402,1
34707,0.0041869925335049,-0.0085676107555627,0.99909907579422,2.4653000831604004,0.4344667196273803,0.4571206569671631,0.0018466586479917,-0.012020943686366,0.5078958868980408,0.3271935284137726,-0.1917871087789535,-0.2918733656406402,1
34787,0.0041869925335049,-0.0085676107555627,0.99909907579422,2.4653000831604004,0.4344667196273803,0.4571206569671631,0.0018466586479917,-0.012020943686366,0.5078958868980408,0.3271935284137726,-0.1917871087789535,-0.2918733656406402,1
34907,0.0041869925335049,-0.0085676107555627,0.99909907579422,2.4653000831604004,0.4344667196273803,0.4571206569671631,0.0018466586479917,-0.012020943686366,0.5078958868980408,0.3271935284137726,-0.1917871087789535,-0.2918733656406402,1
34927,0.0041869925335049,-0.0085676107555627,0.99909907579422,2.4653000831604004,0.4344667196273803,0.4571206569671631,0.0018466586479917,-0.012020943686366,0.5078958868980408,0.3271935284137726,-0.1917871087789535,-0.2918733656406402,1
34937,0.0041869925335049,-0.0085676107555627,0.99909907579422,2.4653000831604004,0.4344667196273803,0.4571206569671631,0.0018466586479917,-0.012020943686366,0.5078958868980408,0.3271935284137726,-0.1917871087789535,-0.2918733656406402,1
34957,0.0041869925335049,-0.0085676107555627,0.99909907579422,2.4653000831604004,0.4344667196273803,0.4571206569671631,0.0018466586479917,-0.012020943686366,0.5078958868980408,0.3271935284137726,-0.1917871087789535,-0.2918733656406402,1
35127,0.0041869925335049,-0.0085676107555627,0.99909907579422,2.4653000831604004,0.4344667196273803,0.4571206569671631,0.0018466586479917,-0.012020943686366,0.5078958868980408,0.3271935284137726,-0.1917871087789535,-0.2918733656406402,1
35167,0.0041869925335049,-0.0085676107555627,0.99909907579422,2.4653000831604004,0.4344667196273803,0.4571206569671631,0.0018466586479917,-0.012020943686366,0.5078958868980408,0.3271935284137726,-0.1917871087789535,-0.2918733656406402,1
35167,0.0041869925335049,-0.0085676107555627,0.99909907579422,2.4653000831604004,0.4344667196273803,0.4571206569671631,0.0018466586479917,-0.012020943686366,0.5078958868980408,0.3271935284137726,-0.1917871087789535,-0.2918733656406402,1
35227,0.0041869925335049,-0.0085676107555627,0.99909907579422,2.4653000831604004,0.4344667196273803,0.4571206569671631,0.0018466586479917,-0.012020943686366,0.5078958868980408,0.3271935284137726,-0.1917871087789535,-0.2918733656406402,1
35307,0.0041869925335049,-0.0085676107555627,0.99909907579422,2.4653000831604004,0.4344667196273803,0.4571206569671631,0.0018466586479917,-0.012020943686366,0.5078958868980408,0.3271935284137726,-0.1917871087789535,-0.2918733656406402,1
35397,0.0041869925335049,-0.0085676107555627,0.99909907579422,2.4653000831604004,0.4344667196273803,0.4571206569671631,0.0018466586479917,-0.012020943686366,0.5078958868980408,0.3271935284137726,-0.1917871087789535,-0.2918733656406402,1
35417,0.0041869925335049,-0.0085676107555627,0.99909907579422,2.4653000831604004,0.4344667196273803,0.4571206569671631,0.0018466586479917,-0.012020943686366,0.5078958868980408,0.3271935284137726,-0.1917871087789535,-0.2918733656406402,1
35527,0.0041869925335049,-0.0085676107555627,0.99909907579422,2.4653000831604004,0.4344667196273803,0.4571206569671631,0.0018466586479917,-0.012020943686366,0.5078958868980408,0.3271935284137726,-0.1917871087789535,-0.2918733656406402,1
35597,0.0041869925335049,-0.0085676107555627,0.99909907579422,2.4653000831604004,0.4344667196273803,0.4571206569671631,0.0018466586479917,-0.012020943686366,0.5078958868980408,0.3271935284137726,-0.1917871087789535,-0.2918733656406402,1
35727,0.0041869925335049,-0.0085676107555627,0.99909907579422,2.4653000831604004,0.4344667196273803,0.4571206569671631,0.0018466586479917,-0.012020943686366,0.5078958868980408,0.3271935284137726,-0.1917871087789535,-0.2918733656406402,1
35897,0.0041869925335049,-0.0085676107555627,0.99909907579422,2.4653000831604004,0.4344667196273803,0.4571206569671631,0.0018466586479917,-0.012020943686366,0.5078958868980408,0.3271935284137726,-0.1917871087789535,-0.2918733656406402,1
35907,0.0041869925335049,-0.0085676107555627,0.99909907579422,2.4653000831604004,0.4344667196273803,0.4571206569671631,0.0018466586479917,-0.012020943686366,0.5078958868980408,0.3271935284137726,-0.1917871087789535,-0.2918733656406402,1
35947,0.0041869925335049,-0.0085676107555627,0.99909907579422,2.4653000831604004,0.4344667196273803,0.4571206569671631,0.0018466586479917,-0.012020943686366,0.5078958868980408,0.3271935284137726,-0.1917871087789535,-0.2918733656406402,1
36107,0.0041869925335049,-0.0085676107555627,0.99909907579422,2.4653000831604004,0.4344667196273803,0.4571206569671631,0.0018466586479917,-0.012020943686366,0.5078958868980408,0.3271935284137726,-0.1917871087789535,-0.2918733656406402,1
36207,0.0041869925335049,-0.0085676107555627,0.99909907579422,2.4653000831604004,0.4344667196273803,0.4571206569671631,0.0018466586479917,-0.012020943686366,0.5078958868980408,0.3271935284137726,-0.1917871087789535,-0.2918733656406402,1
36257,0.0041869925335049,-0.0085676107555627,0.99909907579422,2.4653000831604004,0.4344667196273803,0.4571206569671631,0.0018466586479917,-0.012020943686366,0.5078958868980408,0.3271935284137726,-0.1917871087789535,-0.2918733656406402,1
36277,0.0041869925335049,-0.0085676107555627,0.99909907579422,2.4653000831604004,0.4344667196273803,0.4571206569671631,0.0018466586479917,-0.012020943686366,0.5078958868980408,0.3271935284137726,-0.1917871087789535,-0.2918733656406402,1
36287,0.0041869925335049,-0.0085676107555627,0.99909907579422,2.4653000831604004,0.4344667196273803,0.4571206569671631,0.0018466586479917,-0.012020943686366,0.5078958868980408,0.3271935284137726,-0.1917871087789535,-0.2918733656406402,1
36447,0.0041869925335049,-0.0085676107555627,0.99909907579422,2.4653000831604004,0.4344667196273803,0.4571206569671631,0.0018466586479917,-0.012020943686366,0.5078958868980408,0.3271935284137726,-0.1917871087789535,-0.2918733656406402,1
36457,0.0041869925335049,-0.0085676107555627,0.99909907579422,2.4653000831604004,0.4344667196273803,0.4571206569671631,0.0018466586479917,-0.012020943686366,0.5078958868980408,0.3271935284137726,-0.1917871087789535,-0.2918733656406402,1
36517,0.0041869925335049,-0.0085676107555627,0.99909907579422,2.4653000831604004,0.4344667196273803,0.4571206569671631,0.0018466586479917,-0.012020943686366,0.5078958868980408,0.3271935284137726,-0.1917871087789535,-0.2918733656406402,1
36647,0.0041869925335049,-0.0085676107555627,0.99909907579422,2.4653000831604004,0.4344667196273803,0.4571206569671631,0.0018466586479917,-0.012020943686366,0.5078958868980408,0.3271935284137726,-0.1917871087789535,-0.2918733656406402,1
36667,0.0041869925335049,-0.0085676107555627,0.99909907579422,2.4653000831604004,0.4344667196273803,0.4571206569671631,0.0018466586479917,-0.012020943686366,0.5078958868980408,0.3271935284137726,-0.1917871087789535,-0.2918733656406402,1
36777,0.0041869925335049,-0.0085676107555627,0.99909907579422,2.4653000831604004,0.4344667196273803,0.4571206569671631,0.0018466586479917,-0.012020943686366,0.5078958868980408,0.3271935284137726,-0.1917871087789535,-0.2918733656406402,1
36837,0.0041869925335049,-0.0085676107555627,0.99909907579422,2.4653000831604004,0.4344667196273803,0.4571206569671631,0.0018466586479917,-0.012020943686366,0.5078958868980408,0.3271935284137726,-0.1917871087789535,-0.2918733656406402,1
36857,0.0041869925335049,-0.0085676107555627,0.99909907579422,2.4653000831604004,0.4344667196273803,0.4571206569671631,0.0018466586479917,-0.012020943686366,0.5078958868980408,0.3271935284137726,-0.1917871087789535,-0.2918733656406402,1
36907,0.0041869925335049,-0.0085676107555627,0.99909907579422,2.4653000831604004,0.4344667196273803,0.4571206569671631,0.0018466586479917,-0.012020943686366,0.5078958868980408,0.3271935284137726,-0.1917871087789535,-0.2918733656406402,1
36917,0.0041869925335049,-0.0085676107555627,0.99909907579422,2.4653000831604004,0.4344667196273803,0.4571206569671631,0.0018466586479917,-0.012020943686366,0.5078958868980408,0.3271935284137726,-0.1917871087789535,-0.2918733656406402,1
37027,0.0041869925335049,-0.0085676107555627,0.99909907579422,2.4653000831604004,0.4344667196273803,0.4571206569671631,0.0018466586479917,-0.012020943686366,0.5078958868980408,0.3271935284137726,-0.1917871087789535,-0.2918733656406402,1
37037,0.0041869925335049,-0.0085676107555627,0.99909907579422,2.4653000831604004,0.4344667196273803,0.4571206569671631,0.0018466586479917,-0.012020943686366,0.5078958868980408,0.3271935284137726,-0.1917871087789535,-0.2918733656406402,1
37057,0.0041869925335049,-0.0085676107555627,0.99909907579422,2.4653000831604004,0.4344667196273803,0.4571206569671631,0.0018466586479917,-0.012020943686366,0.5078958868980408,0.3271935284137726,-0.1917871087789535,-0.2918733656406402,1
37197,0.0041869925335049,-0.0085676107555627,0.99909907579422,2.4653000831604004,0.4344667196273803,0.4571206569671631,0.0018466586479917,-0.012020943686366,0.5078958868980408,0.3271935284137726,-0.1917871087789535,-0.2918733656406402,1
37217,0.0041869925335049,-0.0085676107555627,0.99909907579422,2.4653000831604004,0.4344667196273803,0.4571206569671631,0.0018466586479917,-0.012020943686366,0.5078958868980408,0.3271935284137726,-0.1917871087789535,-0.2918733656406402,1
37227,0.0041869925335049,-0.0085676107555627,0.99909907579422,2.4653000831604004,0.4344667196273803,0.4571206569671631,0.0018466586479917,-0.012020943686366,0.5078958868980408,0.3271935284137726,-0.1917871087789535,-0.2918733656406402,1
37377,0.0041869925335049,-0.0085676107555627,0.99909907579422,2.4653000831604004,0.4344667196273803,0.4571206569671631,0.0018466586479917,-0.012020943686366,0.5078958868980408,0.3271935284137726,-0.1917871087789535,-0.2918733656406402,1
37387,0.0041869925335049,-0.0085676107555627,0.99909907579422,2.4653000831604004,0.4344667196273803,0.4571206569671631,0.0018466586479917,-0.012020943686366,0.5078958868980408,0.3271935284137726,-0.1917871087789535,-0.2918733656406402,1
37397,0.0041869925335049,-0.0085676107555627,0.99909907579422,2.4653000831604004,0.4344667196273803,0.4571206569671631,0.0018466586479917,-0.012020943686366,0.5078958868980408,0.3271935284137726,-0.1917871087789535,-0.2918733656406402,1
37547,0.0041869925335049,-0.0085676107555627,0.99909907579422,2.4653000831604004,0.4344667196273803,0.4571206569671631,0.0018466586479917,-0.012020943686366,0.5078958868980408,0.3271935284137726,-0.1917871087789535,-0.2918733656406402,1
37567,0.0041869925335049,-0.0085676107555627,0.99909907579422,2.4653000831604004,0.4344667196273803,0.4571206569671631,0.0018466586479917,-0.012020943686366,0.5078958868980408,0.3271935284137726,-0.1917871087789535,-0.2918733656406402,1
37657,0.0041869925335049,-0.0085676107555627,0.99909907579422,2.4653000831604004,0.4344667196273803,0.4571206569671631,0.0018466586479917,-0.012020943686366,0.5078958868980408,0.3271935284137726,-0.1917871087789535,-0.2918733656406402,1
37707,0.0041869925335049,-0.0085676107555627,0.99909907579422,2.4653000831604004,0.4344667196273803,0.4571206569671631,0.0018466586479917,-0.012020943686366,0.5078958868980408,0.3271935284137726,-0.1917871087789535,-0.2918733656406402,1
37727,0.0041869925335049,-0.0085676107555627,0.99909907579422,2.4653000831604004,0.4344667196273803,0.4571206569671631,0.0018466586479917,-0.012020943686366,0.5078958868980408,0.3271935284137726,-0.1917871087789535,-0.2918733656406402,1
37817,0.0041869925335049,-0.0085676107555627,0.99909907579422,2.4653000831604004,0.4344667196273803,0.4571206569671631,0.0018466586479917,-0.012020943686366,0.5078958868980408,0.3271935284137726,-0.1917871087789535,-0.2918733656406402,1
37827,0.0041869925335049,-0.0085676107555627,0.99909907579422,2.4653000831604004,0.4344667196273803,0.4571206569671631,0.0018466586479917,-0.012020943686366,0.5078958868980408,0.3271935284137726,-0.1917871087789535,-0.2918733656406402,1
37897,0.0041869925335049,-0.0085676107555627,0.99909907579422,2.4653000831604004,0.4344667196273803,0.4571206569671631,0.0018466586479917,-0.012020943686366,0.5078958868980408,0.3271935284137726,-0.1917871087789535,-0.2918733656406402,1
37907,0.0041869925335049,-0.0085676107555627,0.99909907579422,2.4653000831604004,0.4344667196273803,0.4571206569671631,0.0018466586479917,-0.012020943686366,0.5078958868980408,0.3271935284137726,-0.1917871087789535,-0.2918733656406402,1
38037,0.0041869925335049,-0.0085676107555627,0.99909907579422,2.4653000831604004,0.4344667196273803,0.4571206569671631,0.0018466586479917,-0.012020943686366,0.5078958868980408,0.3271935284137726,-0.1917871087789535,-0.2918733656406402,1
38047,0.0041869925335049,-0.0085676107555627,0.99909907579422,2.4653000831604004,0.4344667196273803,0.4571206569671631,0.0018466586479917,-0.012020943686366,0.5078958868980408,0.3271935284137726,-0.1917871087789535,-0.2918733656406402,1
38077,0.0041869925335049,-0.0085676107555627,0.99909907579422,2.4653000831604004,0.4344667196273803,0.4571206569671631,0.0018466586479917,-0.012020943686366,0.5078958868980408,0.3271935284137726,-0.1917871087789535,-0.2918733656406402,1
38197,0.0041869925335049,-0.0085676107555627,0.99909907579422,2.4653000831604004,0.4344667196273803,0.4571206569671631,0.0018466586479917,-0.012020943686366,0.5078958868980408,0.3271935284137726,-0.1917871087789535,-0.2918733656406402,1
38207,0.0041869925335049,-0.0085676107555627,0.99909907579422,2.4653000831604004,0.4344667196273803,0.4571206569671631,0.0018466586479917,-0.012020943686366,0.5078958868980408,0.3271935284137726,-0.1917871087789535,-0.2918733656406402,1
38217,0.0041869925335049,-0.0085676107555627,0.99909907579422,2.4653000831604004,0.4344667196273803,0.4571206569671631,0.0018466586479917,-0.012020943686366,0.5078958868980408,0.3271935284137726,-0.1917871087789535,-0.2918733656406402,1
38247,0.0041869925335049,-0.0085676107555627,0.99909907579422,2.4653000831604004,0.4344667196273803,0.4571206569671631,0.0018466586479917,-0.012020943686366,0.5078958868980408,0.3271935284137726,-0.1917871087789535,-0.2918733656406402,1
38367,0.0041869925335049,-0.0085676107555627,0.99909907579422,2.4653000831604004,0.4344667196273803,0.4571206569671631,0.0018466586479917,-0.012020943686366,0.5078958868980408,0.3271935284137726,-0.1917871087789535,-0.2918733656406402,1
38387,0.0041869925335049,-0.0085676107555627,0.99909907579422,2.4653000831604004,0.4344667196273803,0.4571206569671631,0.0018466586479917,-0.012020943686366,0.5078958868980408,0.3271935284137726,-0.1917871087789535,-0.2918733656406402,1
38407,0.0041869925335049,-0.0085676107555627,0.99909907579422,2.4653000831604004,0.4344667196273803,0.4571206569671631,0.0018466586479917,-0.012020943686366,0.5078958868980408,0.3271935284137726,-0.1917871087789535,-0.2918733656406402,1
38507,0.0041869925335049,-0.0085676107555627,0.99909907579422,2.4653000831604004,0.4344667196273803,0.4571206569671631,0.0018466586479917,-0.012020943686366,0.5078958868980408,0.3271935284137726,-0.1917871087789535,-0.2918733656406402,1
38547,0.0041869925335049,-0.0085676107555627,0.99909907579422,2.4653000831604004,0.4344667196273803,0.4571206569671631,0.0018466586479917,-0.012020943686366,0.5078958868980408,0.3271935284137726,-0.1917871087789535,-0.2918733656406402,1
38567,0.0041869925335049,-0.0085676107555627,0.99909907579422,2.4653000831604004,0.4344667196273803,0.4571206569671631,0.0018466586479917,-0.012020943686366,0.5078958868980408,0.3271935284137726,-0.1917871087789535,-0.2918733656406402,1
38567,0.0041869925335049,-0.0085676107555627,0.99909907579422,2.4653000831604004,0.4344667196273803,0.4571206569671631,0.0018466586479917,-0.012020943686366,0.5078958868980408,0.3271935284137726,-0.1917871087789535,-0.2918733656406402,1
38567,0.0041869925335049,-0.0085676107555627,0.99909907579422,2.4653000831604004,0.4344667196273803,0.4571206569671631,0.0018466586479917,-0.012020943686366,0.5078958868980408,0.3271935284137726,-0.1917871087789535,-0.2918733656406402,1
38567,0.0041869925335049,-0.0085676107555627,0.99909907579422,2.4653000831604004,0.4344667196273803,0.4571206569671631,0.0018466586479917,-0.012020943686366,0.5078958868980408,0.3271935284137726,-0.1917871087789535,-0.2918733656406402,1
38567,0.0041869925335049,-0.0085676107555627,0.99909907579422,2.4653000831604004,0.4344667196273803,0.4571206569671631,0.0018466586479917,-0.012020943686366,0.5078958868980408,0.3271935284137726,-0.1917871087789535,-0.2918733656406402,1
38567,0.0041869925335049,-0.0085676107555627,0.99909907579422,2.4653000831604004,0.4344667196273803,0.4571206569671631,0.0018466586479917,-0.012020943686366,0.5078958868980408,0.3271935284137726,-0.1917871087789535,-0.2918733656406402,1
38567,0.0041869925335049,-0.0085676107555627,0.99909907579422,2.4653000831604004,0.4344667196273803,0.4571206569671631,0.0018466586479917,-0.012020943686366,0.5078958868980408,0.3271935284137726,-0.1917871087789535,-0.2918733656406402,1
38567,0.0041869925335049,-0.0085676107555627,0.99909907579422,2.4653000831604004,0.4344667196273803,0.4571206569671631,0.0018466586479917,-0.012020943686366,0.5078958868980408,0.3271935284137726,-0.1917871087789535,-0.2918733656406402,1
38567,0.0041869925335049,-0.0085676107555627,0.99909907579422,2.4653000831604004,0.4344667196273803,0.4571206569671631,0.0018466586479917,-0.012020943686366,0.5078958868980408,0.3271935284137726,-0.1917871087789535,-0.2918733656406402,1
38567,0.0041869925335049,-0.0085676107555627,0.99909907579422,2.4653000831604004,0.4344667196273803,0.4571206569671631,0.0018466586479917,-0.012020943686366,0.5078958868980408,0.3271935284137726,-0.1917871087789535,-0.2918733656406402,1
38567,0.0041869925335049,-0.0085676107555627,0.99909907579422,2.4653000831604004,0.4344667196273803,0.4571206569671631,0.0018466586479917,-0.012020943686366,0.5078958868980408,0.3271935284137726,-0.1917871087789535,-0.2918733656406402,1
38567,0.0041869925335049,-0.0085676107555627,0.99909907579422,2.4653000831604004,0.4344667196273803,0.4571206569671631,0.0018466586479917,-0.012020943686366,0.5078958868980408,0.3271935284137726,-0.1917871087789535,-0.2918733656406402,1
38567,0.0041869925335049,-0.0085676107555627,0.99909907579422,2.4653000831604004,0.4344667196273803,0.4571206569671631,0.0018466586479917,-0.012020943686366,0.5078958868980408,0.3271935284137726,-0.1917871087789535,-0.2918733656406402,1
38567,0.0041869925335049,-0.0085676107555627,0.99909907579422,2.4653000831604004,0.4344667196273803,0.4571206569671631,0.0018466586479917,-0.012020943686366,0.5078958868980408,0.3271935284137726,-0.1917871087789535,-0.2918733656406402,1
38567,0.0041869925335049,-0.0085676107555627,0.99909907579422,2.4653000831604004,0.4344667196273803,0.4571206569671631,0.0018466586479917,-0.012020943686366,0.5078958868980408,0.3271935284137726,-0.1917871087789535,-0.2918733656406402,1
38567,0.0041869925335049,-0.0085676107555627,0.99909907579422,2.4653000831604004,0.4344667196273803,0.4571206569671631,0.0018466586479917,-0.012020943686366,0.5078958868980408,0.3271935284137726,-0.1917871087789535,-0.2918733656406402,1
38567,0.0041869925335049,-0.0085676107555627,0.99909907579422,2.4653000831604004,0.4344667196273803,0.4571206569671631,0.0018466586479917,-0.012020943686366,0.5078958868980408,0.3271935284137726,-0.1917871087789535,-0.2918733656406402,1
38567,0.0041869925335049,-0.0085676107555627,0.99909907579422,2.4653000831604004,0.4344667196273803,0.4571206569671631,0.0018466586479917,-0.012020943686366,0.5078958868980408,0.3271935284137726,-0.1917871087789535,-0.2918733656406402,1
38567,0.0041869925335049,-0.0085676107555627,0.99909907579422,2.4653000831604004,0.4344667196273803,0.4571206569671631,0.0018466586479917,-0.012020943686366,0.5078958868980408,0.3271935284137726,-0.1917871087789535,-0.2918733656406402,1
38567,0.0041869925335049,-0.0085676107555627,0.99909907579422,2.4653000831604004,0.4344667196273803,0.4571206569671631,0.0018466586479917,-0.012020943686366,0.5078958868980408,0.3271935284137726,-0.1917871087789535,-0.2918733656406402,1
38567,0.0041869925335049,-0.0085676107555627,0.99909907579422,2.4653000831604004,0.4344667196273803,0.4571206569671631,0.0018466586479917,-0.012020943686366,0.5078958868980408,0.3271935284137726,-0.1917871087789535,-0.2918733656406402,1
38567,0.0041869925335049,-0.0085676107555627,0.99909907579422,2.4653000831604004,0.4344667196273803,0.4571206569671631,0.0018466586479917,-0.012020943686366,0.5078958868980408,0.3271935284137726,-0.1917871087789535,-0.2918733656406402,1
38567,0.0041869925335049,-0.0085676107555627,0.99909907579422,2.4653000831604004,0.4344667196273803,0.4571206569671631,0.0018466586479917,-0.012020943686366,0.5078958868980408,0.3271935284137726,-0.1917871087789535,-0.2918733656406402,1
38567,0.0041869925335049,-0.0085676107555627,0.99909907579422,2.4653000831604004,0.4344667196273803,0.4571206569671631,0.0018466586479917,-0.012020943686366,0.5078958868980408,0.3271935284137726,-0.1917871087789535,-0.2918733656406402,1
38567,0.0041869925335049,-0.0085676107555627,0.99909907579422,2.4653000831604004,0.4344667196273803,0.4571206569671631,0.0018466586479917,-0.012020943686366,0.5078958868980408,0.3271935284137726,-0.1917871087789535,-0.2918733656406402,1
38567,0.0041869925335049,-0.0085676107555627,0.99909907579422,2.4653000831604004,0.4344667196273803,0.4571206569671631,0.0018466586479917,-0.012020943686366,0.5078958868980408,0.3271935284137726,-0.1917871087789535,-0.2918733656406402,1
38567,0.0041869925335049,-0.0085676107555627,0.99909907579422,2.4653000831604004,0.4344667196273803,0.4571206569671631,0.0018466586479917,-0.012020943686366,0.5078958868980408,0.3271935284137726,-0.1917871087789535,-0.2918733656406402,1
38567,0.0041869925335049,-0.0085676107555627,0.99909907579422,2.4653000831604004,0.4344667196273803,0.4571206569671631,0.0018466586479917,-0.012020943686366,0.5078958868980408,0.3271935284137726,-0.1917871087789535,-0.2918733656406402,1
38567,0.0041869925335049,-0.0085676107555627,0.99909907579422,2.4653000831604004,0.4344667196273803,0.4571206569671631,0.0018466586479917,-0.012020943686366,0.5078958868980408,0.3271935284137726,-0.1917871087789535,-0.2918733656406402,1
38567,0.0041869925335049,-0.0085676107555627,0.99909907579422,2.4653000831604004,0.4344667196273803,0.4571206569671631,0.0018466586479917,-0.012020943686366,0.5078958868980408,0.3271935284137726,-0.1917871087789535,-0.2918733656406402,1
38567,0.0041869925335049,-0.0085676107555627,0.99909907579422,2.4653000831604004,0.4344667196273803,0.4571206569671631,0.0018466586479917,-0.012020943686366,0.5078958868980408,0.3271935284137726,-0.1917871087789535,-0.2918733656406402,1
38567,0.0041869925335049,-0.0085676107555627,0.99909907579422,2.4653000831604004,0.4344667196273803,0.4571206569671631,0.0018466586479917,-0.012020943686366,0.5078958868980408,0.3271935284137726,-0.1917871087789535,-0.2918733656406402,1
38567,0.0041869925335049,-0.0085676107555627,0.99909907579422,2.4653000831604004,0.4344667196273803,0.4571206569671631,0.0018466586479917,-0.012020943686366,0.5078958868980408,0.3271935284137726,-0.1917871087789535,-0.2918733656406402,1
38567,0.0041869925335049,-0.0085676107555627,0.99909907579422,2.4653000831604004,0.4344667196273803,0.4571206569671631,0.0018466586479917,-0.012020943686366,0.5078958868980408,0.3271935284137726,-0.1917871087789535,-0.2918733656406402,1
38567,0.0041869925335049,-0.0085676107555627,0.99909907579422,2.4653000831604004,0.4344667196273803,0.4571206569671631,0.0018466586479917,-0.012020943686366,0.5078958868980408,0.3271935284137726,-0.1917871087789535,-0.2918733656406402,1
38567,0.0041869925335049,-0.0085676107555627,0.99909907579422,2.4653000831604004,0.4344667196273803,0.4571206569671631,0.0018466586479917,-0.012020943686366,0.5078958868980408,0.3271935284137726,-0.1917871087789535,-0.2918733656406402,1
38567,0.0041869925335049,-0.0085676107555627,0.99909907579422,2.4653000831604004,0.4344667196273803,0.4571206569671631,0.0018466586479917,-0.012020943686366,0.5078958868980408,0.3271935284137726,-0.1917871087789535,-0.2918733656406402,1
38567,0.0041869925335049,-0.0085676107555627,0.99909907579422,2.4653000831604004,0.4344667196273803,0.4571206569671631,0.0018466586479917,-0.012020943686366,0.5078958868980408,0.3271935284137726,-0.1917871087789535,-0.2918733656406402,1
38567,0.0041869925335049,-0.0085676107555627,0.99909907579422,2.4653000831604004,0.4344667196273803,0.4571206569671631,0.0018466586479917,-0.012020943686366,0.5078958868980408,0.3271935284137726,-0.1917871087789535,-0.2918733656406402,1
38567,0.0041869925335049,-0.0085676107555627,0.99909907579422,2.4653000831604004,0.4344667196273803,0.4571206569671631,0.0018466586479917,-0.012020943686366,0.5078958868980408,0.3271935284137726,-0.1917871087789535,-0.2918733656406402,1
38567,0.0041869925335049,-0.0085676107555627,0.99909907579422,2.4653000831604004,0.4344667196273803,0.4571206569671631,0.0018466586479917,-0.012020943686366,0.5078958868980408,0.3271935284137726,-0.1917871087789535,-0.2918733656406402,1
38567,0.0041869925335049,-0.0085676107555627,0.99909907579422,2.4653000831604004,0.4344667196273803,0.4571206569671631,0.0018466586479917,-0.012020943686366,0.5078958868980408,0.3271935284137726,-0.1917871087789535,-0.2918733656406402,1
38567,0.0041869925335049,-0.0085676107555627,0.99909907579422,2.4653000831604004,0.4344667196273803,0.4571206569671631,0.0018466586479917,-0.012020943686366,0.5078958868980408,0.3271935284137726,-0.1917871087789535,-0.2918733656406402,1
38567,0.0041869925335049,-0.0085676107555627,0.99909907579422,2.4653000831604004,0.4344667196273803,0.4571206569671631,0.0018466586479917,-0.012020943686366,0.5078958868980408,0.3271935284137726,-0.1917871087789535,-0.2918733656406402,1
38567,0.0041869925335049,-0.0085676107555627,0.99909907579422,2.4653000831604004,0.4344667196273803,0.4571206569671631,0.0018466586479917,-0.012020943686366,0.5078958868980408,0.3271935284137726,-0.1917871087789535,-0.2918733656406402,1
38567,0.0041869925335049,-0.0085676107555627,0.99909907579422,2.4653000831604004,0.4344667196273803,0.4571206569671631,0.0018466586479917,-0.012020943686366,0.5078958868980408,0.3271935284137726,-0.1917871087789535,-0.2918733656406402,1
38567,0.0041869925335049,-0.0085676107555627,0.99909907579422,2.4653000831604004,0.4344667196273803,0.4571206569671631,0.0018466586479917,-0.012020943686366,0.5078958868980408,0.3271935284137726,-0.1917871087789535,-0.2918733656406402,1
38567,0.0041869925335049,-0.0085676107555627,0.99909907579422,2.4653000831604004,0.4344667196273803,0.4571206569671631,0.0018466586479917,-0.012020943686366,0.5078958868980408,0.3271935284137726,-0.1917871087789535,-0.2918733656406402,1
38567,0.0041869925335049,-0.0085676107555627,0.99909907579422,2.4653000831604004,0.4344667196273803,0.4571206569671631,0.0018466586479917,-0.012020943686366,0.5078958868980408,0.3271935284137726,-0.1917871087789535,-0.2918733656406402,1
38567,0.0041869925335049,-0.0085676107555627,0.99909907579422,2.4653000831604004,0.4344667196273803,0.4571206569671631,0.0018466586479917,-0.012020943686366,0.5078958868980408,0.3271935284137726,-0.1917871087789535,-0.2918733656406402,1
38567,0.0041869925335049,-0.0085676107555627,0.99909907579422,2.4653000831604004,0.4344667196273803,0.4571206569671631,0.0018466586479917,-0.012020943686366,0.5078958868980408,0.3271935284137726,-0.1917871087789535,-0.2918733656406402,1
38567,0.0041869925335049,-0.0085676107555627,0.99909907579422,2.4653000831604004,0.4344667196273803,0.4571206569671631,0.0018466586479917,-0.012020943686366,0.5078958868980408,0.3271935284137726,-0.1917871087789535,-0.2918733656406402,1
38567,0.0041869925335049,-0.0085676107555627,0.99909907579422,2.4653000831604004,0.4344667196273803,0.4571206569671631,0.0018466586479917,-0.012020943686366,0.5078958868980408,0.3271935284137726,-0.1917871087789535,-0.2918733656406402,1
38567,0.0041869925335049,-0.0085676107555627,0.99909907579422,2.4653000831604004,0.4344667196273803,0.4571206569671631,0.0018466586479917,-0.012020943686366,0.5078958868980408,0.3271935284137726,-0.1917871087789535,-0.2918733656406402,1
38567,0.0041869925335049,-0.0085676107555627,0.99909907579422,2.4653000831604004,0.4344667196273803,0.4571206569671631,0.0018466586479917,-0.012020943686366,0.5078958868980408,0.3271935284137726,-0.1917871087789535,-0.2918733656406402,1
38567,0.0041869925335049,-0.0085676107555627,0.99909907579422,2.4653000831604004,0.4344667196273803,0.4571206569671631,0.0018466586479917,-0.012020943686366,0.5078958868980408,0.3271935284137726,-0.1917871087789535,-0.2918733656406402,1
38567,0.0041869925335049,-0.0085676107555627,0.99909907579422,2.4653000831604004,0.4344667196273803,0.4571206569671631,0.0018466586479917,-0.012020943686366,0.5078958868980408,0.3271935284137726,-0.1917871087789535,-0.2918733656406402,1
38567,0.0041869925335049,-0.0085676107555627,0.99909907579422,2.4653000831604004,0.4344667196273803,0.4571206569671631,0.0018466586479917,-0.012020943686366,0.5078958868980408,0.3271935284137726,-0.1917871087789535,-0.2918733656406402,1
38567,0.0041869925335049,-0.0085676107555627,0.99909907579422,2.4653000831604004,0.4344667196273803,0.4571206569671631,0.0018466586479917,-0.012020943686366,0.5078958868980408,0.3271935284137726,-0.1917871087789535,-0.2918733656406402,1
38567,0.0041869925335049,-0.0085676107555627,0.99909907579422,2.4653000831604004,0.4344667196273803,0.4571206569671631,0.0018466586479917,-0.012020943686366,0.5078958868980408,0.3271935284137726,-0.1917871087789535,-0.2918733656406402,1
38567,0.0041869925335049,-0.0085676107555627,0.99909907579422,2.4653000831604004,0.4344667196273803,0.4571206569671631,0.0018466586479917,-0.012020943686366,0.5078958868980408,0.3271935284137726,-0.1917871087789535,-0.2918733656406402,1
38567,0.0041869925335049,-0.0085676107555627,0.99909907579422,2.4653000831604004,0.4344667196273803,0.4571206569671631,0.0018466586479917,-0.012020943686366,0.5078958868980408,0.3271935284137726,-0.1917871087789535,-0.2918733656406402,1
38567,0.0041869925335049,-0.0085676107555627,0.99909907579422,2.4653000831604004,0.4344667196273803,0.4571206569671631,0.0018466586479917,-0.012020943686366,0.5078958868980408,0.3271935284137726,-0.1917871087789535,-0.2918733656406402,1
38567,0.0041869925335049,-0.0085676107555627,0.99909907579422,2.4653000831604004,0.4344667196273803,0.4571206569671631,0.0018466586479917,-0.012020943686366,0.5078958868980408,0.3271935284137726,-0.1917871087789535,-0.2918733656406402,1
38567,0.0041869925335049,-0.0085676107555627,0.99909907579422,2.4653000831604004,0.4344667196273803,0.4571206569671631,0.0018466586479917,-0.012020943686366,0.5078958868980408,0.3271935284137726,-0.1917871087789535,-0.2918733656406402,1
38567,0.0041869925335049,-0.0085676107555627,0.99909907579422,2.4653000831604004,0.4344667196273803,0.4571206569671631,0.0018466586479917,-0.012020943686366,0.5078958868980408,0.3271935284137726,-0.1917871087789535,-0.2918733656406402,1
38567,0.0041869925335049,-0.0085676107555627,0.99909907579422,2.4653000831604004,0.4344667196273803,0.4571206569671631,0.0018466586479917,-0.012020943686366,0.5078958868980408,0.3271935284137726,-0.1917871087789535,-0.2918733656406402,1
38567,0.0041869925335049,-0.0085676107555627,0.99909907579422,2.4653000831604004,0.4344667196273803,0.4571206569671631,0.0018466586479917,-0.012020943686366,0.5078958868980408,0.3271935284137726,-0.1917871087789535,-0.2918733656406402,1
38567,0.0041869925335049,-0.0085676107555627,0.99909907579422,2.4653000831604004,0.4344667196273803,0.4571206569671631,0.0018466586479917,-0.012020943686366,0.5078958868980408,0.3271935284137726,-0.1917871087789535,-0.2918733656406402,1
38567,0.0041869925335049,-0.0085676107555627,0.99909907579422,2.4653000831604004,0.4344667196273803,0.4571206569671631,0.0018466586479917,-0.012020943686366,0.5078958868980408,0.3271935284137726,-0.1917871087789535,-0.2918733656406402,1
38567,0.0041869925335049,-0.0085676107555627,0.99909907579422,2.4653000831604004,0.4344667196273803,0.4571206569671631,0.0018466586479917,-0.012020943686366,0.5078958868980408,0.3271935284137726,-0.1917871087789535,-0.2918733656406402,1
38567,0.0041869925335049,-0.0085676107555627,0.99909907579422,2.4653000831604004,0.4344667196273803,0.4571206569671631,0.0018466586479917,-0.012020943686366,0.5078958868980408,0.3271935284137726,-0.1917871087789535,-0.2918733656406402,1
38567,0.0041869925335049,-0.0085676107555627,0.99909907579422,2.4653000831604004,0.4344667196273803,0.4571206569671631,0.0018466586479917,-0.012020943686366,0.5078958868980408,0.3271935284137726,-0.1917871087789535,-0.2918733656406402,1
38567,0.0041869925335049,-0.0085676107555627,0.99909907579422,2.4653000831604004,0.4344667196273803,0.4571206569671631,0.0018466586479917,-0.012020943686366,0.5078958868980408,0.3271935284137726,-0.1917871087789535,-0.2918733656406402,1
38567,0.0041869925335049,-0.0085676107555627,0.99909907579422,2.4653000831604004,0.4344667196273803,0.4571206569671631,0.0018466586479917,-0.012020943686366,0.5078958868980408,0.3271935284137726,-0.1917871087789535,-0.2918733656406402,1
38567,0.0041869925335049,-0.0085676107555627,0.99909907579422,2.4653000831604004,0.4344667196273803,0.4571206569671631,0.0018466586479917,-0.012020943686366,0.5078958868980408,0.3271935284137726,-0.1917871087789535,-0.2918733656406402,1
38567,0.0041869925335049,-0.0085676107555627,0.99909907579422,2.4653000831604004,0.4344667196273803,0.4571206569671631,0.0018466586479917,-0.012020943686366,0.5078958868980408,0.3271935284137726,-0.1917871087789535,-0.2918733656406402,1
38567,0.0041869925335049,-0.0085676107555627,0.99909907579422,2.4653000831604004,0.4344667196273803,0.4571206569671631,0.0018466586479917,-0.012020943686366,0.5078958868980408,0.3271935284137726,-0.1917871087789535,-0.2918733656406402,1
38567,0.0041869925335049,-0.0085676107555627,0.99909907579422,2.4653000831604004,0.4344667196273803,0.4571206569671631,0.0018466586479917,-0.012020943686366,0.5078958868980408,0.3271935284137726,-0.1917871087789535,-0.2918733656406402,1
38567,0.0041869925335049,-0.0085676107555627,0.99909907579422,2.4653000831604004,0.4344667196273803,0.4571206569671631,0.0018466586479917,-0.012020943686366,0.5078958868980408,0.3271935284137726,-0.1917871087789535,-0.2918733656406402,1
38567,0.0041869925335049,-0.0085676107555627,0.99909907579422,2.4653000831604004,0.4344667196273803,0.4571206569671631,0.0018466586479917,-0.012020943686366,0.5078958868980408,0.3271935284137726,-0.1917871087789535,-0.2918733656406402,1
38567,0.0041869925335049,-0.0085676107555627,0.99909907579422,2.4653000831604004,0.4344667196273803,0.4571206569671631,0.0018466586479917,-0.012020943686366,0.5078958868980408,0.3271935284137726,-0.1917871087789535,-0.2918733656406402,1
38567,0.0041869925335049,-0.0085676107555627,0.99909907579422,2.4653000831604004,0.4344667196273803,0.4571206569671631,0.0018466586479917,-0.012020943686366,0.5078958868980408,0.3271935284137726,-0.1917871087789535,-0.2918733656406402,1
38567,0.0041869925335049,-0.0085676107555627,0.99909907579422,2.4653000831604004,0.4344667196273803,0.4571206569671631,0.0018466586479917,-0.012020943686366,0.5078958868980408,0.3271935284137726,-0.1917871087789535,-0.2918733656406402,1
38567,0.0041869925335049,-0.0085676107555627,0.99909907579422,2.4653000831604004,0.4344667196273803,0.4571206569671631,0.0018466586479917,-0.012020943686366,0.5078958868980408,0.3271935284137726,-0.1917871087789535,-0.2918733656406402,1
38567,0.0041869925335049,-0.0085676107555627,0.99909907579422,2.4653000831604004,0.4344667196273803,0.4571206569671631,0.0018466586479917,-0.012020943686366,0.5078958868980408,0.3271935284137726,-0.1917871087789535,-0.2918733656406402,1
38567,0.0041869925335049,-0.0085676107555627,0.99909907579422,2.4653000831604004,0.4344667196273803,0.4571206569671631,0.0018466586479917,-0.012020943686366,0.5078958868980408,0.3271935284137726,-0.1917871087789535,-0.2918733656406402,1
38567,0.0041869925335049,-0.0085676107555627,0.99909907579422,2.4653000831604004,0.4344667196273803,0.4571206569671631,0.0018466586479917,-0.012020943686366,0.5078958868980408,0.3271935284137726,-0.1917871087789535,-0.2918733656406402,1
38567,0.0041869925335049,-0.0085676107555627,0.99909907579422,2.4653000831604004,0.4344667196273803,0.4571206569671631,0.0018466586479917,-0.012020943686366,0.5078958868980408,0.3271935284137726,-0.1917871087789535,-0.2918733656406402,1
38567,0.0041869925335049,-0.0085676107555627,0.99909907579422,2.4653000831604004,0.4344667196273803,0.4571206569671631,0.0018466586479917,-0.012020943686366,0.5078958868980408,0.3271935284137726,-0.1917871087789535,-0.2918733656406402,1
38567,0.0041869925335049,-0.0085676107555627,0.99909907579422,2.4653000831604004,0.4344667196273803,0.4571206569671631,0.0018466586479917,-0.012020943686366,0.5078958868980408,0.3271935284137726,-0.1917871087789535,-0.2918733656406402,1
38567,0.0041869925335049,-0.0085676107555627,0.99909907579422,2.4653000831604004,0.4344667196273803,0.4571206569671631,0.0018466586479917,-0.012020943686366,0.5078958868980408,0.3271935284137726,-0.1917871087789535,-0.2918733656406402,1
38567,0.0041869925335049,-0.0085676107555627,0.99909907579422,2.4653000831604004,0.4344667196273803,0.4571206569671631,0.0018466586479917,-0.012020943686366,0.5078958868980408,0.3271935284137726,-0.1917871087789535,-0.2918733656406402,1
38567,0.0041869925335049,-0.0085676107555627,0.99909907579422,2.4653000831604004,0.4344667196273803,0.4571206569671631,0.0018466586479917,-0.012020943686366,0.5078958868980408,0.3271935284137726,-0.1917871087789535,-0.2918733656406402,1
38567,0.0041869925335049,-0.0085676107555627,0.99909907579422,2.4653000831604004,0.4344667196273803,0.4571206569671631,0.0018466586479917,-0.012020943686366,0.5078958868980408,0.3271935284137726,-0.1917871087789535,-0.2918733656406402,1
38567,0.0041869925335049,-0.0085676107555627,0.99909907579422,2.4653000831604004,0.4344667196273803,0.4571206569671631,0.0018466586479917,-0.012020943686366,0.5078958868980408,0.3271935284137726,-0.1917871087789535,-0.2918733656406402,1
38567,0.0041869925335049,-0.0085676107555627,0.99909907579422,2.4653000831604004,0.4344667196273803,0.4571206569671631,0.0018466586479917,-0.012020943686366,0.5078958868980408,0.3271935284137726,-0.1917871087789535,-0.2918733656406402,1
38567,0.0041869925335049,-0.0085676107555627,0.99909907579422,2.4653000831604004,0.4344667196273803,0.4571206569671631,0.0018466586479917,-0.012020943686366,0.5078958868980408,0.3271935284137726,-0.1917871087789535,-0.2918733656406402,1
38567,0.0041869925335049,-0.0085676107555627,0.99909907579422,2.4653000831604004,0.4344667196273803,0.4571206569671631,0.0018466586479917,-0.012020943686366,0.5078958868980408,0.3271935284137726,-0.1917871087789535,-0.2918733656406402,1
38567,0.0041869925335049,-0.0085676107555627,0.99909907579422,2.4653000831604004,0.4344667196273803,0.4571206569671631,0.0018466586479917,-0.012020943686366,0.5078958868980408,0.3271935284137726,-0.1917871087789535,-0.2918733656406402,1
38567,0.0041869925335049,-0.0085676107555627,0.99909907579422,2.4653000831604004,0.4344667196273803,0.4571206569671631,0.0018466586479917,-0.012020943686366,0.5078958868980408,0.3271935284137726,-0.1917871087789535,-0.2918733656406402,1
38567,0.0041869925335049,-0.0085676107555627,0.99909907579422,2.4653000831604004,0.4344667196273803,0.4571206569671631,0.0018466586479917,-0.012020943686366,0.5078958868980408,0.3271935284137726,-0.1917871087789535,-0.2918733656406402,1
38567,0.0041869925335049,-0.0085676107555627,0.99909907579422,2.4653000831604004,0.4344667196273803,0.4571206569671631,0.0018466586479917,-0.012020943686366,0.5078958868980408,0.3271935284137726,-0.1917871087789535,-0.2918733656406402,1
38567,0.0041869925335049,-0.0085676107555627,0.99909907579422,2.4653000831604004,0.4344667196273803,0.4571206569671631,0.0018466586479917,-0.012020943686366,0.5078958868980408,0.3271935284137726,-0.1917871087789535,-0.2918733656406402,1
38567,0.0041869925335049,-0.0085676107555627,0.99909907579422,2.4653000831604004,0.4344667196273803,0.4571206569671631,0.0018466586479917,-0.012020943686366,0.5078958868980408,0.3271935284137726,-0.1917871087789535,-0.2918733656406402,1
