timestamp,TimeUS,I,GyrX,GyrY,GyrZ,AccX,AccY,AccZ,EG,EA,T,GH,AH,GHz,AHz
695.71005300,695710053,0,-0.0058850860223174095,-0.0010067019611597061,0.0007893780129961669,0.45694786310195923,-0.3801276683807373,-9.856086730957031,0,0,45.18400192260742,1,1,257,269
695.71268000,695712680,0,-0.0071675595827400684,-0.0014323751674965024,0.0013470593839883804,0.45760995149612427,-0.37826845049858093,-9.856952667236328,0,0,45.18400192260742,1,1,257,269
695.71502400,695715024,0,-0.007213243283331394,-0.0015084468759596348,0.0010981367668136954,0.4575963616371155,-0.37637901306152344,-9.858112335205078,0,0,45.18400192260742,1,1,257,269
695.71770300,695717703,0,-0.006530731916427612,-0.0011670379899442196,0.0003801307175308466,0.45690780878067017,-0.37425270676612854,-9.859990119934082,0,0,45.18400192260742,1,1,257,269
695.71993100,695719931,0,-0.005706101190298796,-0.0004296590923331678,0.0007459689513780177,0.4561093747615814,-0.3737168312072754,-9.860568046569824,0,0,45.18400192260742,1,1,257,269
695.72268700,695722687,0,-0.005445539485663176,-0.00035153786302544177,0.001435249112546444,0.45529207587242126,-0.37344783544540405,-9.860797882080078,0,0,45.18400192260742,1,1,257,269
695.72498200,695724982,0,-0.005907352082431316,-0.001098270295187831,0.0013702220749109983,0.4541747272014618,-0.37334883213043213,-9.861330032348633,0,0,45.18400192260742,1,1,257,269
695.72769700,695727697,0,-0.006417499389499426,-0.0013139201328158379,0.0008504683501087129,0.45387256145477295,-0.37335091829299927,-9.862034797668457,0,0,45.18400192260742,1,1,257,269
695.73001200,695730012,0,-0.006683282554149628,-0.0012611462734639645,0.0007678746478632092,0.45423898100852966,-0.37367862462997437,-9.862630844116211,0,0,45.18400192260742,1,1,257,269
695.73280100,695732801,0,-0.006053769029676914,-0.0012040199944749475,0.0012598169269040227,0.4556120038032532,-0.37410038709640503,-9.862541198730469,0,0,45.18400192260742,1,1,257,269
695.73503400,695735034,0,-0.005266495514661074,-0.0007743517635390162,0.0010825821664184332,0.4565223455429077,-0.374864399433136,-9.861740112304688,0,0,45.18400192260742,1,1,257,269
695.73787800,695737878,0,-0.005104847718030214,-0.0005578076234087348,0.00027973507530987263,0.4574436545372009,-0.3762815594673157,-9.86178207397461,0,0,45.18400192260742,1,1,257,269
695.74002400,695740024,0,-0.005262110847979784,-0.0015487978234887123,3.245059269829653e-05,0.45925626158714294,-0.3791898787021637,-9.86170482635498,0,0,45.18400192260742,1,1,257,269
695.74262800,695742628,0,-0.005241157487034798,-0.0025253095664083958,-3.7175781471887603e-05,0.4600791037082672,-0.381222128868103,-9.862045288085938,0,0,45.18400192260742,1,1,257,269
695.74494300,695744943,0,-0.005572332069277763,-0.002461695345118642,0.0007707312470301986,0.4609103500843048,-0.38267987966537476,-9.86275577545166,0,0,45.18400192260742,1,1,257,269
695.74770600,695747706,0,-0.005267206579446793,-0.0017150690546259284,0.0014838352799415588,0.4615577459335327,-0.3836820721626282,-9.863017082214355,0,0,45.18400192260742,1,1,257,269
695.74994000,695749940,0,-0.004962161183357239,0.00011743391223717481,0.0020173233933746815,0.46255984902381897,-0.38457128405570984,-9.863142013549805,0,0,45.18400192260742,1,1,257,269
695.75272900,695752729,0,-0.00480955746024847,0.0003913419786840677,0.002031977754086256,0.4633800685405731,-0.3846937417984009,-9.863513946533203,0,0,45.18400192260742,1,1,257,269
695.75494500,695754945,0,-0.004277691710740328,-0.0007060305797494948,0.0015017405385151505,0.4641568064689636,-0.38497814536094666,-9.864380836486816,0,0,45.18400192260742,1,1,257,269
695.75782000,695757820,0,-0.00376522121950984,-0.001273651490919292,0.0011566667817533016,0.46422290802001953,-0.3850562572479248,-9.865363121032715,0,0,45.18400192260742,1,1,257,269
695.75998500,695759985,0,-0.0035627251490950584,-0.0015414492227137089,0.00080123171210289,0.4640905559062958,-0.38563072681427,-9.866442680358887,0,0,45.18400192260742,1,1,257,269
695.76270200,695762702,0,-0.0037011061795055866,-0.0014248753432184458,0.0003195978351868689,0.4632139503955841,-0.3867539167404175,-9.867208480834961,0,0,45.18400192260742,1,1,257,269
695.76500800,695765008,0,-0.003991997800767422,-0.0009463431197218597,-0.00025860214373096824,0.46215206384658813,-0.3874255120754242,-9.867060661315918,0,0,45.18400192260742,1,1,257,269
695.76760300,695767603,0,-0.004579775035381317,-0.0009850068017840385,-0.0002615595003589988,0.46091145277023315,-0.38841792941093445,-9.865764617919922,0,0,45.18400192260742,1,1,257,269
695.76999600,695769996,0,-0.005638017784804106,-0.0007808689842931926,-0.0006618851330131292,0.4603152275085449,-0.38937482237815857,-9.864910125732422,0,0,45.18400192260742,1,1,257,269
695.77265600,695772656,0,-0.006850632838904858,-0.0007367568905465305,-0.0006767084705643356,0.45938533544540405,-0.3901976943016052,-9.864449501037598,0,0,45.18400192260742,1,1,257,269
695.77493900,695774939,0,-0.007341032847762108,-0.00012402927677612752,-0.00035111233592033386,0.45760414004325867,-0.39052096009254456,-9.864017486572266,0,0,45.18400192260742,1,1,257,269
695.77765700,695777657,0,-0.006644079927355051,-0.00017483618285041302,-0.00023489429440815002,0.45470550656318665,-0.3907685875892639,-9.862377166748047,0,0,45.18400192260742,1,1,257,269
695.77993900,695779939,0,-0.0055043562315404415,-0.0008024370763450861,-2.4562426915508695e-05,0.45335185527801514,-0.3909386992454529,-9.86076545715332,0,0,45.18400192260742,1,1,257,269
695.78266800,695782668,0,-0.005006265826523304,-0.0015220979694277048,0.0007090725121088326,0.45155322551727295,-0.3909141719341278,-9.85897445678711,0,0,45.18400192260742,1,1,257,269
695.78497900,695784979,0,-0.005068126134574413,-0.001557107432745397,0.0009505925117991865,0.4511395990848541,-0.39083555340766907,-9.858600616455078,0,0,45.18400192260742,1,1,257,269
695.78766000,695787660,0,-0.005136025603860617,-0.0024615104775875807,0.0011093545472249389,0.45063304901123047,-0.3901436924934387,-9.857994079589844,0,0,45.18400192260742,1,1,257,269
695.78999800,695789998,0,-0.004905716981738806,-0.0025826378259807825,0.0010443405481055379,0.45044219493865967,-0.3897690773010254,-9.858060836791992,0,0,45.18400192260742,1,1,257,269
695.79268700,695792687,0,-0.0040984912775456905,-0.001959125278517604,0.0007323535392060876,0.45051196217536926,-0.38977721333503723,-9.857982635498047,0,0,45.176002502441406,1,1,257,269
695.79499000,695794990,0,-0.0036019368562847376,-0.0004828986420761794,0.0009651202708482742,0.45088666677474976,-0.3900769352912903,-9.857258796691895,0,0,45.176002502441406,1,1,257,269
695.79760700,695797607,0,-0.003728260286152363,-5.674274234479526e-06,0.00132317456882447,0.4507436752319336,-0.39024817943573,-9.856756210327148,0,0,45.176002502441406,1,1,257,269
695.79998700,695799987,0,-0.00429514329880476,5.846760541317053e-05,0.001329168793745339,0.4502164423465729,-0.390016108751297,-9.856852531433105,0,0,45.176002502441406,1,1,257,269
695.80275700,695802757,0,-0.004365289583802223,-0.00019797841378021985,0.001003013108856976,0.4499548077583313,-0.38979390263557434,-9.85718822479248,0,0,45.176002502441406,1,1,257,269
695.80515700,695805157,0,-0.0037117551546543837,-0.0007866921951062977,-0.0005172273376956582,0.44895997643470764,-0.389495849609375,-9.858811378479004,0,0,45.176002502441406,1,1,257,269
695.80753800,695807538,0,-0.0036011638585478067,-0.0010653735371306539,-0.00046393711818382144,0.44888466596603394,-0.38942432403564453,-9.85900592803955,0,0,45.176002502441406,1,1,257,269
695.81009400,695810094,0,-0.004323011264204979,-0.0004643342981580645,0.0007358329021371901,0.4505702257156372,-0.38925766944885254,-9.859477996826172,0,0,45.176002502441406,1,1,257,269
695.81256800,695812568,0,-0.00444675562903285,-0.0003538768505677581,0.001081339200027287,0.4511806070804596,-0.389399915933609,-9.859439849853516,0,0,45.176002502441406,1,1,257,269
695.81547000,695815470,0,-0.00453988928347826,-0.0005562111618928611,0.0017366628162562847,0.45214927196502686,-0.3898147940635681,-9.859274864196777,0,0,45.176002502441406,1,1,257,269
695.81767800,695817678,0,-0.005396445281803608,-0.0014438916696235538,0.001475412747822702,0.4544467329978943,-0.3911692202091217,-9.859572410583496,0,0,45.176002502441406,1,1,257,269
695.82002300,695820023,0,-0.005301211029291153,-0.0014316169545054436,0.0011358631309121847,0.4548903703689575,-0.39167389273643494,-9.859708786010742,0,0,45.176002502441406,1,1,257,269
695.82261800,695822618,0,-0.005252775736153126,-0.00015524966875091195,0.00029114741482771933,0.4556604027748108,-0.39283138513565063,-9.85981273651123,0,0,45.176002502441406,1,1,257,269
695.82503000,695825030,0,-0.0057093254290521145,0.0002858522057067603,-9.660940850153565e-05,0.4557494819164276,-0.39307868480682373,-9.859878540039062,0,0,45.176002502441406,1,1,257,269
695.82764900,695827649,0,-0.006802760064601898,0.0009446697076782584,-0.00028287104214541614,0.4562857449054718,-0.3931382894515991,-9.86013126373291,0,0,45.176002502441406,1,1,257,269
695.82996200,695829962,0,-0.0076914275996387005,0.00047910906141623855,0.00025294203078374267,0.4572621285915375,-0.39282935857772827,-9.860112190246582,0,0,45.176002502441406,1,1,257,269
695.83284100,695832841,0,-0.007314380723983049,4.239208283252083e-05,0.0004484449455048889,0.45895999670028687,-0.39174503087997437,-9.860445976257324,0,0,45.176002502441406,1,1,257,269
695.83492100,695834921,0,-0.0060018436051905155,-0.00010856467997655272,0.00023302076442632824,0.46012911200523376,-0.39052557945251465,-9.861039161682129,0,0,45.176002502441406,1,1,257,269
695.83787500,695837875,0,-0.004830587189644575,-0.0004993710317648947,2.1535328414756805e-05,0.4609336853027344,-0.38954946398735046,-9.861084938049316,0,0,45.176002502441406,1,1,257,269
695.83991800,695839918,0,-0.004657943267375231,-0.0006213034503161907,0.000778198940679431,0.46154701709747314,-0.3888256549835205,-9.860639572143555,0,0,45.176002502441406,1,1,257,269
695.84270800,695842708,0,-0.0047573186457157135,-0.00028227304574102163,0.0010653880890458822,0.46189144253730774,-0.3881864547729492,-9.860095024108887,0,0,45.176002502441406,1,1,257,269
695.84501600,695845016,0,-0.005373718217015266,-0.0003329401952214539,0.0009640614152885973,0.46147844195365906,-0.3879237473011017,-9.860091209411621,0,0,45.176002502441406,1,1,257,269
695.84770300,695847703,0,-0.005095876287668943,-0.0007160360109992325,0.001015306799672544,0.4602043628692627,-0.3885796368122101,-9.86154556274414,0,0,45.176002502441406,1,1,257,269
695.85002100,695850021,0,-0.004473645705729723,-0.0008505529258400202,0.001789703732356429,0.459052175283432,-0.38892051577568054,-9.86233139038086,0,0,45.176002502441406,1,1,257,269
695.85262600,695852626,0,-0.004267098847776651,-0.0005142046138644218,0.0018416030798107386,0.4574507474899292,-0.38888564705848694,-9.862053871154785,0,0,45.176002502441406,1,1,257,269
695.85500400,695855004,0,-0.004371612798422575,-0.0006726614665240049,0.0014925890136510134,0.4554968774318695,-0.3890773355960846,-9.86084270477295,0,0,45.176002502441406,1,1,257,269
695.85761000,695857610,0,-0.004173410590738058,-0.0010594422928988934,0.001523710903711617,0.45446258783340454,-0.38940227031707764,-9.860475540161133,0,0,45.176002502441406,1,1,257,269
695.85993800,695859938,0,-0.004231896251440048,-0.000845635193400085,0.0020158267579972744,0.45340070128440857,-0.39000144600868225,-9.861233711242676,0,0,45.176002502441406,1,1,257,269
695.86265300,695862653,0,-0.004431225825101137,-0.0008017811924219131,0.0026868460699915886,0.4528951942920685,-0.3902038037776947,-9.862518310546875,0,0,45.176002502441406,1,1,257,269
695.86493400,695864934,0,-0.004571770317852497,-0.0013667274033650756,0.0025341606233268976,0.4522591829299927,-0.3897857367992401,-9.863694190979004,0,0,45.15800094604492,1,1,257,269
695.86764900,695867649,0,-0.004522883798927069,-0.0017850531730800867,0.0021036991383880377,0.45191746950149536,-0.3897092938423157,-9.864087104797363,0,0,45.15800094604492,1,1,257,269
695.86993700,695869937,0,-0.0037706256844103336,-0.001660453504882753,0.0010282612638548017,0.4516235589981079,-0.39020827412605286,-9.863588333129883,0,0,45.15800094604492,1,1,257,269
695.87267000,695872670,0,-0.003939144778996706,-0.0017458696383982897,0.00021323795954231173,0.45115143060684204,-0.3908618092536926,-9.862772941589355,0,0,45.15800094604492,1,1,257,269
695.87494400,695874944,0,-0.004324030131101608,-0.00136086146812886,0.0009367701131850481,0.45082002878189087,-0.39147627353668213,-9.862479209899902,0,0,45.15800094604492,1,1,257,269
695.87766300,695877663,0,-0.003928620833903551,-0.0004328888317104429,0.0012908898061141372,0.45084521174430847,-0.3917452394962311,-9.862749099731445,0,0,45.15800094604492,1,1,257,269
695.87999300,695879993,0,-0.004454080481082201,-0.00044150868779979646,0.001316978596150875,0.45112600922584534,-0.39212989807128906,-9.862332344055176,0,0,45.15800094604492,1,1,257,269
695.88264900,695882649,0,-0.00542484549805522,-0.00028846869827248156,0.0015994732966646552,0.45157405734062195,-0.39241668581962585,-9.86111831665039,0,0,45.15800094604492,1,1,257,269
695.88499600,695884996,0,-0.005212260875850916,-0.0005192629178054631,0.0013161193346604705,0.4528351426124573,-0.3933058977127075,-9.858611106872559,0,0,45.15800094604492,1,1,257,269
695.88759200,695887592,0,-0.0042968313209712505,-0.0011568544432520866,0.0010414953576400876,0.4530026614665985,-0.39393436908721924,-9.857248306274414,0,0,45.15800094604492,1,1,257,269
695.88999100,695889991,0,-0.004076842684298754,-0.0014316276647150517,0.0014423648826777935,0.4530283212661743,-0.39425137639045715,-9.856339454650879,0,0,45.15800094604492,1,1,257,269
695.89265400,695892654,0,-0.004464152734726667,-0.0013811980606988072,0.001665067975409329,0.4532797932624817,-0.39411619305610657,-9.855998992919922,0,0,45.15800094604492,1,1,257,269
695.89515600,695895156,0,-0.005976073443889618,-0.0008440673700533807,0.001365631353110075,0.4544212222099304,-0.39324578642845154,-9.855024337768555,0,0,45.15800094604492,1,1,257,269
695.89749100,695897491,0,-0.006388016045093536,-0.00023631226213183254,0.0012083954643458128,0.4561171233654022,-0.3929772973060608,-9.853781700134277,0,0,45.15800094604492,1,1,257,269
695.90023600,695900236,0,-0.006065418943762779,-0.0004954396281391382,0.0013480279594659805,0.45770296454429626,-0.3926718831062317,-9.852972030639648,0,0,45.15800094604492,1,1,257,269
695.90257600,695902576,0,-0.006884661503136158,-0.0009985913056880236,0.0012309084413573146,0.45941001176834106,-0.39165616035461426,-9.852055549621582,0,0,45.15800094604492,1,1,257,269
695.90510400,695905104,0,-0.007032354362308979,-0.0015922373859211802,0.0013374713016673923,0.4596806764602661,-0.39069342613220215,-9.851667404174805,0,0,45.15800094604492,1,1,257,269
695.90749300,695907493,0,-0.006375980097800493,-0.001814153860323131,0.0013525924878194928,0.4597265422344208,-0.38896459341049194,-9.852203369140625,0,0,45.15800094604492,1,1,257,269
695.91013000,695910130,0,-0.0058885617181658745,-0.0017400812357664108,0.001764331478625536,0.4598044455051422,-0.38843777775764465,-9.852693557739258,0,0,45.15800094604492,1,1,257,269
695.91268600,695912686,0,-0.003702310612425208,-0.0017270395765081048,0.002338825026527047,0.459881991147995,-0.38814079761505127,-9.854391098022461,0,0,45.15800094604492,1,1,257,269
695.91501700,695915017,0,-0.0033504320308566093,-0.0016615507192909718,0.0019447954837232828,0.45978522300720215,-0.38851845264434814,-9.854671478271484,0,0,45.15800094604492,1,1,257,269
695.91766300,695917663,0,-0.003662925213575363,-0.0012644127709791064,0.0008195043774321675,0.45880207419395447,-0.3908056318759918,-9.855501174926758,0,0,45.15800094604492,1,1,257,269
695.92001100,695920011,0,-0.003745908150449395,-0.0012656246544793248,0.0005856923526152968,0.4585426449775696,-0.3909537196159363,-9.855949401855469,0,0,45.15800094604492,1,1,257,269
695.92260500,695922605,0,-0.004066444933414459,-0.0016665927832946181,0.00020465596753638238,0.4573589265346527,-0.3909165561199188,-9.85792350769043,0,0,45.15800094604492,1,1,257,269
695.92501600,695925016,0,-0.004462081473320723,-0.00170858483761549,0.0003769409959204495,0.45713427662849426,-0.39104101061820984,-9.858210563659668,0,0,45.15800094604492,1,1,257,269
695.92764600,695927646,0,-0.005332876928150654,-0.0012719182996079326,0.0005310520064085722,0.4567316770553589,-0.3914990723133087,-9.858038902282715,0,0,45.15800094604492,1,1,257,269
695.92992500,695929925,0,-0.005350415129214525,-0.0006203692173585296,0.0005168511415831745,0.45654886960983276,-0.39173099398612976,-9.856836318969727,0,0,45.15800094604492,1,1,257,269
695.93278700,695932787,0,-0.005269348155707121,-0.00012475447147153318,0.0011634527472779155,0.45628800988197327,-0.39197948575019836,-9.85578441619873,0,0,45.15800094604492,1,1,257,269
695.93492000,695934920,0,-0.005058323498815298,-0.0005169446230866015,0.0011118149850517511,0.45631861686706543,-0.39191603660583496,-9.855802536010742,0,0,45.15800094604492,1,1,257,269
695.93787000,695937870,0,-0.004954110831022263,-5.981313006486744e-05,0.001015263726003468,0.4566720128059387,-0.3910284638404846,-9.85595703125,0,0,45.15800094604492,1,1,257,269
695.94009600,695940096,0,-0.0041300286538898945,-8.159982826327905e-05,0.0006636639591306448,0.45738980174064636,-0.38865748047828674,-9.855369567871094,0,0,45.16200256347656,1,1,257,269
695.94253000,695942530,0,-0.0038351009134203196,-0.00011848104622913525,0.0007506367401219904,0.45756325125694275,-0.388146311044693,-9.855019569396973,0,0,45.16200256347656,1,1,257,269
695.94514300,695945143,0,-0.003885591635480523,-0.0005810704897157848,0.001345782307907939,0.45770955085754395,-0.38762858510017395,-9.854049682617188,0,0,45.16200256347656,1,1,257,269
695.94747400,695947474,0,-0.0044079795479774475,-0.0010568334255367517,0.0018044105963781476,0.45770320296287537,-0.38775792717933655,-9.853646278381348,0,0,45.16200256347656,1,1,257,269
695.95017500,695950175,0,-0.005111694801598787,-0.002262369729578495,0.0018681351793929935,0.45741191506385803,-0.38812047243118286,-9.854904174804688,0,0,45.16200256347656,1,1,257,269
695.95246400,695952464,0,-0.005395372863858938,-0.0024247232358902693,0.001010621665045619,0.4566103219985962,-0.3880125880241394,-9.856508255004883,0,0,45.16200256347656,1,1,257,269
695.95517100,695955171,0,-0.005241017322987318,-0.00173558306414634,-0.0001453998702345416,0.45563191175460815,-0.38731878995895386,-9.857827186584473,0,0,45.16200256347656,1,1,257,269
695.95742600,695957426,0,-0.005485079251229763,-0.0012491634115576744,0.00017110799672082067,0.45543304085731506,-0.38707447052001953,-9.858805656433105,0,0,45.16200256347656,1,1,257,269
695.96017100,695960171,0,-0.00566515326499939,-0.0009141374030150473,0.0011681407922878861,0.4555874466896057,-0.3874366581439972,-9.860051155090332,0,0,45.16200256347656,1,1,257,269
695.96243500,695962435,0,-0.006029026582837105,-0.00018136741709895432,0.0006276321946643293,0.4556041955947876,-0.38752153515815735,-9.860733985900879,0,0,45.16200256347656,1,1,257,269
695.96517800,695965178,0,-0.0059562441892921925,3.163473593303934e-05,-7.336663202295313e-06,0.4554269015789032,-0.38754239678382874,-9.862281799316406,0,0,45.16200256347656,1,1,257,269
695.96749000,695967490,0,-0.0055024889297783375,-0.0002331298601347953,-0.0002104408195009455,0.4548119604587555,-0.38726747035980225,-9.864466667175293,0,0,45.16200256347656,1,1,257,269
695.97016700,695970167,0,-0.004980454687029123,1.7467280486016534e-05,-4.46472768089734e-06,0.453763872385025,-0.3873654007911682,-9.865928649902344,0,0,45.16200256347656,1,1,257,269
695.97250800,695972508,0,-0.0038839636836200953,0.0005344299133867025,-1.104377497540554e-05,0.45309823751449585,-0.3881443440914154,-9.866548538208008,0,0,45.16200256347656,1,1,257,269
695.97510300,695975103,0,-0.0035443948581814766,0.0004590764583554119,0.00035631482023745775,0.4529534876346588,-0.38886740803718567,-9.866247177124023,0,0,45.16200256347656,1,1,257,269
695.97747800,695977478,0,-0.0035918112844228745,-0.00041089855949394405,0.0007930744322948158,0.4531908929347992,-0.3891885578632355,-9.865569114685059,0,0,45.16200256347656,1,1,257,269
695.98010400,695980104,0,-0.004036265891045332,-0.0010269751073792577,0.0011039669625461102,0.45335620641708374,-0.38917481899261475,-9.865189552307129,0,0,45.16200256347656,1,1,257,269
695.98243100,695982431,0,-0.0042458223178982735,-0.0010345180053263903,0.0014097786042839289,0.45296645164489746,-0.38888034224510193,-9.864950180053711,0,0,45.16200256347656,1,1,257,269
695.98515400,695985154,0,-0.004341418854892254,-0.000981587334536016,0.0014527121093124151,0.4525935649871826,-0.38829004764556885,-9.863382339477539,0,0,45.16200256347656,1,1,257,269
695.98748400,695987484,0,-0.004508777987211943,-0.0010882363421842456,0.00037984835216775537,0.452639102935791,-0.388089120388031,-9.861898422241211,0,0,45.16200256347656,1,1,257,269
695.99019600,695990196,0,-0.0047208997420966625,-0.0016520592616871,-0.0011117173125967383,0.4527939260005951,-0.38768911361694336,-9.860880851745605,0,0,45.16200256347656,1,1,257,269
695.99251700,695992517,0,-0.004872343502938747,-0.0016664443537592888,-0.0017542216228321195,0.45338016748428345,-0.38658109307289124,-9.859879493713379,0,0,45.16200256347656,1,1,257,269
695.99514300,695995143,0,-0.004959787242114544,-0.0014942452544346452,-0.0010070414282381535,0.45358893275260925,-0.3857896327972412,-9.859682083129883,0,0,45.16200256347656,1,1,257,269
695.99748900,695997489,0,-0.0050825742073357105,-0.000881736574228853,0.0004453965520951897,0.45400193333625793,-0.38453835248947144,-9.860108375549316,0,0,45.16200256347656,1,1,257,269
696.00009600,696000096,0,-0.0042906408198177814,0.00018310180166736245,0.0013574158074334264,0.45434805750846863,-0.3833238482475281,-9.86026382446289,0,0,45.16200256347656,1,1,257,269
696.00256600,696002566,0,-0.0029899775981903076,0.0008658019942231476,0.0017742497147992253,0.45448917150497437,-0.3817223310470581,-9.85963249206543,0,0,45.16200256347656,1,1,257,269
696.00514100,696005141,0,-0.0028929864056408405,0.0009983991039916873,0.0017944112187251449,0.4545917212963104,-0.3813245892524719,-9.859245300292969,0,0,45.16200256347656,1,1,257,269
696.00764600,696007646,0,-0.005554277915507555,0.0008886930299922824,0.0027616992592811584,0.4556798040866852,-0.38041257858276367,-9.85773754119873,0,0,45.16200256347656,1,1,257,269
696.01002400,696010024,0,-0.006007390096783638,0.0007284153834916651,0.0029439011123031378,0.45606428384780884,-0.38058993220329285,-9.857633590698242,0,0,45.16200256347656,1,1,257,269
696.01268000,696012680,0,-0.006004059221595526,0.00019609912123996764,0.002878804923966527,0.4572853147983551,-0.38242727518081665,-9.857771873474121,0,0,45.18600082397461,1,1,257,269
696.01499600,696014996,0,-0.005548234097659588,-0.00010974961332976818,0.0028564620297402143,0.4581609070301056,-0.3831014931201935,-9.85686206817627,0,0,45.18600082397461,1,1,257,269
696.01783800,696017838,0,-0.005287356209009886,-0.00033262005308642983,0.0031673498451709747,0.45797112584114075,-0.3827461302280426,-9.855918884277344,0,0,45.18600082397461,1,1,257,269
696.01998700,696019987,0,-0.005846789572387934,-0.0010300768772140145,0.0024686334654688835,0.4577987790107727,-0.38248521089553833,-9.853915214538574,0,0,45.18600082397461,1,1,257,269
696.02263300,696022633,0,-0.006118239834904671,-0.001367892138659954,0.001774015137925744,0.4578266441822052,-0.38267725706100464,-9.853334426879883,0,0,45.18600082397461,1,1,257,269
696.02516000,696025160,0,-0.006382196210324764,-0.0010373893892392516,0.0008739389013499022,0.4576995372772217,-0.38374724984169006,-9.852639198303223,0,0,45.18600082397461,1,1,257,269
696.02752100,696027521,0,-0.006586897186934948,-0.0008057514787651598,0.0007480831700377166,0.45797213912010193,-0.3839429020881653,-9.852614402770996,0,0,45.18600082397461,1,1,257,269
696.03015300,696030153,0,-0.006317913066595793,-0.00018350976461078972,0.0004131015157327056,0.4592016935348511,-0.38352468609809875,-9.852251052856445,0,0,45.18600082397461,1,1,257,269
696.03263300,696032633,0,-0.006234082859009504,-3.113106868113391e-05,0.0005897864466533065,0.4593903720378876,-0.38315993547439575,-9.85215950012207,0,0,45.18600082397461,1,1,257,269
696.03534100,696035341,0,-0.005425747018307447,6.335104262689129e-05,0.0009654447203502059,0.46059492230415344,-0.3814827501773834,-9.851890563964844,0,0,45.18600082397461,1,1,257,269
696.03752000,696037520,0,-0.0051923952996730804,-0.00032926362473517656,0.0013078454649075866,0.46111395955085754,-0.38112348318099976,-9.851704597473145,0,0,45.18600082397461,1,1,257,269
696.04013300,696040133,0,-0.004760706797242165,-0.00013176830543670803,0.0018102312460541725,0.4622379541397095,-0.3799898028373718,-9.851888656616211,0,0,45.18600082397461,1,1,257,269
696.04244900,696042449,0,-0.004222722724080086,0.00033312529558315873,0.001861654338426888,0.4623778164386749,-0.3789307773113251,-9.852764129638672,0,0,45.18600082397461,1,1,257,269
696.04528200,696045282,0,-0.004924433771520853,0.00020421569934114814,0.001823838916607201,0.4618794620037079,-0.3779047131538391,-9.853741645812988,0,0,45.18600082397461,1,1,257,269
696.04747300,696047473,0,-0.006110576447099447,-0.000345156789990142,0.0017923538107424974,0.46116429567337036,-0.3770662844181061,-9.854537963867188,0,0,45.18600082397461,1,1,257,269
696.05018200,696050182,0,-0.0065093678422272205,-0.0008496498921886086,0.0012750464957207441,0.46098488569259644,-0.37649786472320557,-9.855072021484375,0,0,45.18600082397461,1,1,257,269
696.05254700,696052547,0,-0.006006607320159674,-0.0012551068793982267,0.0006448350031860173,0.4603091776371002,-0.3761533796787262,-9.855767250061035,0,0,45.18600082397461,1,1,257,269
696.05515700,696055157,0,-0.005839395336806774,-0.0017493391642346978,0.00016178640362340957,0.4596998989582062,-0.37563398480415344,-9.856759071350098,0,0,45.18600082397461,1,1,257,269
696.05752900,696057529,0,-0.006054629106074572,-0.001633104751817882,0.0003670831210911274,0.45946723222732544,-0.3748869299888611,-9.858253479003906,0,0,45.18600082397461,1,1,257,269
696.06008800,696060088,0,-0.0057375202886760235,-0.0008748825057409704,0.0013828614028170705,0.4593966007232666,-0.3744925856590271,-9.859469413757324,0,0,45.18600082397461,1,1,257,269
696.06251900,696062519,0,-0.0051317596808075905,0.0002446587022859603,0.00189774704631418,0.45886725187301636,-0.374714732170105,-9.860917091369629,0,0,45.18600082397461,1,1,257,269
696.06509600,696065096,0,-0.005270055960863829,0.00030175852589309216,0.0024951270315796137,0.4588091969490051,-0.37590959668159485,-9.86152458190918,0,0,45.18600082397461,1,1,257,269
696.06751900,696067519,0,-0.0055341520346701145,-0.0005402961396612227,0.0032648309133946896,0.45892593264579773,-0.3781983554363251,-9.862898826599121,0,0,45.18600082397461,1,1,257,269
696.07012300,696070123,0,-0.006035797297954559,-0.0012495731934905052,0.0035288247745484114,0.45867377519607544,-0.3796394169330597,-9.864285469055176,0,0,45.18600082397461,1,1,257,269
696.07246300,696072463,0,-0.006155936047434807,-0.0011639437871053815,0.0027104681357741356,0.4582566022872925,-0.38108134269714355,-9.865896224975586,0,0,45.18600082397461,1,1,257,269
696.07518400,696075184,0,-0.006017372477799654,-0.0003550542751327157,0.0021380071993917227,0.4578736424446106,-0.38279277086257935,-9.86681079864502,0,0,45.18600082397461,1,1,257,269
696.07742400,696077424,0,-0.005049591418355703,4.390044341562316e-05,0.0018792175687849522,0.4578949511051178,-0.3845866322517395,-9.866618156433105,0,0,45.18600082397461,1,1,257,269
696.08018800,696080188,0,-0.004294470883905888,-0.00020056076755281538,0.0013206936419010162,0.45800143480300903,-0.3852863907814026,-9.865986824035645,0,0,45.18600082397461,1,1,257,269
696.08244000,696082440,0,-0.004123957362025976,-0.000800335721578449,0.0013726165052503347,0.4586585760116577,-0.38547492027282715,-9.865057945251465,0,0,45.18600082397461,1,1,257,269
696.08518300,696085183,0,-0.004238312132656574,-0.0012145633809268475,0.00128568010404706,0.45902135968208313,-0.38560447096824646,-9.864871978759766,0,0,45.18600082397461,1,1,257,269
696.08744600,696087446,0,-0.003672846360132098,-0.001425287569873035,0.0006647486588917673,0.4594495892524719,-0.38612791895866394,-9.864930152893066,0,0,45.167999267578125,1,1,257,269
696.09010200,696090102,0,-0.003388136625289917,-0.001422259141691029,0.00021284143440425396,0.4596197307109833,-0.3868182897567749,-9.864295959472656,0,0,45.167999267578125,1,1,257,269
696.09256200,696092562,0,-0.0036934828385710716,-0.0011710115941241384,-0.0001959567453013733,0.4596056044101715,-0.3881572186946869,-9.862972259521484,0,0,45.167999267578125,1,1,257,269
696.09514100,696095141,0,-0.00398043030872941,-0.0013079295167699456,-0.0006966004148125648,0.45984911918640137,-0.3900032639503479,-9.860041618347168,0,0,45.167999267578125,1,1,257,269
696.09742900,696097429,0,-0.004028965253382921,-0.001386440359055996,-0.0005410668672993779,0.46019741892814636,-0.3908762037754059,-9.858202934265137,0,0,45.167999267578125,1,1,257,269
696.10015000,696100150,0,-0.00442529795691371,-0.0013628812739625573,0.00041295000119134784,0.45958569645881653,-0.39168626070022583,-9.856215476989746,0,0,45.167999267578125,1,1,257,269
696.10250600,696102506,0,-0.004939682316035032,-0.0011532596545293927,0.001813288195990026,0.4588262438774109,-0.39141809940338135,-9.855417251586914,0,0,45.167999267578125,1,1,257,269
696.10516700,696105167,0,-0.004747853614389896,-0.0013233741046860814,0.002587853232398629,0.4585845470428467,-0.3914654850959778,-9.854360580444336,0,0,45.167999267578125,1,1,257,269
696.10745900,696107459,0,-0.00498981075361371,-0.001000722637400031,0.002196795539930463,0.458569198846817,-0.3915693461894989,-9.853638648986816,0,0,45.167999267578125,1,1,257,269
696.11015200,696110152,0,-0.005690476391464472,-0.0008474832284264266,0.002047190675511956,0.4578850567340851,-0.3909558951854706,-9.8515043258667,0,0,45.167999267578125,1,1,257,269
696.11250900,696112509,0,-0.0058799022808671,-0.00080128014087677,0.0016202235128730536,0.45761939883232117,-0.3906334340572357,-9.851134300231934,0,0,45.167999267578125,1,1,257,269
696.11515300,696115153,0,-0.007166411727666855,-9.406949538970366e-05,0.00032241331064142287,0.45740723609924316,-0.39035657048225403,-9.851404190063477,0,0,45.167999267578125,1,1,257,269
696.11749100,696117491,0,-0.007110650651156902,0.00014974635269027203,-0.0002977919939439744,0.4569694399833679,-0.38976433873176575,-9.852225303649902,0,0,45.167999267578125,1,1,257,269
696.12011800,696120118,0,-0.006158160511404276,0.0002613737597130239,-0.0010838824091479182,0.45664235949516296,-0.3888861835002899,-9.85234546661377,0,0,45.167999267578125,1,1,257,269
696.12248900,696122489,0,-0.0054330527782440186,-0.0007452068384736776,-0.0016090953722596169,0.4567122161388397,-0.38781866431236267,-9.851725578308105,0,0,45.167999267578125,1,1,257,269
696.12510100,696125101,0,-0.004982175771147013,-0.0013634493807330728,-0.001122061163187027,0.457156777381897,-0.38777485489845276,-9.851210594177246,0,0,45.167999267578125,1,1,257,269
696.12744200,696127442,0,-0.004609276540577412,-0.0014622369781136513,-0.001253769500181079,0.45791229605674744,-0.38798001408576965,-9.85208797454834,0,0,45.167999267578125,1,1,257,269
696.13018400,696130184,0,-0.004283897578716278,-0.0014232463436201215,-0.0012686968548223376,0.4579069912433624,-0.38800638914108276,-9.852895736694336,0,0,45.167999267578125,1,1,257,269
696.13271200,696132712,0,-0.003996734973043203,-0.0008228670922107995,-0.0011237500002607703,0.4575418531894684,-0.38833123445510864,-9.85561752319336,0,0,45.167999267578125,1,1,257,269
696.13493900,696134939,0,-0.004031030461192131,-6.842378934379667e-05,0.00011352998262736946,0.45833614468574524,-0.3896530270576477,-9.856583595275879,0,0,45.167999267578125,1,1,257,269
696.13785100,696137851,0,-0.0039013854693621397,-1.0865191143238917e-05,0.0009492518147453666,0.45899903774261475,-0.3902648687362671,-9.856593132019043,0,0,45.167999267578125,1,1,257,269
696.14009700,696140097,0,-0.0033130578231066465,-1.4925293726264499e-05,0.0017768415855243802,0.46211564540863037,-0.3934168517589569,-9.856246948242188,0,0,45.167999267578125,1,1,257,269
696.14252500,696142525,0,-0.003367883386090398,-0.00046380230924114585,0.001433849218301475,0.4628451466560364,-0.3942883610725403,-9.856473922729492,0,0,45.167999267578125,1,1,257,269
696.14512100,696145121,0,-0.0038566540461033583,-0.000563234556466341,0.000992770423181355,0.4643799066543579,-0.3960067629814148,-9.857775688171387,0,0,45.167999267578125,1,1,257,269
696.14744800,696147448,0,-0.003773400792852044,-0.0005401435773819685,0.0010740377474576235,0.46483147144317627,-0.39628663659095764,-9.858482360839844,0,0,45.167999267578125,1,1,257,269
696.15017800,696150178,0,-0.004192262887954712,0.00011643661127891392,0.0011974319349974394,0.4648132622241974,-0.3963761329650879,-9.858864784240723,0,0,45.167999267578125,1,1,257,269
696.15262800,696152628,0,-0.004001042805612087,0.00045825488632544875,-0.00017614863463677466,0.46437227725982666,-0.3961842656135559,-9.858336448669434,0,0,45.167999267578125,1,1,257,269
696.15501100,696155011,0,-0.0040021492168307304,0.0005504008731804788,-0.0004307817143853754,0.4641261398792267,-0.39595359563827515,-9.857810974121094,0,0,45.167999267578125,1,1,257,269
696.15764200,696157642,0,-0.004348353017121553,0.00030469236662611365,-0.00030538917053490877,0.4635457396507263,-0.395192414522171,-9.856805801391602,0,0,45.167999267578125,1,1,257,269
696.15992700,696159927,0,-0.004062827210873365,-0.00026265447377227247,0.0008474770584143698,0.4625281095504761,-0.3942292630672455,-9.856694221496582,0,0,45.167999267578125,1,1,257,269
696.16268800,696162688,0,-0.003999747335910797,-0.0008659407030791044,0.00140759302303195,0.4606907367706299,-0.3926646113395691,-9.85826301574707,0,0,45.16600036621094,1,1,257,269
696.16492000,696164920,0,-0.004613660275936127,-0.000892679556272924,0.001500803860835731,0.4595124125480652,-0.39190873503685,-9.85956859588623,0,0,45.16600036621094,1,1,257,269
696.16768900,696167689,0,-0.005145028233528137,-0.0009416452958248556,0.0014837648486718535,0.45760002732276917,-0.39097899198532104,-9.8605375289917,0,0,45.16600036621094,1,1,257,269
696.16992700,696169927,0,-0.005858615972101688,-0.0010124548571184278,0.001216820441186428,0.45641452074050903,-0.3903932571411133,-9.861091613769531,0,0,45.16600036621094,1,1,257,269
696.17272100,696172721,0,-0.006249922793358564,-0.0014426828129217029,0.0005825553671456873,0.45509323477745056,-0.38990941643714905,-9.863032341003418,0,0,45.16600036621094,1,1,257,269
696.17492200,696174922,0,-0.00623788358643651,-0.002125683007761836,0.00011920271936105564,0.45396849513053894,-0.3899257779121399,-9.865293502807617,0,0,45.16600036621094,1,1,257,269
696.17769300,696177693,0,-0.004795507062226534,-0.001732654869556427,0.0005828554276376963,0.4529246389865875,-0.3904862105846405,-9.867837905883789,0,0,45.16600036621094,1,1,257,269
696.18002100,696180021,0,-0.00405492726713419,-0.0010756601113826036,0.0007052175351418555,0.4516837000846863,-0.39116430282592773,-9.870006561279297,0,0,45.16600036621094,1,1,257,269
696.18269600,696182696,0,-0.004504320211708546,-0.0006166421808302402,0.0007909783744253218,0.44969233870506287,-0.3918715715408325,-9.871077537536621,0,0,45.16600036621094,1,1,257,269
696.18502700,696185027,0,-0.005134887062013149,-0.0007214955985546112,0.00045476065133698285,0.44881632924079895,-0.39210864901542664,-9.870744705200195,0,0,45.16600036621094,1,1,257,269
696.18771000,696187710,0,-0.005805708933621645,-0.0013700954150408506,-6.827928882557899e-05,0.4480355679988861,-0.3924247920513153,-9.870577812194824,0,0,45.16600036621094,1,1,257,269
696.18992700,696189927,0,-0.005693846847862005,-0.0018483638996258378,-0.0005004583508707583,0.4467424154281616,-0.39385685324668884,-9.870919227600098,0,0,45.16600036621094,1,1,257,269
696.19268200,696192682,0,-0.005012850277125835,-0.0015922473976388574,-0.0008359290659427643,0.4457049071788788,-0.3957052528858185,-9.871070861816406,0,0,45.16600036621094,1,1,257,269
696.19491700,696194917,0,-0.005715598352253437,-0.00019200464885216206,-0.00027531481464393437,0.4450697600841522,-0.3975587487220764,-9.871088027954102,0,0,45.16600036621094,1,1,257,269
696.19765900,696197659,0,-0.006140305195003748,-0.0003106993099208921,0.0004932338488288224,0.44503727555274963,-0.39868125319480896,-9.870766639709473,0,0,45.16600036621094,1,1,257,269
696.19992500,696199925,0,-0.005766136571764946,-0.001447007292881608,0.0007310124346986413,0.4454401135444641,-0.3990263342857361,-9.87021541595459,0,0,45.16600036621094,1,1,257,269
696.20274300,696202743,0,-0.005349356681108475,-0.0027310096193104982,0.00046512484550476074,0.44609323143959045,-0.39912235736846924,-9.870007514953613,0,0,45.16600036621094,1,1,257,269
696.20494200,696204942,0,-0.004813245497643948,-0.0035274848341941833,0.00012072019308106974,0.44648128747940063,-0.39934858679771423,-9.870560646057129,0,0,45.16600036621094,1,1,257,269
696.20770400,696207704,0,-0.004501501563936472,-0.0033039350528270006,0.00030700527713634074,0.44660434126853943,-0.39966490864753723,-9.87122917175293,0,0,45.16600036621094,1,1,257,269
696.20997400,696209974,0,-0.004219679161906242,-0.0023654806427657604,0.00044003615039400756,0.4468545913696289,-0.4002757966518402,-9.87110710144043,0,0,45.16600036621094,1,1,257,269
696.21273800,696212738,0,-0.0042301081120967865,-0.0018770177848637104,0.0003532039700075984,0.4472959637641907,-0.40110087394714355,-9.870713233947754,0,0,45.16600036621094,1,1,257,269
696.21498800,696214988,0,-0.0045776995830237865,-0.0022654591593891382,0.0007785485940985382,0.448961466550827,-0.4018891453742981,-9.870707511901855,0,0,45.16600036621094,1,1,257,269
696.21760100,696217601,0,-0.005052303429692984,-0.0025790431536734104,0.0010792923858389258,0.45008930563926697,-0.40138861536979675,-9.870760917663574,0,0,45.16600036621094,1,1,257,269
696.21999000,696219990,0,-0.004937708843499422,-0.0020356101449579,0.0011463012779131532,0.45059579610824585,-0.4002712368965149,-9.870790481567383,0,0,45.16600036621094,1,1,257,269
696.22263000,696222630,0,-0.004570430144667625,-0.0015466900076717138,0.0013287060428410769,0.4505650997161865,-0.4000385105609894,-9.870790481567383,0,0,45.16600036621094,1,1,257,269
696.22515800,696225158,0,-0.004209623206406832,-0.0010264011798426509,0.0018737249774858356,0.45068639516830444,-0.39959657192230225,-9.870589256286621,0,0,45.16600036621094,1,1,257,269
696.22751900,696227519,0,-0.003941380884498358,-0.0007119780639186502,0.0018594892462715507,0.4509848356246948,-0.39933016896247864,-9.870476722717285,0,0,45.16600036621094,1,1,257,269
696.23014800,696230148,0,-0.003365797456353903,-0.0012123783817514777,0.0013908979017287493,0.45117467641830444,-0.3984696865081787,-9.870550155639648,0,0,45.16600036621094,1,1,257,269
696.23259700,696232597,0,-0.003007442457601428,-0.001989002339541912,0.0009600728517398238,0.4502401351928711,-0.398981511592865,-9.871474266052246,0,0,45.16600036621094,1,1,257,269
696.23533000,696235330,0,-0.003118858439847827,-0.0023865492548793554,0.0005305653321556747,0.44983944296836853,-0.3997651934623718,-9.872791290283203,0,0,45.18000030517578,1,1,257,269
696.23749200,696237492,0,-0.0036053163930773735,-0.003131809877231717,0.00024374686472583562,0.44950538873672485,-0.40060287714004517,-9.874427795410156,0,0,45.18000030517578,1,1,257,269
696.24012400,696240124,0,-0.003826542990282178,-0.0029485151171684265,0.0002691763511393219,0.44963377714157104,-0.4006367325782776,-9.874350547790527,0,0,45.18000030517578,1,1,257,269
696.24266400,696242664,0,-0.0035790479741990566,-0.00248354091309011,0.000390481116482988,0.45076555013656616,-0.40065523982048035,-9.872736930847168,0,0,45.18000030517578,1,1,257,269
696.24502300,696245023,0,-0.0036257568281143904,-0.0027917916886508465,0.0006952380645088851,0.45128464698791504,-0.40080511569976807,-9.872159004211426,0,0,45.18000030517578,1,1,257,269
696.24765500,696247655,0,-0.0034235487692058086,-0.003873563837260008,0.0012572876876220107,0.4532966613769531,-0.40115219354629517,-9.870040893554688,0,0,45.18000030517578,1,1,257,269
696.25002000,696250020,0,-0.003506788518279791,-0.004063927568495274,0.0009138292516581714,0.45397433638572693,-0.40119442343711853,-9.869223594665527,0,0,45.18000030517578,1,1,257,269
696.25262000,696252620,0,-0.003421591129153967,-0.003912747371941805,0.0005342473741620779,0.4568466246128082,-0.40108492970466614,-9.866332054138184,0,0,45.18000030517578,1,1,257,269
696.25500600,696255006,0,-0.0036889449693262577,-0.003858993761241436,0.0008048375020734966,0.45748522877693176,-0.40114426612854004,-9.865509033203125,0,0,45.18000030517578,1,1,257,269
696.25763500,696257635,0,-0.004702500067651272,-0.004023001063615084,0.0019269565818831325,0.45971062779426575,-0.40141478180885315,-9.863356590270996,0,0,45.18000030517578,1,1,257,269
696.25993700,696259937,0,-0.005250248592346907,-0.0038390527479350567,0.0024660774506628513,0.46167007088661194,-0.40164971351623535,-9.862813949584961,0,0,45.18000030517578,1,1,257,269
696.26268000,696262680,0,-0.005854374263435602,-0.003828673157840967,0.0025211614556610584,0.4636976718902588,-0.4019363224506378,-9.862860679626465,0,0,45.18000030517578,1,1,257,269
696.26496000,696264960,0,-0.005702242720872164,-0.0037887480575591326,0.0020735282450914383,0.4651949107646942,-0.4019061326980591,-9.862801551818848,0,0,45.18000030517578,1,1,257,269
696.26767800,696267678,0,-0.005594064947217703,-0.002621415304020047,0.001189623144455254,0.46623384952545166,-0.40144166350364685,-9.862519264221191,0,0,45.18000030517578,1,1,257,269
696.27000600,696270006,0,-0.005498581565916538,-0.0012661482905969024,0.0012746306601911783,0.46698400378227234,-0.4005388021469116,-9.861571311950684,0,0,45.18000030517578,1,1,257,269
696.27270200,696272702,0,-0.00535107497125864,-0.0006527897785417736,0.0012788944877684116,0.4674069881439209,-0.4002652168273926,-9.859978675842285,0,0,45.18000030517578,1,1,257,269
696.27500900,696275009,0,-0.005117976106703281,-0.0017703922931104898,0.0004455281305126846,0.46780112385749817,-0.39969345927238464,-9.85780143737793,0,0,45.18000030517578,1,1,257,269
696.27764800,696277648,0,-0.004001428373157978,-0.0024149620439857244,-0.0003578555188141763,0.4675755500793457,-0.3990512788295746,-9.857935905456543,0,0,45.18000030517578,1,1,257,269
696.28001100,696280011,0,-0.002997879171743989,-0.002586793852970004,-0.0005375773762352765,0.4666072130203247,-0.39772042632102966,-9.859357833862305,0,0,45.18000030517578,1,1,257,269
696.28261600,696282616,0,-0.0025808289647102356,-0.0018546030623838305,-0.0004567093856167048,0.46548059582710266,-0.39666327834129333,-9.860109329223633,0,0,45.18000030517578,1,1,257,269
696.28493400,696284934,0,-0.0028966059908270836,-0.00132740696426481,0.00040918306331150234,0.4645380675792694,-0.39478394389152527,-9.860605239868164,0,0,45.18000030517578,1,1,257,269
696.28768600,696287686,0,-0.0038035656325519085,-0.001481717568822205,0.0014341629575937986,0.46498870849609375,-0.39345937967300415,-9.860594749450684,0,0,45.18000030517578,1,1,257,269
696.28992900,696289929,0,-0.004930098541080952,-0.001572812208905816,0.0014613631647080183,0.4655910134315491,-0.3918176591396332,-9.860871315002441,0,0,45.18000030517578,1,1,257,269
696.29271200,696292712,0,-0.005808478221297264,-0.0021350469905883074,0.0009120056056417525,0.46591633558273315,-0.3898564577102661,-9.86166763305664,0,0,45.18000030517578,1,1,257,269
696.29494300,696294943,0,-0.006102364510297775,-0.0027559984009712934,0.001430183183401823,0.4658571779727936,-0.3875534236431122,-9.862236976623535,0,0,45.18000030517578,1,1,257,269
696.29767200,696297672,0,-0.006316192913800478,-0.002117939991876483,0.002592231845483184,0.4656687080860138,-0.38329052925109863,-9.862293243408203,0,0,45.18000030517578,1,1,257,269
696.29998000,696299980,0,-0.005846287123858929,-0.001195233315229416,0.002883373759686947,0.46579888463020325,-0.38089239597320557,-9.86205768585205,0,0,45.18000030517578,1,1,257,269
696.30277500,696302775,0,-0.004947122652083635,-0.0006546400836668909,0.002677824115380645,0.4664417505264282,-0.3788185119628906,-9.860689163208008,0,0,45.18000030517578,1,1,257,269
696.30499200,696304992,0,-0.004414835944771767,-0.0008302979986183345,0.0028979068156331778,0.467236191034317,-0.37753671407699585,-9.85936164855957,0,0,45.18000030517578,1,1,257,269
696.30760800,696307608,0,-0.004348223563283682,-0.0010761474259197712,0.002614716300740838,0.46802589297294617,-0.37600773572921753,-9.858633995056152,0,0,45.18000030517578,1,1,257,269
696.30997900,696309979,0,-0.00403083860874176,-0.0010028182296082377,0.002205261727795005,0.4686121344566345,-0.3741868734359741,-9.858025550842285,0,0,45.19600296020508,1,1,257,269
696.31265400,696312654,0,-0.003761749714612961,-0.0011316167656332254,0.001595648005604744,0.46905815601348877,-0.3726365268230438,-9.856827735900879,0,0,45.19600296020508,1,1,257,269
696.31492600,696314926,0,-0.003791823284700513,-0.0013048785040155053,0.0014698536833748221,0.46966123580932617,-0.37169086933135986,-9.855409622192383,0,0,45.19600296020508,1,1,257,269
696.31794900,696317949,0,-0.004611474461853504,-0.001641471404582262,0.0014624865725636482,0.4700315296649933,-0.3706783056259155,-9.852937698364258,0,0,45.19600296020508,1,1,257,269
696.31991900,696319919,0,-0.005645204801112413,-0.0017619814025238156,0.001644858275540173,0.46983444690704346,-0.37014877796173096,-9.851580619812012,0,0,45.19600296020508,1,1,257,269
696.32266300,696322663,0,-0.006384562700986862,-0.0018501172307878733,0.0015205155359581113,0.46935227513313293,-0.36920231580734253,-9.851313591003418,0,0,45.19600296020508,1,1,257,269
696.32496500,696324965,0,-0.006707384716719389,-0.0016110851429402828,0.0010613122722133994,0.4691223204135895,-0.3687131404876709,-9.851491928100586,0,0,45.19600296020508,1,1,257,269
696.32764400,696327644,0,-0.0056948415003716946,-0.0018328414298593998,0.00022590873413719237,0.46834179759025574,-0.3681115508079529,-9.851783752441406,0,0,45.19600296020508,1,1,257,269
696.32997700,696329977,0,-0.005082413554191589,-0.0016287885373458266,-1.3057812793704215e-05,0.4681113660335541,-0.3681376278400421,-9.85180950164795,0,0,45.19600296020508,1,1,257,269
696.33286200,696332862,0,-0.0043685538694262505,-0.001310179359279573,0.00020822545047849417,0.4677789807319641,-0.36867716908454895,-9.85193157196045,0,0,45.19600296020508,1,1,257,269
696.33499600,696334996,0,-0.003590821288526058,-0.001331730978563428,0.0005515551893040538,0.46725669503211975,-0.37009769678115845,-9.852639198303223,0,0,45.19600296020508,1,1,257,269
696.33784300,696337843,0,-0.0027564973570406437,-0.001269855652935803,0.0009064291371032596,0.46639496088027954,-0.37116679549217224,-9.854061126708984,0,0,45.19600296020508,1,1,257,269
696.33999100,696339991,0,-0.002926156623288989,-0.0007532759918831289,0.00046339863911271095,0.4641019105911255,-0.3731423616409302,-9.856775283813477,0,0,45.19600296020508,1,1,257,269
696.34259600,696342596,0,-0.003951017279177904,-0.00041371071711182594,0.0004834981227759272,0.4624077379703522,-0.37478044629096985,-9.858139038085938,0,0,45.19600296020508,1,1,257,269
696.34499400,696344994,0,-0.004386415705084801,-0.0004260273417457938,0.0005714515573345125,0.45974472165107727,-0.3778349459171295,-9.859176635742188,0,0,45.19600296020508,1,1,257,269
696.34761900,696347619,0,-0.004916474688798189,-0.000495020067319274,0.0008711268892511725,0.45893895626068115,-0.3791712522506714,-9.859230041503906,0,0,45.19600296020508,1,1,257,269
696.35035400,696350354,0,-0.006046142894774675,-0.001192553318105638,0.0012934347614645958,0.45666155219078064,-0.38299840688705444,-9.858458518981934,0,0,45.19600296020508,1,1,257,269
696.35254400,696352544,0,-0.006079670041799545,-0.0017023595282807946,0.0013311725342646241,0.45575475692749023,-0.38418033719062805,-9.858288764953613,0,0,45.19600296020508,1,1,257,269
696.35515600,696355156,0,-0.005742533132433891,-0.0023766278754919767,0.0010988046415150166,0.4536096751689911,-0.3868921101093292,-9.85780143737793,0,0,45.19600296020508,1,1,257,269
696.35751600,696357516,0,-0.005804534535855055,-0.0021008129697293043,0.0009102131589315832,0.4533175528049469,-0.38743022084236145,-9.857518196105957,0,0,45.19600296020508,1,1,257,269
696.36010300,696360103,0,-0.006532082799822092,-0.0013663467252627015,0.0012144516222178936,0.45232951641082764,-0.38875067234039307,-9.854976654052734,0,0,45.19600296020508,1,1,257,269
696.36252100,696362521,0,-0.0065668015740811825,-0.0014074081555008888,0.0010849938262254,0.45197221636772156,-0.3891419470310211,-9.854233741760254,0,0,45.19600296020508,1,1,257,269
696.36514600,696365146,0,-0.00680794520303607,-0.001791341695934534,0.0007728738710284233,0.4505848288536072,-0.39076143503189087,-9.853686332702637,0,0,45.19600296020508,1,1,257,269
696.36746800,696367468,0,-0.00656912149861455,-0.0020177210681140423,0.00043082787306047976,0.4492749571800232,-0.3918991684913635,-9.855056762695312,0,0,45.19600296020508,1,1,257,269
696.37017500,696370175,0,-0.0056561012752354145,-0.002414475427940488,0.0003646338009275496,0.4480268657207489,-0.3927474319934845,-9.857221603393555,0,0,45.19600296020508,1,1,257,269
696.37244700,696372447,0,-0.0045099505223333836,-0.0029888676945120096,0.0008336908649653196,0.4468464255332947,-0.3934789001941681,-9.859002113342285,0,0,45.19600296020508,1,1,257,269
696.37518700,696375187,0,-0.0036194140557199717,-0.003118801862001419,0.0014748831745237112,0.44530558586120605,-0.39418157935142517,-9.860038757324219,0,0,45.19600296020508,1,1,257,269
696.37759100,696377591,0,-0.00452645868062973,-0.0029355701990425587,0.0009576167794875801,0.44297507405281067,-0.3964866101741791,-9.86049747467041,0,0,45.19600296020508,1,1,257,269
696.38000300,696380003,0,-0.004761778749525547,-0.002814042381942272,0.0006961546605452895,0.44265303015708923,-0.39695820212364197,-9.860820770263672,0,0,45.19600296020508,1,1,257,269
696.39539000,696395390,0,-0.004828022792935371,-0.002594761783257127,0.0004885053494945168,0.442415326833725,-0.39731305837631226,-9.861008644104004,0,0,45.198001861572266,1,1,257,269
696.39826100,696398261,0,-0.004918022081255913,-0.002311548450961709,0.00044044083915650845,0.4421776533126831,-0.3975544273853302,-9.860635757446289,0,0,45.198001861572266,1,1,257,269
696.40077800,696400778,0,-0.005040005315095186,-0.0019115798640996218,0.0004938819911330938,0.441885381937027,-0.39768579602241516,-9.859768867492676,0,0,45.198001861572266,1,1,257,269
696.40296200,696402962,0,-0.005036377813667059,-0.0014541862765327096,0.0005238111480139196,0.44162294268608093,-0.3977668881416321,-9.858795166015625,0,0,45.198001861572266,1,1,257,269
696.40577700,696405777,0,-0.0049835555255413055,-0.0010873113060370088,0.000589636736549437,0.44154253602027893,-0.39790046215057373,-9.85787582397461,0,0,45.198001861572266,1,1,257,269
696.40818600,696408186,0,-0.005039014387875795,-0.000918148027267307,0.0008566065225750208,0.4416884183883667,-0.3981291651725769,-9.8569917678833,0,0,45.198001861572266,1,1,257,269
696.41086800,696410868,0,-0.005127997137606144,-0.0010450663976371288,0.0012719741789624095,0.4419730007648468,-0.39839968085289,-9.8561429977417,0,0,45.198001861572266,1,1,257,269
696.41312500,696413125,0,-0.005175289232283831,-0.0012856253888458014,0.0015498856082558632,0.4423311650753021,-0.39860114455223083,-9.855429649353027,0,0,45.198001861572266,1,1,257,269
696.41567500,696415675,0,-0.005033208057284355,-0.00143823167309165,0.0016105140093713999,0.4427739679813385,-0.3986557126045227,-9.854897499084473,0,0,45.198001861572266,1,1,257,269
696.41836400,696418364,0,-0.004737404640763998,-0.0014426193665713072,0.0015865478198975325,0.44331094622612,-0.3985995352268219,-9.854412078857422,0,0,45.198001861572266,1,1,257,269
696.42063400,696420634,0,-0.004617034923285246,-0.0013036157470196486,0.001407445641234517,0.44391506910324097,-0.3985074460506439,-9.853836059570312,0,0,45.198001861572266,1,1,257,269
696.42318200,696423182,0,-0.0047743795439600945,-0.001197840552777052,0.0010459324112161994,0.44455477595329285,-0.39838382601737976,-9.853233337402344,0,0,45.198001861572266,1,1,257,269
696.42590400,696425904,0,-0.005110894329845905,-0.0012555790599435568,0.0007693260558880866,0.4452225863933563,-0.39818376302719116,-9.852742195129395,0,0,45.198001861572266,1,1,257,269
696.42868400,696428684,0,-0.0053364671766757965,-0.0013003896456211805,0.0006780263502150774,0.44593262672424316,-0.39788147807121277,-9.85240364074707,0,0,45.198001861572266,1,1,257,269
696.43058000,696430580,0,-0.005312915425747633,-0.0011735049774870276,0.0006815675878897309,0.44669029116630554,-0.39750346541404724,-9.852154731750488,0,0,45.198001861572266,1,1,257,269
696.43332600,696433326,0,-0.005220434162765741,-0.000928661145735532,0.000715665752068162,0.44748619198799133,-0.397073894739151,-9.851903915405273,0,0,45.198001861572266,1,1,257,269
696.43616000,696436160,0,-0.005148535594344139,-0.000636754441075027,0.0007117504137568176,0.448339581489563,-0.3965587317943573,-9.85161018371582,0,0,45.198001861572266,1,1,257,269
696.43872200,696438722,0,-0.0050697168335318565,-0.0004251392965670675,0.0006586236413568258,0.44928833842277527,-0.3959210515022278,-9.851314544677734,0,0,45.198001861572266,1,1,257,269
696.44072800,696440728,0,-0.004994566086679697,-0.0004161163524258882,0.0006341033149510622,0.45030996203422546,-0.39519137144088745,-9.851103782653809,0,0,45.198001861572266,1,1,257,269
696.44368600,696443686,0,-0.005008830688893795,-0.00055733323097229,0.0008418865036219358,0.45131388306617737,-0.39445361495018005,-9.851068496704102,0,0,45.198001861572266,1,1,257,269
696.44621100,696446211,0,-0.005022728815674782,-0.0007223817519843578,0.0012759845703840256,0.4522261321544647,-0.3937758803367615,-9.851252555847168,0,0,45.198001861572266,1,1,257,269
696.44881200,696448812,0,-0.004875627811998129,-0.0008057139930315316,0.001697672763839364,0.45302313566207886,-0.39319074153900146,-9.851595878601074,0,0,45.198001861572266,1,1,257,269
696.45110800,696451108,0,-0.004672196228057146,-0.0007780820014886558,0.0019900822080671787,0.4536982774734497,-0.39270585775375366,-9.851977348327637,0,0,45.198001861572266,1,1,257,269
696.45358500,696453585,0,-0.004614310339093208,-0.0007125251577235758,0.0020952837076038122,0.4542674720287323,-0.3922855854034424,-9.852339744567871,0,0,45.198001861572266,1,1,257,269
696.45633200,696456332,0,-0.004650401417165995,-0.0006039590225555003,0.0020234098192304373,0.45476651191711426,-0.3918556571006775,-9.852718353271484,0,0,45.198001861572266,1,1,257,269
696.45871400,696458714,0,-0.004686715081334114,-0.000400462158722803,0.0018248289125040174,0.4551859200000763,-0.39136362075805664,-9.853144645690918,0,0,45.198001861572266,1,1,257,269
696.46104400,696461044,0,-0.004719540011137724,-0.00013316867989487946,0.0015427041798830032,0.45545461773872375,-0.39083993434906006,-9.85360336303711,0,0,45.198001861572266,1,1,257,269
696.46369900,696463699,0,-0.004693847149610519,0.0001726900227367878,0.0012380917323753238,0.4555239677429199,-0.3903747797012329,-9.854039192199707,0,0,45.198001861572266,1,1,257,269
696.46661900,696466619,0,-0.004741514567285776,0.00041828094981610775,0.0009502355242148042,0.4554285407066345,-0.3900417685508728,-9.854403495788574,0,0,45.198001861572266,1,1,257,269
696.46845700,696468457,0,-0.00485544977709651,0.0003903298929799348,0.0007012470159679651,0.455235093832016,-0.3898358643054962,-9.854738235473633,0,0,45.198001861572266,1,1,257,269
696.47116600,696471166,0,-0.0047856587916612625,0.00011969984916504472,0.000580344523768872,0.45499005913734436,-0.3896750807762146,-9.855175971984863,0,0,45.198001861572266,1,1,257,269
696.47417300,696474173,0,-0.004584922455251217,-0.0001381774782203138,0.0005225591594353318,0.45472127199172974,-0.38948553800582886,-9.85582160949707,0,0,45.198001861572266,1,1,257,269
696.47659200,696476592,0,-0.0044576795771718025,-0.0003360385890118778,0.0003228315035812557,0.45441877841949463,-0.3892505168914795,-9.856643676757812,0,0,45.198001861572266,1,1,257,269
696.47867200,696478672,0,-0.004467363003641367,-0.0006371837807819247,5.7006600400200114e-05,0.4540669322013855,-0.3889900743961334,-9.857499122619629,0,0,45.198001861572266,1,1,257,269
696.48155700,696481557,0,-0.004612191580235958,-0.0010240128031000495,-0.00019579390936996788,0.453700989484787,-0.38873642683029175,-9.858246803283691,0,0,45.198001861572266,1,1,257,269
696.48406600,696484066,0,-0.0048244730569422245,-0.0013444869546219707,-0.0004686155298259109,0.453359454870224,-0.38848334550857544,-9.858851432800293,0,0,45.198001861572266,1,1,257,269
696.48670000,696486700,0,-0.005003327503800392,-0.0016459126491099596,-0.0006466613849624991,0.4530348479747772,-0.3882112503051758,-9.859380722045898,0,0,45.198001861572266,1,1,257,269
696.48895800,696488958,0,-0.005064389202743769,-0.0018791630864143372,-0.0006963814957998693,0.4527132511138916,-0.3879866898059845,-9.859889030456543,0,0,45.198001861572266,1,1,257,269
696.49149100,696491491,0,-0.004941714461892843,-0.001888440689072013,-0.0007696350803598762,0.4523962736129761,-0.3879108428955078,-9.860345840454102,0,0,45.198001861572266,1,1,257,269
696.49416300,696494163,0,-0.004773059394210577,-0.001814191578887403,-0.0008764086524024606,0.45207124948501587,-0.3879895508289337,-9.860664367675781,0,0,45.198001861572266,1,1,257,269
696.49713900,696497139,0,-0.004699623212218285,-0.0018561211181804538,-0.0009131499682553113,0.4517339766025543,-0.38814306259155273,-9.860794067382812,0,0,45.198001861572266,1,1,257,269
696.49911900,696499119,0,-0.0046380856074392796,-0.001964274561032653,-0.0009037856943905354,0.4514226019382477,-0.388299822807312,-9.860803604125977,0,0,45.198001861572266,1,1,257,269
696.50182800,696501828,0,-0.0045633320696651936,-0.0019689470063894987,-0.0008674145792610943,0.4511852562427521,-0.38843050599098206,-9.860794067382812,0,0,45.198001861572266,1,1,257,269
696.50422600,696504226,0,-0.004434895236045122,-0.0018573119305074215,-0.0007651743944734335,0.4510294795036316,-0.3885160982608795,-9.860798835754395,0,0,45.198001861572266,1,1,257,269
696.50667500,696506675,0,-0.0042336066253483295,-0.0016597621142864227,-0.0005535189993679523,0.45090562105178833,-0.3885399103164673,-9.860808372497559,0,0,45.198001861572266,1,1,257,269
696.50924600,696509246,0,-0.004087941255420446,-0.00142985163256526,-0.0002966680913232267,0.450741171836853,-0.38851526379585266,-9.860827445983887,0,0,45.198001861572266,1,1,257,269
696.51210800,696512108,0,-0.004123340826481581,-0.0013892194256186485,-9.117850277107209e-05,0.45051339268684387,-0.38848936557769775,-9.860877990722656,0,0,45.198001861572266,1,1,257,269
696.51403100,696514031,0,-0.004397764336317778,-0.0015204763039946556,3.612289947341196e-05,0.4502861797809601,-0.3884974718093872,-9.860990524291992,0,0,45.198001861572266,1,1,257,269
696.51674500,696516745,0,-0.0047896672040224075,-0.0015302874380722642,0.000183038369868882,0.4501517117023468,-0.388528972864151,-9.861164093017578,0,0,45.198001861572266,1,1,257,269
696.51963400,696519634,0,-0.005133977625519037,-0.0013858259189873934,0.0005131421494297683,0.45016399025917053,-0.3885532319545746,-9.861323356628418,0,0,45.18000030517578,1,1,257,269
696.52216000,696522160,0,-0.005388536956161261,-0.001241977559402585,0.0008682040497660637,0.45033541321754456,-0.38855692744255066,-9.86135482788086,0,0,45.18000030517578,1,1,257,269
696.52417000,696524170,0,-0.005563313141465187,-0.001059719012118876,0.0010701485443860292,0.45064136385917664,-0.3885491192340851,-9.86119556427002,0,0,45.18000030517578,1,1,257,269
696.52703000,696527030,0,-0.005725436843931675,-0.0009254933684132993,0.0011857226490974426,0.4510168731212616,-0.3885311186313629,-9.860875129699707,0,0,45.18000030517578,1,1,257,269
696.52956100,696529561,0,-0.0059434170834720135,-0.0009665910038165748,0.0012905567418783903,0.4514105021953583,-0.3884761333465576,-9.860480308532715,0,0,45.18000030517578,1,1,257,269
696.53223800,696532238,0,-0.006146939937025309,-0.0010035779559984803,0.0013784253969788551,0.45183902978897095,-0.3883393704891205,-9.860072135925293,0,0,45.18000030517578,1,1,257,269
696.53451800,696534518,0,-0.006268268916755915,-0.0009546885266900063,0.0013941178331151605,0.4523243010044098,-0.38808831572532654,-9.859639167785645,0,0,45.18000030517578,1,1,257,269
696.53707000,696537070,0,-0.00632768590003252,-0.0009117636363953352,0.001364504569210112,0.452829509973526,-0.38775038719177246,-9.85914421081543,0,0,45.18000030517578,1,1,257,269
696.53975300,696539753,0,-0.006396785844117403,-0.0009033000096678734,0.0013369543012231588,0.45332860946655273,-0.3874136507511139,-9.858575820922852,0,0,45.18000030517578,1,1,257,269
696.54266700,696542667,0,-0.006544557400047779,-0.0010493907611817122,0.001260272110812366,0.4538823068141937,-0.3871358633041382,-9.857978820800781,0,0,45.18000030517578,1,1,257,269
696.54448400,696544484,0,-0.006672135088592768,-0.0014605284668505192,0.0011348986299708486,0.45457249879837036,-0.3868984878063202,-9.857452392578125,0,0,45.18000030517578,1,1,257,269
696.54727400,696547274,0,-0.0065887924283742905,-0.0018318883376196027,0.0010190882021561265,0.45535287261009216,-0.3866637051105499,-9.857076644897461,0,0,45.18000030517578,1,1,257,269
696.55029300,696550293,0,-0.006306246854364872,-0.0019030132098123431,0.000894059834536165,0.45604148507118225,-0.3864046335220337,-9.85680866241455,0,0,45.18000030517578,1,1,257,269
696.55190400,696551904,0,-0.00606398843228817,-0.0018116608262062073,0.0008024816634133458,0.4565042555332184,-0.3861182928085327,-9.856491088867188,0,0,45.18000030517578,1,1,257,269
696.55460500,696554605,0,-0.00597657123580575,-0.0016575217014178634,0.0008731355192139745,0.4567410945892334,-0.38584429025650024,-9.8560209274292,0,0,45.18000030517578,1,1,257,269
696.55745300,696557453,0,-0.005965144373476505,-0.001480707316659391,0.0010084923123940825,0.4568024277687073,-0.38561078906059265,-9.855443954467773,0,0,45.18000030517578,1,1,257,269
696.56001000,696560010,0,-0.0058415173552930355,-0.0013874841388314962,0.0009836024837568402,0.4567273259162903,-0.38538703322410583,-9.854894638061523,0,0,45.18000030517578,1,1,257,269
696.56208500,696562085,0,-0.005423140712082386,-0.0013276520185172558,0.0008640828309580684,0.4565444588661194,-0.38513827323913574,-9.854490280151367,0,0,45.18000030517578,1,1,257,269
696.56494200,696564942,0,-0.004841306712478399,-0.0011877630604431033,0.000858528830576688,0.45629432797431946,-0.384875625371933,-9.854254722595215,0,0,45.18000030517578,1,1,257,269
696.56752900,696567529,0,-0.004298147279769182,-0.001039876719005406,0.0010554197942838073,0.4560133218765259,-0.384630024433136,-9.854100227355957,0,0,45.18000030517578,1,1,257,269
696.57018500,696570185,0,-0.003912299405783415,-0.0009284605621360242,0.0013022265629842877,0.4556993842124939,-0.38442912697792053,-9.853970527648926,0,0,45.18000030517578,1,1,257,269
696.57248500,696572485,0,-0.003872794331982732,-0.0008236941648647189,0.0013687085593119264,0.45534390211105347,-0.38429033756256104,-9.853963851928711,0,0,45.18000030517578,1,1,257,269
696.57489000,696574890,0,-0.004206510726362467,-0.0007599730743095279,0.0012395832454785705,0.454967200756073,-0.38419395685195923,-9.854211807250977,0,0,45.18000030517578,1,1,257,269
696.57758400,696577584,0,-0.004679989069700241,-0.0007806125795468688,0.0009782313136383891,0.4546087086200714,-0.38408714532852173,-9.854701042175293,0,0,45.18000030517578,1,1,257,269
696.58047000,696580470,0,-0.0050315456464886665,-0.0008768826373852789,0.0007690773927606642,0.454317569732666,-0.38397860527038574,-9.855263710021973,0,0,45.18000030517578,1,1,257,269
696.58236400,696582364,0,-0.005274147726595402,-0.0010093834716826677,0.0007718103006482124,0.454123318195343,-0.383960098028183,-9.855713844299316,0,0,45.18000030517578,1,1,257,269
696.58507800,696585078,0,-0.005585914943367243,-0.0011771894060075283,0.0008495475631207228,0.453981876373291,-0.38408517837524414,-9.85598373413086,0,0,45.18000030517578,1,1,257,269
696.58803700,696588037,0,-0.005855367984622717,-0.0014027828583493829,0.0008852890459820628,0.45379069447517395,-0.3843170404434204,-9.856146812438965,0,0,45.18000030517578,1,1,257,269
696.59045700,696590457,0,-0.0058332146145403385,-0.001614329288713634,0.0008654500707052648,0.45346519351005554,-0.3845871686935425,-9.856325149536133,0,0,45.18000030517578,1,1,257,269
696.59254700,696592547,0,-0.005609986837953329,-0.0016900007613003254,0.0007076464244164526,0.45297250151634216,-0.3848549723625183,-9.856592178344727,0,0,45.18000030517578,1,1,257,269
696.59539700,696595397,0,-0.005313735455274582,-0.0015960859600454569,0.0003757134545594454,0.4523540735244751,-0.38511914014816284,-9.856929779052734,0,0,45.18000030517578,1,1,257,269
696.59794900,696597949,0,-0.004949651192873716,-0.0013556362828239799,0.0001041904033627361,0.4517245888710022,-0.3853994905948639,-9.85723876953125,0,0,45.18000030517578,1,1,257,269
696.59992500,696599925,0,-0.004687035456299782,-0.0010503678349778056,0.00013544729154091328,0.4511658549308777,-0.38571369647979736,-9.857436180114746,0,0,45.18000030517578,1,1,257,269
696.60289400,696602894,0,-0.004671498667448759,-0.0007893984438851476,0.0003470765659585595,0.45063161849975586,-0.38607731461524963,-9.857566833496094,0,0,45.18000030517578,1,1,257,269
696.60534800,696605348,0,-0.0047541153617203236,-0.0005281756166368723,0.000514079409185797,0.4500107169151306,-0.38649001717567444,-9.857749938964844,0,0,45.18000030517578,1,1,257,269
696.60806200,696608062,0,-0.004702018108218908,-0.0002928555477410555,0.0006373796495608985,0.44925975799560547,-0.3868952989578247,-9.858034133911133,0,0,45.18000030517578,1,1,257,269
696.61023000,696610230,0,-0.004573477432131767,-0.00022953162260819227,0.0007750267395749688,0.44843190908432007,-0.387249618768692,-9.858365058898926,0,0,45.18000030517578,1,1,257,269
696.61284500,696612845,0,-0.004464563447982073,-0.00027675688033923507,0.0009342035627923906,0.44760996103286743,-0.3875911831855774,-9.858673095703125,0,0,45.18000030517578,1,1,257,269
696.61554800,696615548,0,-0.004325276706367731,-0.0004659619298763573,0.0011702458141371608,0.44685399532318115,-0.38795435428619385,-9.858959197998047,0,0,45.18000030517578,1,1,257,269
696.61845100,696618451,0,-0.004287737887352705,-0.0008817276684567332,0.0014027601573616266,0.44621747732162476,-0.38830670714378357,-9.859265327453613,0,0,45.18000030517578,1,1,257,269
696.62046300,696620463,0,-0.004368735011667013,-0.0013401914620772004,0.0015036830445751548,0.44576147198677063,-0.38859841227531433,-9.85961627960205,0,0,45.18000030517578,1,1,257,269
696.62313700,696623137,0,-0.004540052730590105,-0.0016459743492305279,0.0014616618864238262,0.4454697370529175,-0.38881316781044006,-9.859997749328613,0,0,45.18000030517578,1,1,257,269
696.62607000,696626070,0,-0.004908408969640732,-0.0018021633150056005,0.0011778144398704171,0.44520774483680725,-0.3889717757701874,-9.86034107208252,0,0,45.18000030517578,1,1,257,269
696.62790800,696627908,0,-0.005306301172822714,-0.0019052467541769147,0.0006429029745049775,0.44485506415367126,-0.3890862762928009,-9.860538482666016,0,0,45.18000030517578,1,1,257,269
696.63065100,696630651,0,-0.005602709017693996,-0.0019924300722777843,0.00014202416059561074,0.44442325830459595,-0.3891325294971466,-9.860518455505371,0,0,45.18000030517578,1,1,257,269
696.63342100,696633421,0,-0.005728352814912796,-0.002034716308116913,-4.918217382510193e-05,0.44401413202285767,-0.38910359144210815,-9.860331535339355,0,0,45.18000030517578,1,1,257,269
696.63595700,696635957,0,-0.005631717387586832,-0.0019393149996176362,4.604667628882453e-05,0.4437045753002167,-0.38906338810920715,-9.860116958618164,0,0,45.18000030517578,1,1,257,269
696.63805700,696638057,0,-0.00551627716049552,-0.0016637281514704227,0.0001991009048651904,0.44349291920661926,-0.3891182839870453,-9.859981536865234,0,0,45.18000030517578,1,1,257,269
696.64094300,696640943,0,-0.005480650346726179,-0.0012533044209703803,0.0003188012051396072,0.4433700740337372,-0.38932088017463684,-9.859933853149414,0,0,45.18000030517578,1,1,257,269
696.64349000,696643490,0,-0.005417251028120518,-0.0008021057001315057,0.0004063486121594906,0.4433624744415283,-0.3896404206752777,-9.859893798828125,0,0,45.18000030517578,1,1,257,269
696.64550200,696645502,0,-0.00534334359690547,-0.0005571588408201933,0.000492243270855397,0.44347891211509705,-0.39004188776016235,-9.859790802001953,0,0,45.198001861572266,1,1,257,269
696.64855800,696648558,0,-0.005323571618646383,-0.0006741586839780211,0.0007013945723883808,0.4437057673931122,-0.39051419496536255,-9.859618186950684,0,0,45.198001861572266,1,1,257,269
696.65088500,696650885,0,-0.005285448394715786,-0.0009722692775540054,0.0009378140093758702,0.4440440237522125,-0.3910192847251892,-9.859419822692871,0,0,45.198001861572266,1,1,257,269
696.65356100,696653561,0,-0.005160311236977577,-0.00113787897862494,0.0010343502508476377,0.4445149600505829,-0.39146673679351807,-9.859253883361816,0,0,45.198001861572266,1,1,257,269
696.65605400,696656054,0,-0.005021489225327969,-0.0009941501775756478,0.0010099203791469336,0.44512292742729187,-0.39175522327423096,-9.859148025512695,0,0,45.198001861572266,1,1,257,269
696.65836700,696658367,0,-0.00496791722252965,-0.0007038580370135605,0.0008880544337444007,0.4458359479904175,-0.39187169075012207,-9.859087944030762,0,0,45.198001861572266,1,1,257,269
696.66105100,696661051,0,-0.004971351474523544,-0.0005662235780619085,0.0007458613254129887,0.4466177821159363,-0.39192456007003784,-9.859068870544434,0,0,45.198001861572266,1,1,257,269
696.66401900,696664019,0,-0.004929294344037771,-0.0006942222244106233,0.0006320984102785587,0.4474567472934723,-0.39201804995536804,-9.859109878540039,0,0,45.198001861572266,1,1,257,269
696.66582100,696665821,0,-0.004810734186321497,-0.0009173014550469816,0.0004937816993333399,0.44834184646606445,-0.3921473026275635,-9.859223365783691,0,0,45.198001861572266,1,1,257,269
696.66854900,696668549,0,-0.00463107181712985,-0.000963228230830282,0.0004340774321462959,0.44922810792922974,-0.3922659158706665,-9.859366416931152,0,0,45.198001861572266,1,1,257,269
696.67139700,696671397,0,-0.004352605901658535,-0.0009237814811058342,0.00048109935596585274,0.45008227229118347,-0.39238131046295166,-9.859416007995605,0,0,45.198001861572266,1,1,257,269
696.67394000,696673940,0,-0.004121734760701656,-0.0010224877623841166,0.0005349786952137947,0.4509377181529999,-0.39252805709838867,-9.859277725219727,0,0,45.198001861572266,1,1,257,269
696.67593000,696675930,0,-0.004181822296231985,-0.0011950716143473983,0.0006673349416814744,0.4518451690673828,-0.39271602034568787,-9.858993530273438,0,0,45.198001861572266,1,1,257,269
696.67878100,696678781,0,-0.004465373232960701,-0.001421776949428022,0.0007809170638211071,0.45281490683555603,-0.39292579889297485,-9.858698844909668,0,0,45.198001861572266,1,1,257,269
696.68133300,696681333,0,-0.004723237827420235,-0.0017117979004979134,0.0008452269248664379,0.4538346529006958,-0.39312583208084106,-9.858502388000488,0,0,45.198001861572266,1,1,257,269
696.68423200,696684232,0,-0.00475385831668973,-0.0017987389583140612,0.0010060879867523909,0.45490720868110657,-0.3933020830154419,-9.858407020568848,0,0,45.198001861572266,1,1,257,269
696.68623400,696686234,0,-0.004590580239892006,-0.0015945467166602612,0.0011031548492610455,0.45606279373168945,-0.3934559226036072,-9.858312606811523,0,0,45.198001861572266,1,1,257,269
696.68887300,696688873,0,-0.004618299193680286,-0.001367115881294012,0.0009659225470386446,0.45730677247047424,-0.3935888409614563,-9.858099937438965,0,0,45.198001861572266,1,1,257,269
696.69152600,696691526,0,-0.005024653393775225,-0.0012811134802177548,0.0007269546040333807,0.45858076214790344,-0.39369532465934753,-9.857748985290527,0,0,45.198001861572266,1,1,257,269
696.69369000,696693690,0,-0.005513673182576895,-0.001448789262212813,0.000609560520388186,0.45981812477111816,-0.39373552799224854,-9.857359886169434,0,0,45.198001861572266,1,1,257,269
696.69624500,696696245,0,-0.00581805594265461,-0.0018862989963963628,0.0005775522440671921,0.4609735906124115,-0.39363226294517517,-9.857078552246094,0,0,45.198001861572266,1,1,257,269
696.69893200,696698932,0,-0.00582079216837883,-0.002257736399769783,0.0005739168263971806,0.46202102303504944,-0.39334532618522644,-9.856959342956543,0,0,45.198001861572266,1,1,257,269
696.70180500,696701805,0,-0.005481060594320297,-0.0023395612370222807,0.0006675340700894594,0.46296563744544983,-0.39293763041496277,-9.856900215148926,0,0,45.198001861572266,1,1,257,270
696.70378700,696703787,0,-0.004994240589439869,-0.0023174092639237642,0.0007841849001124501,0.46381980180740356,-0.39252910017967224,-9.856776237487793,0,0,45.198001861572266,1,1,257,270
696.70644000,696706440,0,-0.004679362289607525,-0.002367280889302492,0.0007968982099555433,0.46457400918006897,-0.39219921827316284,-9.856609344482422,0,0,45.198001861572266,1,1,257,270
696.70938700,696709387,0,-0.004553223494440317,-0.0023761300835758448,0.0007187901646830142,0.46519234776496887,-0.3919275999069214,-9.856525421142578,0,0,45.198001861572266,1,1,257,270
696.71179100,696711791,0,-0.0043149590492248535,-0.00214671459980309,0.0006731293979100883,0.4656575620174408,-0.3915978670120239,-9.856590270996094,0,0,45.198001861572266,1,1,257,270
696.71390800,696713908,0,-0.003979380242526531,-0.00168952951207757,0.0007579473895020783,0.4660109579563141,-0.3911201059818268,-9.8568115234375,0,0,45.198001861572266,1,1,257,270
696.71674500,696716745,0,-0.0038573872298002243,-0.0012196103343740106,0.0010196384973824024,0.4663041830062866,-0.39054062962532043,-9.85716438293457,0,0,45.198001861572266,1,1,257,270
696.71930500,696719305,0,-0.004062955733388662,-0.0008951083873398602,0.0013624145649373531,0.4665418863296509,-0.38993650674819946,-9.857582092285156,0,0,45.198001861572266,1,1,257,270
696.72189000,696721890,0,-0.004473092500120401,-0.0007442304049618542,0.0015607476234436035,0.4666935205459595,-0.3892928659915924,-9.858014106750488,0,0,45.198001861572266,1,1,257,270
696.72417700,696724177,0,-0.0049397265538573265,-0.0007401867187581956,0.0017048927256837487,0.466732382774353,-0.38858962059020996,-9.858478546142578,0,0,45.198001861572266,1,1,257,270
696.72669600,696726696,0,-0.005314357578754425,-0.0007989654550328851,0.0020143419969826937,0.46665605902671814,-0.38789311051368713,-9.859024047851562,0,0,45.198001861572266,1,1,257,270
696.72943200,696729432,0,-0.0054364739917218685,-0.0008102571009658277,0.0023399717174470425,0.46649110317230225,-0.3872765898704529,-9.85964584350586,0,0,45.198001861572266,1,1,257,270
696.73221700,696732217,0,-0.005419945809990168,-0.00076507922494784,0.002589795971289277,0.466275691986084,-0.3867562711238861,-9.860240936279297,0,0,45.198001861572266,1,1,257,270
696.73412000,696734120,0,-0.005427306517958641,-0.0007698817062191665,0.0027421957347542048,0.46603041887283325,-0.38632503151893616,-9.860699653625488,0,0,45.198001861572266,1,1,257,270
696.73682000,696736820,0,-0.005448409356176853,-0.0008576246327720582,0.002660962287336588,0.4657248556613922,-0.3859620690345764,-9.861038208007812,0,0,45.198001861572266,1,1,257,270
696.73969600,696739696,0,-0.005528865847736597,-0.0010134440381079912,0.0023665500339120626,0.4652833044528961,-0.38563433289527893,-9.861373901367188,0,0,45.198001861572266,1,1,257,270
696.74162400,696741624,0,-0.005557570606470108,-0.0011949763866141438,0.002025444759055972,0.4646596312522888,-0.3853330910205841,-9.861730575561523,0,0,45.198001861572266,1,1,257,270
696.74431500,696744315,0,-0.0053660934790968895,-0.0012942883186042309,0.0017963277641683817,0.4638906717300415,-0.3850713074207306,-9.862008094787598,0,0,45.198001861572266,1,1,257,270
696.74721600,696747216,0,-0.005166542250663042,-0.0013073018053546548,0.001711062272079289,0.46308010816574097,-0.384853333234787,-9.862093925476074,0,0,45.198001861572266,1,1,257,270
696.74943600,696749436,0,-0.005221089348196983,-0.0013464143266901374,0.0016417825827375054,0.46233490109443665,-0.38466882705688477,-9.861956596374512,0,0,45.198001861572266,1,1,257,270
696.75202900,696752029,0,-0.005397618282586336,-0.001477137440815568,0.0014828403946012259,0.46165958046913147,-0.3844873905181885,-9.861672401428223,0,0,45.198001861572266,1,1,257,270
696.75502800,696755028,0,-0.005471071228384972,-0.0015972087858244777,0.0013385455822572112,0.46093881130218506,-0.38426077365875244,-9.861346244812012,0,0,45.198001861572266,1,1,257,270
696.75736200,696757362,0,-0.005421601235866547,-0.0015128916129469872,0.0011378249619156122,0.4600697159767151,-0.3839600682258606,-9.861028671264648,0,0,45.198001861572266,1,1,257,270
696.75947600,696759476,0,-0.00535570178180933,-0.0012599914334714413,0.0007104090182110667,0.4590659439563751,-0.383608877658844,-9.86069107055664,0,0,45.198001861572266,1,1,257,270
696.76241800,696762418,0,-0.005339550320059061,-0.0009567182278260589,0.0002679409517440945,0.45801740884780884,-0.3832634687423706,-9.86029052734375,0,0,45.198001861572266,1,1,257,270
696.76482900,696764829,0,-0.005302027333527803,-0.0006266036070883274,-6.688007943012053e-06,0.45699793100357056,-0.3829602301120758,-9.859842300415039,0,0,45.198001861572266,1,1,257,270
696.76693600,696766936,0,-0.005228729918599129,-0.0004194115463178605,-0.00012564459757413715,0.45603835582733154,-0.3826894760131836,-9.859416961669922,0,0,45.198001861572266,1,1,257,270
696.76985000,696769850,0,-0.005061369389295578,-0.00033394480124115944,-0.00016496045282110572,0.4551450312137604,-0.3824354410171509,-9.859048843383789,0,0,45.198001861572266,1,1,257,270
696.77225900,696772259,0,-0.0047740028239786625,-0.00017137988470494747,-0.0002317864418728277,0.45430219173431396,-0.3821907639503479,-9.85874080657959,0,0,45.198001861572266,1,1,257,270
696.77496700,696774967,0,-0.004495705012232065,7.482287037419155e-05,-0.00017579241830389947,0.453481525182724,-0.3819350302219391,-9.858505249023438,0,0,45.204002380371094,1,1,257,270
696.77722100,696777221,0,-0.004330357536673546,0.00026745800278149545,0.00010843863128684461,0.45267149806022644,-0.381684809923172,-9.858319282531738,0,0,45.204002380371094,1,1,257,270
696.77979300,696779793,0,-0.004329649265855551,0.0003021545708179474,0.0004495038010645658,0.45184773206710815,-0.38149699568748474,-9.858173370361328,0,0,45.204002380371094,1,1,257,270
696.78241100,696782411,0,-0.004455351270735264,0.00021111131354700774,0.0007644257857464254,0.45093950629234314,-0.3813590407371521,-9.858153343200684,0,0,45.204002380371094,1,1,257,270
696.78529500,696785295,0,-0.004591990262269974,0.0001326443743892014,0.0009789615869522095,0.4499261677265167,-0.3811826705932617,-9.858372688293457,0,0,45.204002380371094,1,1,257,270
696.78713800,696787138,0,-0.004588803742080927,0.0001227561297127977,0.000978435855358839,0.4489154815673828,-0.380916953086853,-9.858818054199219,0,0,45.204002380371094,1,1,257,270
696.78987400,696789874,0,-0.004474631976336241,0.0001288490166189149,0.0008210665546357632,0.4480389952659607,-0.3805868923664093,-9.859352111816406,0,0,45.204002380371094,1,1,257,270
696.79267900,696792679,0,-0.0042780241928994656,0.0001174538119812496,0.0006640395731665194,0.44732964038848877,-0.3802570700645447,-9.859827995300293,0,0,45.204002380371094,1,1,257,270
696.79523000,696795230,0,-0.004024505149573088,-3.622877920861356e-05,0.0006291440804488957,0.44674599170684814,-0.37999236583709717,-9.860201835632324,0,0,45.204002380371094,1,1,257,270
696.79731600,696797316,0,-0.003921175375580788,-0.00036707139224745333,0.0007514386670663953,0.44624340534210205,-0.3798013925552368,-9.860529899597168,0,0,45.204002380371094,1,1,257,270
696.80024700,696800247,0,-0.004025431349873543,-0.000586319190915674,0.0009567947709001601,0.44580918550491333,-0.37962862849235535,-9.860885620117188,0,0,45.204002380371094,1,1,257,270
696.80281200,696802812,0,-0.004191956948488951,-0.0006098083104006946,0.0011920040706172585,0.44547370076179504,-0.37943118810653687,-9.861257553100586,0,0,45.204002380371094,1,1,257,270
696.80543700,696805437,0,-0.00440617511048913,-0.0007248425972647965,0.0014484083512797952,0.44527047872543335,-0.37922677397727966,-9.861542701721191,0,0,45.204002380371094,1,1,257,270
696.80771500,696807715,0,-0.004707623273134232,-0.0010698367841541767,0.0016920816851779819,0.4452008008956909,-0.37908029556274414,-9.861693382263184,0,0,45.204002380371094,1,1,257,270
696.81026200,696810262,0,-0.005031865555793047,-0.0014932133490219712,0.0018240384524688125,0.4452440142631531,-0.3790564239025116,-9.861785888671875,0,0,45.204002380371094,1,1,257,270
696.81290900,696812909,0,-0.005337580107152462,-0.0017890345770865679,0.0018219997873529792,0.44536706805229187,-0.3791424036026001,-9.861918449401855,0,0,45.204002380371094,1,1,257,270
696.81599900,696815999,0,-0.005548440385609865,-0.001818656106479466,0.0017920915270224214,0.4455258548259735,-0.3792772591114044,-9.862110137939453,0,0,45.204002380371094,1,1,257,270
696.81759500,696817595,0,-0.005574524402618408,-0.001657435903325677,0.0015888859052211046,0.44566676020622253,-0.3794480264186859,-9.862321853637695,0,0,45.204002380371094,1,1,257,270
696.82030800,696820308,0,-0.0054860287345945835,-0.0014497739030048251,0.0011681020259857178,0.4457627832889557,-0.37964996695518494,-9.862506866455078,0,0,45.204002380371094,1,1,257,270
696.82314500,696823145,0,-0.005443183239549398,-0.001181550556793809,0.0008433904149569571,0.4458671510219574,-0.37983667850494385,-9.862672805786133,0,0,45.204002380371094,1,1,257,270
696.82507800,696825078,0,-0.0054322765208780766,-0.0008502502460032701,0.0007155502680689096,0.44608309864997864,-0.3799806833267212,-9.862900733947754,0,0,45.204002380371094,1,1,257,270
696.82778400,696827784,0,-0.005388683173805475,-0.0005403358954936266,0.0006135088042356074,0.44646066427230835,-0.38009965419769287,-9.86328411102295,0,0,45.204002380371094,1,1,257,270
696.83070500,696830705,0,-0.005329629871994257,-0.0002742949000094086,0.000457584741525352,0.446938693523407,-0.38022342324256897,-9.86385440826416,0,0,45.204002380371094,1,1,257,270
696.83271200,696832712,0,-0.005267097149044275,-3.481378735159524e-05,0.0002579946885816753,0.44739896059036255,-0.38035786151885986,-9.864533424377441,0,0,45.204002380371094,1,1,257,270
696.83551400,696835514,0,-0.005208693444728851,5.8423142036190256e-05,2.5285615265602246e-05,0.44777074456214905,-0.38048696517944336,-9.865166664123535,0,0,45.204002380371094,1,1,257,270
696.83827900,696838279,0,-0.00521174818277359,-0.00010565783304627985,-0.00017771679267752916,0.4480960965156555,-0.38064560294151306,-9.865622520446777,0,0,45.204002380371094,1,1,257,270
696.84080100,696840801,0,-0.005278307944536209,-0.0004624418797902763,-0.00028933704015798867,0.4484758675098419,-0.3809136152267456,-9.865873336791992,0,0,45.204002380371094,1,1,257,270
696.84288400,696842884,0,-0.005376714747399092,-0.000820723595097661,-0.000228183445869945,0.4489371180534363,-0.3813268840312958,-9.865976333618164,0,0,45.204002380371094,1,1,257,270
696.84577400,696845774,0,-0.005458039231598377,-0.0009847840992733836,-4.186044316156767e-05,0.4494266211986542,-0.3818747103214264,-9.86599349975586,0,0,45.204002380371094,1,1,257,270
696.84829300,696848293,0,-0.005414639599621296,-0.0010147781576961279,0.00022829740191809833,0.4498966336250305,-0.3825397491455078,-9.865949630737305,0,0,45.204002380371094,1,1,257,270
696.85059900,696850599,0,-0.0052734180353581905,-0.0011464902199804783,0.0006285738199949265,0.45032545924186707,-0.3833058178424835,-9.865814208984375,0,0,45.204002380371094,1,1,257,270
696.85350700,696853507,0,-0.0051932623609900475,-0.0014064025599509478,0.0009083867771551013,0.45071494579315186,-0.38415080308914185,-9.865586280822754,0,0,45.204002380371094,1,1,257,270
696.85573300,696855733,0,-0.005184674169868231,-0.0016383857000619173,0.0008747645188122988,0.4510948657989502,-0.3850404918193817,-9.86534309387207,0,0,45.204002380371094,1,1,257,270
696.85840400,696858404,0,-0.005140617955476046,-0.001750607741996646,0.0006014181999489665,0.45149901509284973,-0.38593003153800964,-9.865175247192383,0,0,45.204002380371094,1,1,257,270
696.86067600,696860676,0,-0.005106027703732252,-0.0017790587153285742,0.00026319065364077687,0.4519574046134949,-0.3867793381214142,-9.865086555480957,0,0,45.204002380371094,1,1,257,270
696.86321700,696863217,0,-0.005054058041423559,-0.0017804697854444385,7.877234747866169e-05,0.45251765847206116,-0.38758763670921326,-9.865029335021973,0,0,45.204002380371094,1,1,257,270
696.86589200,696865892,0,-0.0048904805444180965,-0.0017387886764481664,3.2525782444281504e-05,0.45320069789886475,-0.3883964717388153,-9.86495304107666,0,0,45.204002380371094,1,1,257,270
696.86879800,696868798,0,-0.004675582516938448,-0.0016751501243561506,7.462679059244692e-05,0.45396173000335693,-0.38926398754119873,-9.864829063415527,0,0,45.204002380371094,1,1,257,270
696.87085800,696870858,0,-0.00445101922377944,-0.0016311182407662272,0.00021919896244071424,0.4547390639781952,-0.39023488759994507,-9.864679336547852,0,0,45.204002380371094,1,1,257,270
696.87351700,696873517,0,-0.004189867060631514,-0.001603360171429813,0.0004114497860427946,0.4554985761642456,-0.39128562808036804,-9.864555358886719,0,0,45.204002380371094,1,1,257,270
696.87639900,696876399,0,-0.003959156572818756,-0.0015085376799106598,0.0005868530715815723,0.45621663331985474,-0.3923247456550598,-9.864476203918457,0,0,45.204002380371094,1,1,257,270
696.87828100,696878281,0,-0.0039558629505336285,-0.001302835764363408,0.0007079851347953081,0.4568585157394409,-0.39328446984291077,-9.864389419555664,0,0,45.204002380371094,1,1,257,270
696.88101800,696881018,0,-0.00411728210747242,-0.001130152610130608,0.0008107103640213609,0.45740747451782227,-0.3941745460033417,-9.864203453063965,0,0,45.204002380371094,1,1,257,270
696.88393600,696883936,0,-0.004203028045594692,-0.0009947041980922222,0.000918599427677691,0.4578770399093628,-0.39503908157348633,-9.863876342773438,0,0,45.204002380371094,1,1,257,270
696.88575100,696885751,0,-0.004260926507413387,-0.0008156358380801976,0.0010454213479533792,0.45827987790107727,-0.3958966135978699,-9.863465309143066,0,0,45.204002380371094,1,1,257,270
696.88842700,696888427,0,-0.004402434919029474,-0.0006279945955611765,0.001117936335504055,0.45860663056373596,-0.3967148959636688,-9.863073348999023,0,0,45.204002380371094,1,1,257,270
696.89129700,696891297,0,-0.0045804972760379314,-0.00040074449498206377,0.0011768724070861936,0.4588214159011841,-0.3974373936653137,-9.8627347946167,0,0,45.204002380371094,1,1,257,270
696.89382900,696893829,0,-0.004656689707189798,-0.0002252886479254812,0.0013545264955610037,0.4588997960090637,-0.3980349898338318,-9.862397193908691,0,0,45.204002380371094,1,1,257,270
696.89595000,696895950,0,-0.00463698199018836,-0.00023154832888394594,0.0013738839188590646,0.4588906168937683,-0.3985242545604706,-9.861979484558105,0,0,45.204002380371094,1,1,257,270
696.89881600,696898816,0,-0.00458768755197525,-0.000400436925701797,0.0011094233486801386,0.4589080512523651,-0.39892780780792236,-9.861456871032715,0,0,45.204002380371094,1,1,257,270
696.90136700,696901367,0,-0.004578511230647564,-0.0006776006193831563,0.0008321692002937198,0.4590120315551758,-0.3992382287979126,-9.86092758178711,0,0,45.1879997253418,1,1,257,270
696.90405700,696904057,0,-0.004647692199796438,-0.0009927346836775541,0.0006013825186528265,0.4591229557991028,-0.39945656061172485,-9.860548973083496,0,0,45.1879997253418,1,1,257,270
696.90636000,696906360,0,-0.00459806714206934,-0.001326010562479496,0.00031551564461551607,0.45910659432411194,-0.3996121287345886,-9.860363960266113,0,0,45.1879997253418,1,1,257,270
696.90877300,696908773,0,-0.004428263753652573,-0.0015307768480852246,-5.491188494488597e-05,0.45889949798583984,-0.3997386395931244,-9.86022663116455,0,0,45.1879997253418,1,1,257,270
696.91145400,696911454,0,-0.004335393197834492,-0.001477847690694034,-0.00038650506758131087,0.45853695273399353,-0.3998663127422333,-9.85995101928711,0,0,45.1879997253418,1,1,257,270
696.91432700,696914327,0,-0.004324974026530981,-0.001327160163782537,-0.0004755319678224623,0.4581073522567749,-0.40002235770225525,-9.859482765197754,0,0,45.1879997253418,1,1,257,270
696.91622400,696916224,0,-0.004392126575112343,-0.001211955794133246,-0.00027585314819589257,0.45769014954566956,-0.4002167582511902,-9.858938217163086,0,0,45.1879997253418,1,1,257,270
696.91892800,696918928,0,-0.004552721045911312,-0.001076615764759481,2.5738783733686432e-05,0.457321435213089,-0.40042346715927124,-9.858529090881348,0,0,45.1879997253418,1,1,257,270
696.92181600,696921816,0,-0.004753924440592527,-0.0009160077315755188,0.00019961775979027152,0.45701226592063904,-0.400583952665329,-9.858403205871582,0,0,45.1879997253418,1,1,257,270
696.92366300,696923663,0,-0.004906537942588329,-0.0008623679750598967,0.00011936518421862274,0.45677921175956726,-0.40064626932144165,-9.858513832092285,0,0,45.1879997253418,1,1,257,270
696.92641300,696926413,0,-0.004961351398378611,-0.0009320336394011974,-0.00010689074406400323,0.4566505253314972,-0.40061330795288086,-9.858686447143555,0,0,45.1879997253418,1,1,257,270
696.92920800,696929208,0,-0.005031124223023653,-0.001016345340758562,-0.00018653743609320372,0.4566439688205719,-0.4005163311958313,-9.858817100524902,0,0,45.1879997253418,1,1,257,270
696.93176400,696931764,0,-0.005156132858246565,-0.00112768798135221,-6.313093035714701e-05,0.45673274993896484,-0.40034860372543335,-9.858949661254883,0,0,45.1879997253418,1,1,257,270
696.93381700,696933817,0,-0.005222450941801071,-0.001138045103289187,0.00011788968549808487,0.4568573534488678,-0.4000626504421234,-9.859183311462402,0,0,45.1879997253418,1,1,257,270
696.93670400,696936704,0,-0.005140326451510191,-0.0009002137230709195,0.0002626387868076563,0.4569644331932068,-0.3996165692806244,-9.859532356262207,0,0,45.1879997253418,1,1,257,270
696.93922600,696939226,0,-0.004949868656694889,-0.0006950898678041995,0.0003709682496264577,0.4570062756538391,-0.3990437984466553,-9.859912872314453,0,0,45.1879997253418,1,1,257,270
696.94195300,696941953,0,-0.004819017834961414,-0.0006365085719153285,0.0006058122962713242,0.4569404423236847,-0.39845192432403564,-9.860235214233398,0,0,45.1879997253418,1,1,257,270
696.94413400,696944134,0,-0.004923297557979822,-0.0005397523636929691,0.0010001620976254344,0.45677870512008667,-0.39789533615112305,-9.860504150390625,0,0,45.1879997253418,1,1,257,270
696.94673100,696946731,0,-0.005292495712637901,-0.0005092081264592707,0.0013455790467560291,0.45660898089408875,-0.39731764793395996,-9.860772132873535,0,0,45.1879997253418,1,1,257,270
696.94945100,696949451,0,-0.005652586929500103,-0.0007077925256453454,0.0015471919905394316,0.4565240144729614,-0.3966614902019501,-9.861045837402344,0,0,45.1879997253418,1,1,257,270
696.95238000,696952380,0,-0.005652458406984806,-0.0009457292035222054,0.0015884159365668893,0.4565154016017914,-0.395952969789505,-9.861271858215332,0,0,45.1879997253418,1,1,257,270
696.95417000,696954170,0,-0.00532778212800622,-0.0011040850076824427,0.0014751991257071495,0.4565052390098572,-0.3952506482601166,-9.86139965057373,0,0,45.1879997253418,1,1,257,270
696.95690100,696956901,0,-0.004998201038688421,-0.0013046785024926066,0.001359376939944923,0.45647966861724854,-0.3945789337158203,-9.861424446105957,0,0,45.1879997253418,1,1,257,270
696.95997200,696959972,0,-0.004804783035069704,-0.0014842947712168097,0.0013066591927781701,0.4564755856990814,-0.3939525783061981,-9.861384391784668,0,0,45.1879997253418,1,1,257,270
696.96229600,696962296,0,-0.00468661030754447,-0.0016067171236500144,0.001297442358918488,0.4564487040042877,-0.3933844566345215,-9.861330032348633,0,0,45.1879997253418,1,1,257,270
696.96427400,696964274,0,-0.0046258242800831795,-0.0016557020135223866,0.0013155072228983045,0.45628276467323303,-0.39284375309944153,-9.861289978027344,0,0,45.1879997253418,1,1,257,270
696.96713500,696967135,0,-0.0047387052327394485,-0.001469340524636209,0.001348303398117423,0.4559233486652374,-0.39228883385658264,-9.861268997192383,0,0,45.1879997253418,1,1,257,270
696.96972300,696969723,0,-0.005104963202029467,-0.0010792480316013098,0.0014664510963484645,0.455392986536026,-0.39170339703559875,-9.861274719238281,0,0,45.1879997253418,1,1,257,270
696.97182600,696971826,0,-0.0055616735480725765,-0.0007108624558895826,0.0016245386796072125,0.4547266364097595,-0.3910731375217438,-9.861315727233887,0,0,45.1879997253418,1,1,257,270
696.97467900,696974679,0,-0.005894818343222141,-0.00047207274474203587,0.0018176267622038722,0.4539705216884613,-0.3903854489326477,-9.861404418945312,0,0,45.1879997253418,1,1,257,270
696.97710600,696977106,0,-0.005933893378823996,-0.00030907406471669674,0.001986100571230054,0.4531734585762024,-0.3896434009075165,-9.861555099487305,0,0,45.1879997253418,1,1,257,270
696.97979100,696979791,0,-0.005658032838255167,-0.00020826488616876304,0.002016591839492321,0.45235827565193176,-0.3888780176639557,-9.861787796020508,0,0,45.1879997253418,1,1,257,270
696.98204500,696982045,0,-0.005245397333055735,-0.00015519917360506952,0.0020932478364557028,0.45153871178627014,-0.388180136680603,-9.862086296081543,0,0,45.1879997253418,1,1,257,270
696.98460600,696984606,0,-0.0047910334542393684,-3.0099294235697016e-05,0.0022167996503412724,0.4507339596748352,-0.38766568899154663,-9.862378120422363,0,0,45.1879997253418,1,1,257,270
696.98732100,696987321,0,-0.0044363983906805515,0.00015274138422682881,0.0022236208897083998,0.4499332904815674,-0.38735324144363403,-9.862635612487793,0,0,45.1879997253418,1,1,257,270
696.99015800,696990158,0,-0.004363531246781349,0.00021951018425170332,0.0020527599845081568,0.4490989148616791,-0.3871535360813141,-9.86294174194336,0,0,45.1879997253418,1,1,257,270
696.99202400,696992024,0,-0.004495253786444664,0.00020927727746311575,0.001685003051534295,0.44822531938552856,-0.38700687885284424,-9.863432884216309,0,0,45.1879997253418,1,1,257,270
696.99471100,696994711,0,-0.0045253015123307705,0.00028622656827792525,0.0012877365807071328,0.44732865691185,-0.3869365453720093,-9.864175796508789,0,0,45.1879997253418,1,1,257,270
696.99755200,696997552,0,-0.004304778762161732,0.0004083343083038926,0.0010184739949181676,0.44643765687942505,-0.38699084520339966,-9.865113258361816,0,0,45.1879997253418,1,1,257,270
697.00009900,697000099,0,-0.003980967681854963,0.0004128030559513718,0.0009067729697562754,0.4456477463245392,-0.3872053325176239,-9.866092681884766,0,0,45.1879997253418,1,1,257,270
697.00228900,697002289,0,-0.0037596868351101875,0.00021270876459311694,0.0007423077477142215,0.4450717866420746,-0.387568861246109,-9.866991996765137,0,0,45.1879997253418,1,1,257,270
697.00507000,697005070,0,-0.003808569861575961,-9.139558824244887e-05,0.00037631523446179926,0.4447326362133026,-0.3879588544368744,-9.867779731750488,0,0,45.1879997253418,1,1,257,270
697.00761300,697007613,0,-0.0040163011290133,-0.00037506790249608457,4.395882115204586e-06,0.4445933699607849,-0.38818830251693726,-9.868462562561035,0,0,45.1879997253418,1,1,257,270
697.01029500,697010295,0,-0.004113620147109032,-0.000618062331341207,-0.00014806089166086167,0.4446478486061096,-0.3882099688053131,-9.869019508361816,0,0,45.1879997253418,1,1,257,270
697.01249400,697012494,0,-0.004054624121636152,-0.0007856020820327103,7.078959697537357e-06,0.4449102580547333,-0.38815733790397644,-9.869370460510254,0,0,45.1879997253418,1,1,257,270
697.01502800,697015028,0,-0.003959914203733206,-0.0008907029405236244,0.00030658801551908255,0.4453292489051819,-0.3881714940071106,-9.869407653808594,0,0,45.1879997253418,1,1,257,270
697.01789800,697017898,0,-0.004065528977662325,-0.0009740465320646763,0.0005574514507316053,0.44578099250793457,-0.38828718662261963,-9.869059562683105,0,0,45.1879997253418,1,1,257,270
697.02056300,697020563,0,-0.00438826996833086,-0.0011421521194279194,0.0007272465736605227,0.4461755156517029,-0.38845813274383545,-9.868340492248535,0,0,45.1879997253418,1,1,257,270
697.02246600,697022466,0,-0.004544749855995178,-0.0015308132860809565,0.0009638020419515669,0.4465165436267853,-0.3886565566062927,-9.867385864257812,0,0,45.1879997253418,1,1,257,270
697.02516500,697025165,0,-0.0043989066034555435,-0.0019878018647432327,0.00127034995239228,0.44686368107795715,-0.3889133632183075,-9.86635971069336,0,0,45.1879997253418,1,1,257,270
697.02806700,697028067,0,-0.00427035428583622,-0.002201528288424015,0.001429346390068531,0.4472631812095642,-0.38924890756607056,-9.86532211303711,0,0,45.1879997253418,1,1,257,270
697.02999700,697029997,0,-0.004430755041539669,-0.0022199491504579782,0.0015096291899681091,0.4477281868457794,-0.3896249234676361,-9.864259719848633,0,0,45.21200180053711,1,1,257,270
697.03262600,697032626,0,-0.004856528248637915,-0.0022509999107569456,0.0016138977371156216,0.448277086019516,-0.39001402258872986,-9.863182067871094,0,0,45.21200180053711,1,1,257,270
697.03544800,697035448,0,-0.005320955999195576,-0.002260042354464531,0.001669171266257763,0.4489467144012451,-0.3904615342617035,-9.862138748168945,0,0,45.21200180053711,1,1,257,270
697.03799400,697037994,0,-0.0056296586990356445,-0.0022282798308879137,0.0016095438040792942,0.4497484862804413,-0.3909936249256134,-9.861173629760742,0,0,45.21200180053711,1,1,257,270
697.04007900,697040079,0,-0.005653805565088987,-0.0021483919117599726,0.0013534061145037413,0.4506218433380127,-0.39153537154197693,-9.860312461853027,0,0,45.21200180053711,1,1,257,270
697.04292500,697042925,0,-0.005423401016741991,-0.0019410470267757773,0.0010037287138402462,0.4514913260936737,-0.3919917345046997,-9.859597206115723,0,0,45.21200180053711,1,1,257,270
697.04548100,697045481,0,-0.00514141283929348,-0.0016240124823525548,0.0007916351314634085,0.45235922932624817,-0.39235496520996094,-9.859088897705078,0,0,45.21200180053711,1,1,257,270
697.04817200,697048172,0,-0.004989116918295622,-0.0013783883769065142,0.0007372060208581388,0.4532765746116638,-0.39269572496414185,-9.858829498291016,0,0,45.21200180053711,1,1,257,270
697.05048600,697050486,0,-0.005010304041206837,-0.0012271058512851596,0.0006774929934181273,0.4542748034000397,-0.393035352230072,-9.85883903503418,0,0,45.21200180053711,1,1,257,270
697.05297500,697052975,0,-0.005054815672338009,-0.0010152602335438132,0.0005939687835052609,0.4553534984588623,-0.393295019865036,-9.859050750732422,0,0,45.21200180053711,1,1,257,270
697.05556300,697055563,0,-0.005029326770454645,-0.0007081477087922394,0.0006371717900037766,0.4564979374408722,-0.3934117257595062,-9.859305381774902,0,0,45.21200180053711,1,1,257,270
697.05868100,697058681,0,-0.004963959567248821,-0.0003208051493857056,0.0008591252262704074,0.45770150423049927,-0.393413782119751,-9.859448432922363,0,0,45.21200180053711,1,1,257,270
697.06037900,697060379,0,-0.004934075754135847,4.995659401174635e-05,0.0010875698644667864,0.4589439630508423,-0.3933761715888977,-9.859413146972656,0,0,45.21200180053711,1,1,257,270
697.06309000,697063090,0,-0.0050349365919828415,0.0002674267452675849,0.0011643354082480073,0.46014404296875,-0.3933522403240204,-9.859227180480957,0,0,45.21200180053711,1,1,257,270
697.06594000,697065940,0,-0.005178405437618494,0.0003171768912579864,0.0012743494007736444,0.4611733555793762,-0.39334771037101746,-9.859004020690918,0,0,45.21200180053711,1,1,257,270
697.06851400,697068514,0,-0.005200558807700872,0.00036658390308730304,0.0014466693392023444,0.46193885803222656,-0.39333251118659973,-9.8588285446167,0,0,45.21200180053711,1,1,257,270
697.07047700,697070477,0,-0.0050407228991389275,0.00043741989065892994,0.0014536032686010003,0.46243590116500854,-0.3932589292526245,-9.858623504638672,0,0,45.21200180053711,1,1,257,270
697.07337500,697073375,0,-0.004680279176682234,0.00038135069189593196,0.0013596182689070702,0.462745726108551,-0.39307066798210144,-9.858247756958008,0,0,45.21200180053711,1,1,257,270
697.07589700,697075897,0,-0.004313913639634848,0.00017427174316253513,0.0013466754462569952,0.46300509572029114,-0.3927108943462372,-9.857651710510254,0,0,45.21200180053711,1,1,257,270
697.07858000,697078580,0,-0.004113329108804464,-0.00020992696227040142,0.0014107018942013383,0.4633226990699768,-0.39215782284736633,-9.856919288635254,0,0,45.21200180053711,1,1,257,270
697.08089300,697080893,0,-0.003980088513344526,-0.0007428362150676548,0.0013821606989949942,0.46370449662208557,-0.39146295189857483,-9.856165885925293,0,0,45.21200180053711,1,1,257,270
697.08331000,697083310,0,-0.0039009498432278633,-0.0012595797888934612,0.0011144123272970319,0.4640856087207794,-0.39071521162986755,-9.855446815490723,0,0,45.21200180053711,1,1,257,270
697.08599500,697085995,0,-0.0038624918088316917,-0.0016087222611531615,0.00072840740904212,0.4643939435482025,-0.38998040556907654,-9.85477066040039,0,0,45.21200180053711,1,1,257,270
697.08823400,697088234,0,-0.003772827796638012,-0.0016886433586478233,0.00041550054447725415,0.4645724594593048,-0.38931044936180115,-9.85413646697998,0,0,45.21200180053711,1,1,257,270
697.09079600,697090796,0,-0.003687641117721796,-0.0015177435707300901,0.00012497376883402467,0.46459877490997314,-0.38875138759613037,-9.853584289550781,0,0,45.21200180053711,1,1,257,270
697.09354600,697093546,0,-0.0036933599039912224,-0.0013181496178731322,-0.0001495760807301849,0.464488685131073,-0.38832977414131165,-9.85323429107666,0,0,45.21200180053711,1,1,257,270
697.09636300,697096363,0,-0.0038067293353378773,-0.0012539011659100652,-0.00022766680922359228,0.4642781913280487,-0.38804760575294495,-9.853188514709473,0,0,45.21200180053711,1,1,257,270
697.09825100,697098251,0,-0.003974028397351503,-0.0011452574981376529,-0.00012577995948959142,0.4639791250228882,-0.3878709077835083,-9.853412628173828,0,0,45.21200180053711,1,1,257,270
697.10091100,697100911,0,-0.004051061812788248,-0.000728329352568835,-4.681941845774418e-06,0.46356746554374695,-0.38774773478507996,-9.85380744934082,0,0,45.21200180053711,1,1,257,270
697.10388400,697103884,0,-0.004012578167021275,-8.646718924865127e-05,0.00014254434790927917,0.46304357051849365,-0.3876451253890991,-9.854318618774414,0,0,45.21200180053711,1,1,257,270
697.10629800,697106298,0,-0.004040753468871117,0.0004151634930167347,0.00031748454784974456,0.4624152183532715,-0.38756856322288513,-9.854930877685547,0,0,45.21200180053711,1,1,257,270
697.10842200,697108422,0,-0.0042924717999994755,0.0006223836680874228,0.00046520488103851676,0.4616551101207733,-0.3875226676464081,-9.855615615844727,0,0,45.21200180053711,1,1,257,270
697.11123500,697111235,0,-0.004681117366999388,0.0006570812547579408,0.0006082598702050745,0.46076059341430664,-0.38744157552719116,-9.856327056884766,0,0,45.21200180053711,1,1,257,270
697.11380000,697113800,0,-0.004954586271196604,0.0006368962931446731,0.0008139137062244117,0.45977896451950073,-0.38723859190940857,-9.857007026672363,0,0,45.21200180053711,1,1,257,270
697.11639900,697116399,0,-0.005051282700151205,0.0005854648188687861,0.0010635553626343608,0.4587531089782715,-0.3869066834449768,-9.857614517211914,0,0,45.21200180053711,1,1,257,270
697.11864900,697118649,0,-0.0051374672912061214,0.00036083656596019864,0.0012352578341960907,0.4576936662197113,-0.38649630546569824,-9.858124732971191,0,0,45.21200180053711,1,1,257,270
697.12121100,697121211,0,-0.00531494477763772,-7.917193579487503e-05,0.001342600560747087,0.4565823972225189,-0.38605308532714844,-9.858511924743652,0,0,45.21200180053711,1,1,257,270
697.12393600,697123936,0,-0.005556609947234392,-0.0006323801935650408,0.0013736680848523974,0.4553752839565277,-0.38561108708381653,-9.858771324157715,0,0,45.21200180053711,1,1,257,270
697.12680500,697126805,0,-0.00575993862003088,-0.0012521387543529272,0.0013022818602621555,0.4540475606918335,-0.38518670201301575,-9.858949661254883,0,0,45.21200180053711,1,1,257,270
697.12864900,697128649,0,-0.005840057507157326,-0.0017175826942548156,0.0013884491054341197,0.4526406228542328,-0.3847666084766388,-9.859089851379395,0,0,45.21200180053711,1,1,257,270
697.13134300,697131343,0,-0.005837517324835062,-0.001777430297806859,0.0016943274531513453,0.45121991634368896,-0.38433876633644104,-9.85918140411377,0,0,45.21200180053711,1,1,257,270
697.13426500,697134265,0,-0.005785137414932251,-0.001585509511642158,0.0019168878206983209,0.4498371183872223,-0.3839205503463745,-9.859200477600098,0,0,45.21200180053711,1,1,257,270
697.13617500,697136175,0,-0.005654647946357727,-0.0014461125247180462,0.0019073650473728776,0.4485313296318054,-0.3835412859916687,-9.859162330627441,0,0,45.21200180053711,1,1,257,270
697.13885700,697138857,0,-0.005516404751688242,-0.0013258849503472447,0.0017315802397206426,0.4473020136356354,-0.3832201361656189,-9.859094619750977,0,0,45.21200180053711,1,1,257,270
697.14164000,697141640,0,-0.005413815379142761,-0.0010698758997023106,0.0015257021877914667,0.44612041115760803,-0.38293886184692383,-9.859021186828613,0,0,45.21200180053711,1,1,257,270
697.14418300,697144183,0,-0.005236807279288769,-0.000730551837477833,0.0013486879179254174,0.44499537348747253,-0.38265299797058105,-9.858969688415527,0,0,45.21200180053711,1,1,257,270
697.14626300,697146263,0,-0.004979223944246769,-0.00032145369914360344,0.0011536919046193361,0.44400447607040405,-0.3823646008968353,-9.858933448791504,0,0,45.21200180053711,1,1,257,270
697.14914100,697149141,0,-0.004804765805602074,0.00019538293418008834,0.0009141190093941987,0.44327232241630554,-0.3821176290512085,-9.85887336730957,0,0,45.21200180053711,1,1,257,270
697.15164600,697151646,0,-0.004830910358577967,0.0007525230757892132,0.0005917326780036092,0.44290176033973694,-0.3819161355495453,-9.858820915222168,0,0,45.21200180053711,1,1,257,270
697.15449600,697154496,0,-0.00502914609387517,0.001145688584074378,0.0001981869136216119,0.4428988993167877,-0.3817145526409149,-9.858867645263672,0,0,45.21200180053711,1,1,257,270
697.15679200,697156792,0,-0.0052322037518024445,0.001214308780618012,-0.0002789231075439602,0.44320422410964966,-0.3814931809902191,-9.859058380126953,0,0,45.215999603271484,1,1,257,270
697.15917400,697159174,0,-0.0052319723181426525,0.0010528387501835823,-0.0007590839522890747,0.44374844431877136,-0.3812972605228424,-9.85934829711914,0,0,45.215999603271484,1,1,257,270
697.16184400,697161844,0,-0.005002306774258614,0.0007414708961732686,-0.0010603729169815779,0.4444544017314911,-0.3811812698841095,-9.859635353088379,0,0,45.215999603271484,1,1,257,270
697.16464500,697164645,0,-0.004762769211083651,0.0003171899588778615,-0.0011169486679136753,0.44527995586395264,-0.38115838170051575,-9.859848022460938,0,0,45.215999603271484,1,1,257,270
697.16654500,697166545,0,-0.004700533114373684,-0.0001597625232534483,-0.0009664500248618424,0.4462217688560486,-0.38119107484817505,-9.860028266906738,0,0,45.215999603271484,1,1,257,270
697.16925900,697169259,0,-0.004751952830702066,-0.0005147993215359747,-0.0007320375880226493,0.44724804162979126,-0.3812102675437927,-9.860269546508789,0,0,45.215999603271484,1,1,257,270
697.17213400,697172134,0,-0.004813991487026215,-0.000627713103312999,-0.0005498494138009846,0.4482880234718323,-0.3811544179916382,-9.860618591308594,0,0,45.215999603271484,1,1,257,270
697.17469600,697174696,0,-0.004902840591967106,-0.0007154588238336146,-0.00044404808431863785,0.4492782652378082,-0.3810037672519684,-9.861077308654785,0,0,45.215999603271484,1,1,257,270
697.17669400,697176694,0,-0.005078772082924843,-0.0008588953060097992,-0.00023570103803649545,0.4501972496509552,-0.3808250427246094,-9.86160945892334,0,0,45.215999603271484,1,1,257,270
697.17955400,697179554,0,-0.005475883837789297,-0.0009686436969786882,0.00017339966143481433,0.4510610103607178,-0.3807341754436493,-9.862141609191895,0,0,45.215999603271484,1,1,257,270
697.18208200,697182082,0,-0.006100249942392111,-0.0010735944379121065,0.0005836584023199975,0.4519122838973999,-0.38078537583351135,-9.86259937286377,0,0,45.215999603271484,1,1,257,270
697.18480200,697184802,0,-0.006773492321372032,-0.0012448648922145367,0.0008208706276491284,0.45278236269950867,-0.3809494376182556,-9.862967491149902,0,0,45.215999603271484,1,1,257,270
697.18697700,697186977,0,-0.00743576604872942,-0.0015189377591013908,0.0010092477314174175,0.4536362588405609,-0.3811575770378113,-9.863263130187988,0,0,45.215999603271484,1,1,257,270
697.18959800,697189598,0,-0.007892505265772343,-0.0018014076631516218,0.0011492394842207432,0.454372763633728,-0.3813340663909912,-9.863483428955078,0,0,45.215999603271484,1,1,257,270
697.19230700,697192307,0,-0.007940043695271015,-0.0020342255011200905,0.001033423817716539,0.4549020528793335,-0.3814391791820526,-9.863635063171387,0,0,45.215999603271484,1,1,257,270
697.19466200,697194662,0,-0.0077879843302071095,-0.002187164733186364,0.0007475710590369999,0.45521482825279236,-0.38150081038475037,-9.863724708557129,0,0,45.215999603271484,1,1,257,270
697.19699600,697196996,0,-0.007662960793823004,-0.002196745714172721,0.0005465770955197513,0.4553530514240265,-0.38157907128334045,-9.863722801208496,0,0,45.215999603271484,1,1,257,270
697.19968500,697199685,0,-0.007513660471886396,-0.002224753377959132,0.000470188184408471,0.4553622007369995,-0.3816927671432495,-9.863612174987793,0,0,45.215999603271484,1,1,257,270
697.20268500,697202685,0,-0.007125454489141703,-0.002447091042995453,0.0004503666132222861,0.455276757478714,-0.38178858160972595,-9.863438606262207,0,0,45.215999603271484,1,1,257,270
697.20452200,697204522,0,-0.006418669130653143,-0.002738452982157469,0.0005199334700591862,0.4551001489162445,-0.381804883480072,-9.863279342651367,0,0,45.215999603271484,1,1,257,270
697.20717500,697207175,0,-0.005615883506834507,-0.0028566261753439903,0.0007164276903495193,0.4548150300979614,-0.3817499876022339,-9.86316967010498,0,0,45.215999603271484,1,1,257,270
697.21008700,697210087,0,-0.005047516897320747,-0.0027517955750226974,0.0009436773834750056,0.45442748069763184,-0.38167357444763184,-9.863068580627441,0,0,45.215999603271484,1,1,257,270
697.21259800,697212598,0,-0.004757601767778397,-0.0026019730139523745,0.0010340717853978276,0.4539715051651001,-0.3816203474998474,-9.86292839050293,0,0,45.215999603271484,1,1,257,270
697.21465100,697214651,0,-0.004479395225644112,-0.0024663936346769333,0.0009528172668069601,0.45348498225212097,-0.38161611557006836,-9.862768173217773,0,0,45.215999603271484,1,1,257,270
697.21745800,697217458,0,-0.004050078801810741,-0.0022201440297067165,0.0008022104157134891,0.4529739022254944,-0.3816628158092499,-9.862624168395996,0,0,45.215999603271484,1,1,257,270
697.21999600,697219996,0,-0.0035985747817903757,-0.00185169349424541,0.0006511625833809376,0.45240890979766846,-0.3817896842956543,-9.862462997436523,0,0,45.215999603271484,1,1,257,270
697.22271600,697222716,0,-0.003364618169143796,-0.001392808393575251,0.00043521865154616535,0.45178499817848206,-0.38207149505615234,-9.862208366394043,0,0,45.215999603271484,1,1,257,270
697.22490700,697224907,0,-0.003578052157536149,-0.0009248912101611495,0.00020148634212091565,0.45112594962120056,-0.3825603127479553,-9.861865043640137,0,0,45.215999603271484,1,1,257,270
697.22750900,697227509,0,-0.004360106773674488,-0.0006309999153017998,0.00011311414709780365,0.45043936371803284,-0.38323843479156494,-9.861549377441406,0,0,45.215999603271484,1,1,257,270
697.23020800,697230208,0,-0.005488442722707987,-0.0004984516417607665,0.00017477813526056707,0.449704110622406,-0.38403308391571045,-9.861366271972656,0,0,45.215999603271484,1,1,257,270
697.23297500,697232975,0,-0.006554691586643457,-0.0004237712419126183,0.00042747671250253916,0.4488946497440338,-0.3848574459552765,-9.861266136169434,0,0,45.215999603271484,1,1,257,270
697.23491300,697234913,0,-0.007291002664715052,-0.0004447393002919853,0.0007973048486746848,0.44800952076911926,-0.385633647441864,-9.861108779907227,0,0,45.215999603271484,1,1,257,270
697.23759600,697237596,0,-0.007621094584465027,-0.0005747110117226839,0.001094965497031808,0.44707584381103516,-0.3863063156604767,-9.860830307006836,0,0,45.215999603271484,1,1,257,270
697.24051900,697240519,0,-0.007618952542543411,-0.000784341711550951,0.0012395046651363373,0.44616010785102844,-0.3868613839149475,-9.860509872436523,0,0,45.215999603271484,1,1,257,270
697.24231100,697242311,0,-0.007442251313477755,-0.001047902274876833,0.0011705714277923107,0.4453427195549011,-0.38730093836784363,-9.860298156738281,0,0,45.215999603271484,1,1,257,270
697.24504600,697245046,0,-0.007150822784751654,-0.0012647254625335336,0.0009260153165087104,0.44463911652565,-0.38762760162353516,-9.860326766967773,0,0,45.215999603271484,1,1,257,270
697.24790000,697247900,0,-0.006712676957249641,-0.0013519016792997718,0.0005462922854349017,0.4439924359321594,-0.3878583312034607,-9.860597610473633,0,0,45.215999603271484,1,1,257,270
697.25045300,697250453,0,-0.006202755495905876,-0.0012986835790798068,0.00017566230962984264,0.44336554408073425,-0.3879948854446411,-9.860958099365234,0,0,45.215999603271484,1,1,257,270
697.25254000,697252540,0,-0.005806461907923222,-0.0011125619057565928,-1.9661676560644992e-05,0.4427950084209442,-0.38801833987236023,-9.861221313476562,0,0,45.215999603271484,1,1,257,270
697.25555100,697255551,0,-0.005545123480260372,-0.0007582026883028448,-0.00011582909064600244,0.4423341751098633,-0.38794052600860596,-9.861306190490723,0,0,45.215999603271484,1,1,257,270
697.25785700,697257857,0,-0.0052322461269795895,-0.00033723487285897136,-0.00014231335080694407,0.4419881999492645,-0.3878214955329895,-9.861279487609863,0,0,45.215999603271484,1,1,257,270
697.26054200,697260542,0,-0.004866214469075203,-2.4152310288627632e-05,-4.4231037463760003e-05,0.4417469799518585,-0.38773617148399353,-9.861306190490723,0,0,45.215999603271484,1,1,257,270
697.26304700,697263047,0,-0.004531045909970999,0.00032514650956727564,0.00019925298693124205,0.44160789251327515,-0.38772347569465637,-9.861485481262207,0,0,45.215999603271484,1,1,257,270
697.26535900,697265359,0,-0.004115188028663397,0.000794377236161381,0.0005596965202130377,0.44153308868408203,-0.387789785861969,-9.861737251281738,0,0,45.215999603271484,1,1,257,270
697.26805700,697268057,0,-0.003585649887099862,0.001183223444968462,0.0009019360295496881,0.44148823618888855,-0.387954443693161,-9.861885070800781,0,0,45.215999603271484,1,1,257,270
697.27084500,697270845,0,-0.0031728665344417095,0.0013251777272671461,0.001145875547081232,0.44149142503738403,-0.38821303844451904,-9.86182689666748,0,0,45.215999603271484,1,1,257,270
697.27274000,697272740,0,-0.0031110988929867744,0.0012236556503921747,0.0013856065925210714,0.4415726065635681,-0.3885054290294647,-9.861605644226074,0,0,45.215999603271484,1,1,257,270
697.27556800,697275568,0,-0.0032947794534265995,0.001011274172924459,0.0016520050121471286,0.4417440593242645,-0.3887841999530792,-9.861315727233887,0,0,45.215999603271484,1,1,257,270
697.27837100,697278371,0,-0.003476058831438422,0.0007794596604071558,0.0017486006254330277,0.44202330708503723,-0.3890632688999176,-9.860997200012207,0,0,45.215999603271484,1,1,257,270
697.28091300,697280913,0,-0.003664366202428937,0.000558991392608732,0.0015998316230252385,0.4424462616443634,-0.38937586545944214,-9.86063003540039,0,0,45.215999603271484,1,1,257,270
697.28290700,697282907,0,-0.004077235236763954,0.0003939554444514215,0.0013437715824693441,0.44303029775619507,-0.38974466919898987,-9.860203742980957,0,0,45.215999603271484,1,1,257,270
697.28577700,697285777,0,-0.0047975326888263226,0.00025240928516723216,0.001021667500026524,0.4437480568885803,-0.390189528465271,-9.859725952148438,0,0,45.21800231933594,1,1,257,270
697.28832500,697288325,0,-0.00568541930988431,-2.017384031205438e-05,0.0005588425556197762,0.4445464015007019,-0.3906998634338379,-9.8592529296875,0,0,45.21800231933594,1,1,257,270
697.29099900,697290999,0,-0.006426912732422352,-0.0004246738099027425,8.34691381896846e-05,0.4453912079334259,-0.39123082160949707,-9.858858108520508,0,0,45.21800231933594,1,1,257,270
697.29325600,697293256,0,-0.006580683868378401,-0.0007890744018368423,-0.0001395700965076685,0.4462866485118866,-0.3917422294616699,-9.858527183532715,0,0,45.21800231933594,1,1,257,270
697.29584300,697295843,0,-0.006150424014776945,-0.0010131302988156676,-0.0001608773454790935,0.4472291171550751,-0.392205148935318,-9.858180046081543,0,0,45.21800231933594,1,1,257,270
697.29842600,697298426,0,-0.005674800835549831,-0.001156351063400507,-0.00019063187937717885,0.4481942355632782,-0.39260798692703247,-9.857789993286133,0,0,45.21800231933594,1,1,257,270
697.30069700,697300697,0,-0.005405085161328316,-0.0013956893235445023,-0.00027566804783418775,0.44920894503593445,-0.39296868443489075,-9.857428550720215,0,0,45.21800231933594,1,1,257,270
697.30331600,697303316,0,-0.005180795677006245,-0.0017490986501798034,-0.000332593364873901,0.4503389596939087,-0.39329659938812256,-9.857199668884277,0,0,45.21800231933594,1,1,257,270
697.30595400,697305954,0,-0.004979841876775026,-0.0020832549780607224,-0.00026054412592202425,0.45157960057258606,-0.39357221126556396,-9.85717487335205,0,0,45.21800231933594,1,1,257,270
697.30874100,697308741,0,-0.004866206087172031,-0.002213021507486701,-1.1259890015935525e-05,0.4528559744358063,-0.3937995135784149,-9.857338905334473,0,0,45.21800231933594,1,1,257,270
697.31064300,697310643,0,-0.004710559733211994,-0.002046588808298111,0.00037369682104326785,0.454101026058197,-0.394024133682251,-9.8576021194458,0,0,45.21800231933594,1,1,257,270
697.31332800,697313328,0,-0.0043855891562998295,-0.0017969508189707994,0.0007493447628803551,0.4552827477455139,-0.394273042678833,-9.857867240905762,0,0,45.21800231933594,1,1,257,270
697.31655000,697316550,0,-0.004043550230562687,-0.0015483549796044827,0.0010553161846473813,0.45639386773109436,-0.394514262676239,-9.858120918273926,0,0,45.21800231933594,1,1,257,270
697.31876500,697318765,0,-0.003831545589491725,-0.0012454919051378965,0.0012354119680821896,0.4574354290962219,-0.39469823241233826,-9.85839557647705,0,0,45.21800231933594,1,1,257,270
697.32077400,697320774,0,-0.0036132303066551685,-0.0009133866406045854,0.0012149999383836985,0.4584225118160248,-0.39480888843536377,-9.85866641998291,0,0,45.21800231933594,1,1,257,270
697.32362800,697323628,0,-0.0033331720624119043,-0.0005701214540749788,0.0010751127265393734,0.4593971073627472,-0.3948882818222046,-9.858879089355469,0,0,45.21800231933594,1,1,257,270
697.32624500,697326245,0,-0.0032030220609158278,-0.00025433304836042225,0.0008767746621742845,0.46038976311683655,-0.39503008127212524,-9.859014511108398,0,0,45.21800231933594,1,1,257,270
697.32886600,697328866,0,-0.0033892234787344933,-3.982556881965138e-05,0.0005299722542986274,0.4613788425922394,-0.3953108787536621,-9.85909652709961,0,0,45.21800231933594,1,1,257,270
697.33115500,697331155,0,-0.0038548263255506754,-1.4353560800373089e-05,0.0001012250577332452,0.46233096718788147,-0.3957074284553528,-9.859169960021973,0,0,45.21800231933594,1,1,257,270
697.33366700,697333667,0,-0.004443309735506773,-0.00015911165974102914,-0.00012189407425466925,0.4632444977760315,-0.39609336853027344,-9.859284400939941,0,0,45.21800231933594,1,1,257,270
697.33639900,697336399,0,-0.004941299557685852,-0.00033946268376894295,-0.00014501289115287364,0.4641110897064209,-0.3963277339935303,-9.859450340270996,0,0,45.21800231933594,1,1,257,270
697.33932000,697339320,0,-0.005228515714406967,-0.0003640030336100608,8.508565770171117e-06,0.46488866209983826,-0.39634817838668823,-9.859618186950684,0,0,45.21800231933594,1,1,257,270
697.34112800,697341128,0,-0.005332783795893192,-0.0002651061804499477,0.0003865898179356009,0.46552613377571106,-0.3961910307407379,-9.859709739685059,0,0,45.21800231933594,1,1,257,270
697.34383800,697343838,0,-0.005315782036632299,-0.00028722514980472624,0.0007833501440472901,0.4659785330295563,-0.3959457278251648,-9.8596773147583,0,0,45.21800231933594,1,1,257,270
697.34669200,697346692,0,-0.005280114710330963,-0.00038047556881792843,0.0011784196831285954,0.46622079610824585,-0.39570000767707825,-9.859582901000977,0,0,45.21800231933594,1,1,257,270
697.34946600,697349466,0,-0.005263258703052998,-0.00034814036916941404,0.0015861877473071218,0.46625256538391113,-0.3955042064189911,-9.859559059143066,0,0,45.21800231933594,1,1,257,270
697.35126900,697351269,0,-0.005259484052658081,-0.00034918406163342297,0.0018547166837379336,0.4661026895046234,-0.39536821842193604,-9.85963249206543,0,0,45.21800231933594,1,1,257,270
