timestamp,TimeUS,I,GyrX,GyrY,GyrZ,AccX,AccY,AccZ,EG,EA,T,GH,AH,GHz,AHz
710.17411000,710174110,0,-0.00030943143065087497,0.0003583793295547366,-0.0007362703327089548,0.19788016378879547,-0.24420273303985596,-9.862167358398438,0,0,50.71000289916992,1,1,196,196
710.17835200,710178352,0,-0.0002189612278016284,9.365485311718658e-05,-0.0008597653941251338,0.19795025885105133,-0.24436846375465393,-9.862384796142578,0,0,50.71000289916992,1,1,196,196
710.18356400,710183564,0,-8.05324743851088e-05,0.0001871478889370337,-0.00081860605860129,0.19798247516155243,-0.2445647418498993,-9.862525939941406,0,0,50.71000289916992,1,1,196,196
710.18867100,710188671,0,-0.00010456697054905817,0.00038064116961322725,-0.0009175844606943429,0.1979386955499649,-0.24480123817920685,-9.862654685974121,0,0,50.71000289916992,1,1,196,196
710.19320100,710193201,0,-0.00035947616561315954,0.00037297987728379667,-0.0010639471001923084,0.19783411920070648,-0.24504432082176208,-9.862826347351074,0,0,50.71000289916992,1,1,196,196
710.19850700,710198507,0,-0.0006216198671609163,0.00021805426513310522,-0.0009406679891981184,0.19768275320529938,-0.24527093768119812,-9.863059043884277,0,0,50.71000289916992,1,1,196,196
710.20359000,710203590,0,-0.0010460495250299573,-2.926425622717943e-05,-0.0006075981655158103,0.19746942818164825,-0.24549545347690582,-9.863327980041504,0,0,50.71000289916992,1,1,196,196
710.20883800,710208838,0,-0.0016220881370827556,-0.00011381661897758022,-8.215433626901358e-05,0.1971949189901352,-0.24571681022644043,-9.86362075805664,0,0,50.71000289916992,1,1,196,196
710.21352900,710213529,0,-0.0019459797767922282,-5.1210776291554794e-05,0.0005892982590012252,0.19689521193504333,-0.24589909613132477,-9.863968849182129,0,0,50.71000289916992,1,1,196,196
710.21862100,710218621,0,-0.0017693385016173124,1.665912350290455e-05,0.000987059436738491,0.19661667943000793,-0.24603134393692017,-9.86440658569336,0,0,50.71000289916992,1,1,196,196
710.22402200,710224022,0,-0.001230471534654498,0.0002842925605364144,0.0009647201513871551,0.19637969136238098,-0.246132031083107,-9.864921569824219,0,0,50.71000289916992,1,1,196,196
710.22913100,710229131,0,-0.0007304325117729604,0.0005944467848166823,0.000746074307244271,0.19616729021072388,-0.24621088802814484,-9.865447998046875,0,0,50.71000289916992,1,1,196,196
710.23417300,710234173,0,-0.00045316689647734165,0.0005475771031342447,0.0003188691334798932,0.19596412777900696,-0.24627675116062164,-9.8659029006958,0,0,50.71000289916992,1,1,196,196
710.23872100,710238721,0,-0.00023183879966381937,0.0002867223520297557,-0.00017617049161344767,0.19577741622924805,-0.24634456634521484,-9.866264343261719,0,0,50.71000289916992,1,1,196,196
710.24408700,710244087,0,-8.100694685708731e-05,0.00023854884784668684,-0.00044772130786441267,0.19561348855495453,-0.2464277446269989,-9.866567611694336,0,0,50.70800018310547,1,1,196,196
710.24917100,710249171,0,-0.0002570239594206214,0.00045952387154102325,-0.0005587877822108567,0.1954779475927353,-0.2465241551399231,-9.866852760314941,0,0,50.70800018310547,1,1,196,196
710.25440500,710254405,0,-0.0005017335643060505,0.0007127314456738532,-0.0005712105776183307,0.1953965425491333,-0.24660387635231018,-9.867138862609863,0,0,50.70800018310547,1,1,196,196
710.25934300,710259343,0,-0.0004148662555962801,0.0008259310270659626,-0.0005340445786714554,0.19539202749729156,-0.24666818976402283,-9.867411613464355,0,0,50.70800018310547,1,1,196,196
710.26418100,710264181,0,-0.0001867498503997922,0.0007971811573952436,-0.0004278673732187599,0.19543540477752686,-0.2467672973871231,-9.867615699768066,0,0,50.70800018310547,1,1,196,196
710.26934300,710269343,0,6.374389340635389e-05,0.0007589606684632599,6.291392764978809e-06,0.19547240436077118,-0.2469179481267929,-9.86772632598877,0,0,50.70800018310547,1,1,196,196
710.27461900,710274619,0,0.00032806015224196017,0.0008291085832752287,0.0006166371167637408,0.19549649953842163,-0.24710685014724731,-9.867803573608398,0,0,50.70800018310547,1,1,196,196
710.27968000,710279680,0,0.0002307052054675296,0.0009371627820655704,0.0009797947714105248,0.19554388523101807,-0.24734985828399658,-9.867914199829102,0,0,50.70800018310547,1,1,196,196
710.28435000,710284350,0,-0.00012553902342915535,0.0009366249432787299,0.0009950262028723955,0.19562578201293945,-0.2476678490638733,-9.868059158325195,0,0,50.70800018310547,1,1,196,196
710.28974100,710289741,0,-0.00016635826614219695,0.0007789732771925628,0.0007356709102168679,0.19571013748645782,-0.24805104732513428,-9.868193626403809,0,0,50.70800018310547,1,1,196,196
710.29470300,710294703,0,-4.839482789975591e-05,0.0005247615044936538,0.0005017422372475266,0.19576822221279144,-0.24847640097141266,-9.868274688720703,0,0,50.70800018310547,1,1,196,196
710.29986500,710299865,0,-8.856311615090817e-05,0.00022201800311449915,0.0004315585538279265,0.19578847289085388,-0.24890899658203125,-9.868295669555664,0,0,50.70800018310547,1,1,196,196
710.30456600,710304566,0,-0.00019634331692941487,-9.671194129623473e-05,0.00034815663821063936,0.1957537680864334,-0.24930360913276672,-9.868247985839844,0,0,50.70800018310547,1,1,196,196
710.30968500,710309685,0,-0.0005257843877188861,-0.00020204648899380118,0.000274932332104072,0.19565612077713013,-0.24962694942951202,-9.868124961853027,0,0,50.70800018310547,1,1,196,196
710.31480500,710314805,0,-0.001053988584317267,-2.6587260435917415e-05,0.0002210515522165224,0.1955236792564392,-0.2498636543750763,-9.867963790893555,0,0,50.70800018310547,1,1,196,196
710.32032400,710320324,0,-0.0014673705445602536,0.00019566965056583285,0.0001344009069725871,0.19539585709571838,-0.25002145767211914,-9.867810249328613,0,0,50.70800018310547,1,1,196,196
710.32527100,710325271,0,-0.0016914736479520798,0.0003963336639571935,4.922856533084996e-05,0.1952938735485077,-0.25013571977615356,-9.867693901062012,0,0,50.70800018310547,1,1,196,196
710.32984100,710329841,0,-0.001780821243301034,0.0006523329066112638,-0.00017639659927226603,0.195229634642601,-0.2502243220806122,-9.86763858795166,0,0,50.70800018310547,1,1,196,196
710.33513900,710335139,0,-0.0017881132662296295,0.0007261430728249252,-0.000582513865083456,0.19519947469234467,-0.2502404749393463,-9.867637634277344,0,0,50.70800018310547,1,1,196,196
710.34022500,710340225,0,-0.0015967546496540308,0.0005929716280661523,-0.0006785527220927179,0.19519305229187012,-0.25014275312423706,-9.867657661437988,0,0,50.70800018310547,1,1,196,196
710.34539200,710345392,0,-0.0010323177557438612,0.0005979098496027291,-0.0003441056760493666,0.19522185623645782,-0.24997872114181519,-9.867683410644531,0,0,50.70800018310547,1,1,196,196
710.35015800,710350158,0,-0.00040124516817741096,0.00045719038462266326,-0.00018611658015288413,0.19531002640724182,-0.2498331516981125,-9.867704391479492,0,0,50.70800018310547,1,1,196,196
710.35513000,710355130,0,-0.00012647070980165154,-0.00014663650654256344,-0.0005123554728925228,0.19545777142047882,-0.24973294138908386,-9.867708206176758,0,0,50.70800018310547,1,1,196,196
710.36034700,710360347,0,-2.3606935428688303e-05,-0.0007469903794117272,-0.0009527753572911024,0.1956300139427185,-0.24963895976543427,-9.867676734924316,0,0,50.70800018310547,1,1,196,196
710.36573100,710365731,0,-0.00018122687470167875,-0.0009109554812312126,-0.0010973172029480338,0.1957951784133911,-0.24950213730335236,-9.867585182189941,0,0,50.70800018310547,1,1,196,196
710.37077100,710370771,0,-0.0006954733980819583,-0.0007286532782018185,-0.0010719039710238576,0.1959460824728012,-0.2492998242378235,-9.867447853088379,0,0,50.70800018310547,1,1,196,196
710.37533000,710375330,0,-0.0009624153026379645,-0.0003116206789854914,-0.00102297926787287,0.19607633352279663,-0.2490260899066925,-9.867311477661133,0,0,50.70800018310547,1,1,196,196
710.38085600,710380856,0,-0.0010584051487967372,0.0001350951351923868,-0.000814493396319449,0.1961803436279297,-0.24868300557136536,-9.86719799041748,0,0,50.70800018310547,1,1,196,196
710.38573700,710385737,0,-0.0013697365066036582,0.0003496498102322221,-0.0004656635574065149,0.1962742656469345,-0.2482939213514328,-9.867120742797852,0,0,50.70800018310547,1,1,196,196
710.39108300,710391083,0,-0.0016170550370588899,0.0005161830340512097,3.924178963643499e-05,0.19637957215309143,-0.2479008585214615,-9.867095947265625,0,0,50.70800018310547,1,1,196,196
710.39596000,710395960,0,-0.0015742091927677393,0.0007848410750739276,0.0008348766714334488,0.19648747146129608,-0.24755549430847168,-9.867098808288574,0,0,50.70800018310547,1,1,196,196
710.40074700,710400747,0,-0.0013485279632732272,0.0008911627228371799,0.001401409856043756,0.1965690702199936,-0.2472967803478241,-9.86706829071045,0,0,50.70800018310547,1,1,196,196
710.40595500,710405955,0,-0.0010801180033013225,0.0006882240413688123,0.0012197666801512241,0.19661268591880798,-0.2471311390399933,-9.866973876953125,0,0,50.70800018310547,1,1,196,196
710.41125900,710411259,0,-0.0008443720289506018,0.00037765290471725166,0.000769232923630625,0.19662904739379883,-0.2470567375421524,-9.86683177947998,0,0,50.70800018310547,1,1,196,196
710.41629200,710416292,0,-0.0006708535947836936,0.00023507517471443862,0.000542656984180212,0.1966419219970703,-0.24708537757396698,-9.866673469543457,0,0,50.70800018310547,1,1,196,196
710.42091200,710420912,0,-0.0006140494369901717,0.00030629566754214466,0.00030989263905212283,0.19667255878448486,-0.24722009897232056,-9.866509437561035,0,0,50.70800018310547,1,1,196,196
710.42619600,710426196,0,-0.0006242449744604528,0.00030758214415982366,-0.00030113800312392414,0.19672589004039764,-0.24742792546749115,-9.866342544555664,0,0,50.70800018310547,1,1,196,196
710.43122300,710431223,0,-0.0006117692682892084,0.000169864681083709,-0.0009194014710374177,0.19679923355579376,-0.24763703346252441,-9.866199493408203,0,0,50.70800018310547,1,1,196,196
710.43649100,710436491,0,-0.0006435959367081523,-7.034412192297168e-06,-0.0010501820361241698,0.19686907529830933,-0.2477901428937912,-9.866114616394043,0,0,50.70800018310547,1,1,196,196
710.44136700,710441367,0,-0.0007429637480527163,-0.0002730065316427499,-0.0008695124415680766,0.19687941670417786,-0.2479132115840912,-9.866109848022461,0,0,50.70800018310547,1,1,196,196
710.44621500,710446215,0,-0.0009076197748072445,-0.0004762723983731121,-0.0005757603794336319,0.1967945247888565,-0.24804365634918213,-9.866190910339355,0,0,50.70800018310547,1,1,196,196
710.45148900,710451489,0,-0.001018241047859192,-0.0005040448741056025,-0.00018073382670991123,0.19663888216018677,-0.2481449842453003,-9.86634349822998,0,0,50.70800018310547,1,1,196,196
710.45678800,710456788,0,-0.0008178307325579226,-0.0004951417213305831,0.00013189483433961868,0.19646279513835907,-0.24817068874835968,-9.86655044555664,0,0,50.70800018310547,1,1,196,196
710.46185700,710461857,0,-0.0005611093947663903,-0.0004704755556304008,0.00018532660033088177,0.19629041850566864,-0.24812160432338715,-9.866790771484375,0,0,50.70800018310547,1,1,196,196
710.46645400,710466454,0,-0.0004862536152359098,-0.00033782070386223495,0.0001043473239406012,0.1961084008216858,-0.2480338215827942,-9.867011070251465,0,0,50.70800018310547,1,1,196,196
710.47185300,710471853,0,-0.0003024264588020742,-0.00023246972705237567,-7.750694931019098e-05,0.19589082896709442,-0.24793994426727295,-9.86716365814209,0,0,50.70800018310547,1,1,196,196
710.47681700,710476817,0,-5.0218321121064946e-05,-0.00021366596047300845,-0.0002189289079979062,0.19562172889709473,-0.2478061318397522,-9.867267608642578,0,0,50.70800018310547,1,1,196,196
710.48199400,710481994,0,-2.5883718990371563e-05,-0.0001345980999758467,-0.00020773000142071396,0.195308119058609,-0.2475465089082718,-9.86738395690918,0,0,50.70800018310547,1,1,196,196
710.48676800,710486768,0,-0.00037857735878787935,-4.237220491631888e-05,-0.00017849092546384782,0.19497044384479523,-0.24712683260440826,-9.867546081542969,0,0,50.70800018310547,1,1,196,196
710.49183000,710491830,0,-0.0008943353313952684,3.79022749257274e-05,1.1588152119657025e-05,0.1946202516555786,-0.24659433960914612,-9.8677339553833,0,0,50.70800018310547,1,1,196,196
710.49697200,710496972,0,-0.001070005469955504,0.00020192658121231943,0.00024092722742352635,0.1942608654499054,-0.24601995944976807,-9.867894172668457,0,0,50.73200225830078,1,1,196,196
710.50233300,710502333,0,-0.00089043885236606,0.00037352964864112437,0.00023300123575609177,0.19388839602470398,-0.2454603761434555,-9.868008613586426,0,0,50.73200225830078,1,1,196,196
710.50738100,710507381,0,-0.0005766501999460161,0.0004094830946996808,7.94210791354999e-06,0.1934923529624939,-0.24494528770446777,-9.86811637878418,0,0,50.73200225830078,1,1,196,196
710.51191300,710511913,0,-0.0001554490881972015,0.00042618048610165715,-0.00022368886857293546,0.19307759404182434,-0.24448703229427338,-9.868237495422363,0,0,50.73200225830078,1,1,196,196
710.51724300,710517243,0,0.00012844325101468712,0.0004830427933484316,-0.0002019831008510664,0.19266244769096375,-0.2440892904996872,-9.868342399597168,0,0,50.73200225830078,1,1,196,196
710.52228900,710522289,0,0.00018525250197853893,0.00038984842831268907,-0.0001688602933427319,0.1922563761472702,-0.24373404681682587,-9.86841869354248,0,0,50.73200225830078,1,1,196,196
710.52746100,710527461,0,0.00022766186157241464,0.00019071917631663382,-0.00029483530670404434,0.19186082482337952,-0.24339096248149872,-9.868475914001465,0,0,50.73200225830078,1,1,196,196
710.53226000,710532260,0,0.00020213666721247137,-1.9646653527161106e-05,-0.00036657985765486956,0.19148394465446472,-0.24304677546024323,-9.868499755859375,0,0,50.73200225830078,1,1,196,196
710.53727100,710537271,0,0.00014920007379259914,-0.00014111243945080787,-0.00029289000667631626,0.19115398824214935,-0.24272455275058746,-9.868488311767578,0,0,50.73200225830078,1,1,196,196
710.54245100,710542451,0,0.00014630240912083536,-0.0001434134755982086,-0.00016428415256086737,0.19090987741947174,-0.24246583878993988,-9.868465423583984,0,0,50.73200225830078,1,1,196,196
710.54779400,710547794,0,-9.545124339638278e-05,-0.00035166009911336005,-0.00014020715025253594,0.19076499342918396,-0.24229341745376587,-9.868446350097656,0,0,50.73200225830078,1,1,196,196
710.55282000,710552820,0,-0.0005088570760563016,-0.0007224605069495738,-0.00011816801998065785,0.1906818151473999,-0.24220626056194305,-9.868425369262695,0,0,50.73200225830078,1,1,196,196
710.55766200,710557662,0,-0.0008171895169652998,-0.0009922657627612352,-4.879343759967014e-05,0.19060535728931427,-0.24218890070915222,-9.868380546569824,0,0,50.73200225830078,1,1,196,196
710.56276500,710562765,0,-0.0010143427643924952,-0.0010551245650276542,8.214628178393468e-05,0.19052836298942566,-0.24219916760921478,-9.868302345275879,0,0,50.73200225830078,1,1,196,196
710.56780300,710567803,0,-0.0009087159996852279,-0.000796003092546016,0.00026927515864372253,0.1904793083667755,-0.2421850860118866,-9.868221282958984,0,0,50.73200225830078,1,1,196,196
710.57293800,710572938,0,-0.00046863892930559814,-0.0004869499243795872,0.00028824261971749365,0.19046255946159363,-0.24214236438274384,-9.868186950683594,0,0,50.73200225830078,1,1,196,196
710.57830500,710578305,0,-0.0001664596638875082,-0.00021515671687666327,0.00027577896253205836,0.19046780467033386,-0.24212318658828735,-9.868215560913086,0,0,50.73200225830078,1,1,196,196
710.58287100,710582871,0,-0.0002532638900447637,0.0003537573211360723,0.0005140998982824385,0.19052070379257202,-0.24220211803913116,-9.868294715881348,0,0,50.73200225830078,1,1,196,196
710.58789900,710587899,0,-0.0004560910747386515,0.0009521291358396411,0.0007724487804807723,0.1906718760728836,-0.24242432415485382,-9.868382453918457,0,0,50.73200225830078,1,1,196,196
710.59340300,710593403,0,-0.0005689085810445249,0.00118290598038584,0.0007786066271364689,0.19093108177185059,-0.24275244772434235,-9.868435859680176,0,0,50.73200225830078,1,1,196,196
710.59833800,710598338,0,-0.00061640894273296,0.0012450753711163998,0.0007683845469728112,0.1912434697151184,-0.24309653043746948,-9.868457794189453,0,0,50.73200225830078,1,1,196,196
710.60288200,710602882,0,-0.000623307132627815,0.0012143893400207162,0.0009630278218537569,0.19155269861221313,-0.24341091513633728,-9.868473052978516,0,0,50.73200225830078,1,1,196,196
710.60820200,710608202,0,-0.000714776455424726,0.0009347354061901569,0.001059061149135232,0.1918712556362152,-0.24371786415576935,-9.868494987487793,0,0,50.73200225830078,1,1,196,196
710.61323600,710613236,0,-0.0009339003008790314,0.0005914277862757444,0.0008783173398114741,0.1922452747821808,-0.24404433369636536,-9.868545532226562,0,0,50.73200225830078,1,1,196,196
710.61848100,710618481,0,-0.0010126817505806684,0.0003909330698661506,0.0006537399021908641,0.19266670942306519,-0.24438638985157013,-9.868627548217773,0,0,50.73200225830078,1,1,196,196
710.62403500,710624035,0,-0.0007981577655300498,0.00019298862025607377,0.00039996305713430047,0.19307918846607208,-0.24471941590309143,-9.868714332580566,0,0,50.73200225830078,1,1,196,196
710.62827900,710628279,0,-0.0004859157488681376,-1.725989204715006e-05,2.441824835841544e-05,0.19345325231552124,-0.24502141773700714,-9.868779182434082,0,0,50.73200225830078,1,1,196,196
710.63343100,710633431,0,-0.0003994022263213992,-8.647411596029997e-05,-0.00044037579209543765,0.19381175935268402,-0.2452799528837204,-9.868782043457031,0,0,50.73200225830078,1,1,196,196
710.63895100,710638951,0,-0.0007538558566011488,-2.1946880224277265e-05,-0.0008558968547731638,0.1941961795091629,-0.2454630732536316,-9.868700981140137,0,0,50.73200225830078,1,1,196,196
710.64380100,710643801,0,-0.0013015758013352752,4.105389962205663e-05,-0.0012710380833595991,0.19462256133556366,-0.2455427050590515,-9.868559837341309,0,0,50.73200225830078,1,1,196,196
710.64907100,710649071,0,-0.0015699852956458926,3.8198955735424533e-05,-0.0016565682599321008,0.19506299495697021,-0.24556420743465424,-9.86837100982666,0,0,50.73200225830078,1,1,196,196
710.65374900,710653749,0,-0.0015991927357390523,0.000109777734905947,-0.0016357034910470247,0.19547146558761597,-0.24560348689556122,-9.868142127990723,0,0,50.73200225830078,1,1,196,196
710.65878300,710658783,0,-0.001613668049685657,0.00020276580471545458,-0.0012667865958064795,0.19582799077033997,-0.24566544592380524,-9.867892265319824,0,0,50.73200225830078,1,1,196,196
710.66399000,710663990,0,-0.0016182418912649155,2.425655475235544e-05,-0.0009098610025830567,0.19613592326641083,-0.24568437039852142,-9.867631912231445,0,0,50.73200225830078,1,1,196,196
710.66928300,710669283,0,-0.0016171801835298538,-0.0003013404493685812,-0.0007872520363889635,0.19638462364673615,-0.2455947995185852,-9.867399215698242,0,0,50.73200225830078,1,1,196,196
710.67372300,710673723,0,-0.0014556334353983402,-0.0004221568233333528,-0.0008535141823813319,0.19655084609985352,-0.24538762867450714,-9.867255210876465,0,0,50.73200225830078,1,1,196,196
710.67898000,710678980,0,-0.0011966860620304942,-0.00036856901715509593,-0.0009442477021366358,0.1966283619403839,-0.24510447680950165,-9.86719799041748,0,0,50.73200225830078,1,1,196,196
710.68429300,710684293,0,-0.0010477442992851138,-0.0002949156332761049,-0.001028730534017086,0.19664697349071503,-0.24479685723781586,-9.86717700958252,0,0,50.73200225830078,1,1,196,196
710.68941100,710689411,0,-0.0008228151127696037,-0.00017357287288177758,-0.0010408521629869938,0.1966547667980194,-0.24451115727424622,-9.867168426513672,0,0,50.73200225830078,1,1,196,196
710.69456200,710694562,0,-0.0006060603773221374,-5.344044620869681e-05,-0.0008053321507759392,0.19667375087738037,-0.24426066875457764,-9.867169380187988,0,0,50.73200225830078,1,1,196,196
710.69924400,710699244,0,-0.0005940787959843874,-1.0310908692190424e-05,-0.00028739453409798443,0.1966887265443802,-0.24400821328163147,-9.867173194885254,0,0,50.73200225830078,1,1,196,196
710.70429300,710704293,0,-0.00041896989569067955,4.0164934034692124e-05,0.00021038918930571526,0.1966859996318817,-0.24371354281902313,-9.86713695526123,0,0,50.73200225830078,1,1,196,196
710.70948500,710709485,0,-4.254496889188886e-05,0.0001895039458759129,0.00044210045598447323,0.1966954469680786,-0.24338282644748688,-9.866995811462402,0,0,50.73200225830078,1,1,196,196
710.71479200,710714792,0,0.0002502931747585535,0.00035654703970067203,0.0005008595180697739,0.19676461815834045,-0.2430497258901596,-9.86673355102539,0,0,50.73200225830078,1,1,196,196
710.71982500,710719825,0,0.0005506176385097206,0.0003936800640076399,0.0005180293810553849,0.19689388573169708,-0.24273742735385895,-9.866376876831055,0,0,50.73200225830078,1,1,196,196
710.82822400,710828224,0,-0.0002857474610209465,0.00046355233644135296,-0.00026536910445429385,0.19641123712062836,-0.24444997310638428,-9.863076210021973,0,0,50.724002838134766,1,1,196,196
710.83075100,710830751,0,-0.00044698812416754663,0.00043950608232989907,-0.0001582266268087551,0.1962515115737915,-0.24448540806770325,-9.862753868103027,0,0,50.724002838134766,1,1,196,196
710.83598700,710835987,0,-0.000699738273397088,0.00042159829172305763,-0.00019827029609587044,0.19606702029705048,-0.24445953965187073,-9.86248779296875,0,0,50.724002838134766,1,1,196,196
710.84131400,710841314,0,-0.0006828910554759204,0.0005154999089427292,-0.0004587233124766499,0.19586847722530365,-0.2443789839744568,-9.862286567687988,0,0,50.724002838134766,1,1,196,196
710.84575500,710845755,0,-0.0005932290805503726,0.0005389193538576365,-0.000667646701913327,0.19565849006175995,-0.24425694346427917,-9.862151145935059,0,0,50.724002838134766,1,1,196,196
710.85092400,710850924,0,-0.000381172401830554,0.00041869597043842077,-0.0005472953780554235,0.19541853666305542,-0.24413344264030457,-9.86208438873291,0,0,50.724002838134766,1,1,196,196
710.85631600,710856316,0,5.8098998124478385e-05,0.0002536149404477328,-0.0002934166113846004,0.19513915479183197,-0.2440723329782486,-9.86205005645752,0,0,50.724002838134766,1,1,196,196
710.86133900,710861339,0,0.00025572709273546934,0.0001524143444839865,-0.0001839472388383001,0.19484709203243256,-0.2440953403711319,-9.861995697021484,0,0,50.724002838134766,1,1,196,196
710.86648200,710866482,0,0.0002461479161866009,0.0002070841146633029,-0.00016512513684574515,0.19456641376018524,-0.24415156245231628,-9.861917495727539,0,0,50.724002838134766,1,1,196,196
710.87125300,710871253,0,0.0002447943261358887,0.00027275001048110425,-0.0001933366002049297,0.19427655637264252,-0.24418818950653076,-9.861845016479492,0,0,50.724002838134766,1,1,196,196
710.87628500,710876285,0,8.96359997568652e-05,0.00012001385039184242,-0.00023844173119869083,0.19395221769809723,-0.24420009553432465,-9.861799240112305,0,0,50.724002838134766,1,1,196,196
710.88163700,710881637,0,-0.00016099424101412296,-0.00015953787078615278,-0.00012469622015487403,0.1935988962650299,-0.24420379102230072,-9.861793518066406,0,0,50.724002838134766,1,1,196,196
710.88681200,710886812,0,-0.0003023420867975801,-0.00023372874420601875,9.512181713944301e-05,0.19324268400669098,-0.24421408772468567,-9.861814498901367,0,0,50.724002838134766,1,1,196,196
710.89158800,710891588,0,-0.0003635220928117633,-8.979116682894528e-05,0.00021681576617993414,0.1929069459438324,-0.2442302703857422,-9.861818313598633,0,0,50.724002838134766,1,1,196,196
710.89671600,710896716,0,-0.00026896403869614005,2.4568649678258225e-05,0.00021489255595952272,0.19259847700595856,-0.2442096471786499,-9.8617582321167,0,0,50.724002838134766,1,1,196,196
710.90178900,710901789,0,-1.3358643627725542e-05,4.951318624080159e-05,0.00015428528422489762,0.1923232078552246,-0.24410726130008698,-9.861626625061035,0,0,50.724002838134766,1,1,196,196
710.90682300,710906823,0,0.00011064496356993914,2.680205216165632e-05,0.0001302917517023161,0.19210022687911987,-0.2439393252134323,-9.86147403717041,0,0,50.724002838134766,1,1,196,196
710.91198500,710911985,0,0.00014724649372510612,3.847981133731082e-05,0.0003918748698197305,0.1919393390417099,-0.24376259744167328,-9.861371994018555,0,0,50.724002838134766,1,1,196,196
710.91674300,710916743,0,8.218146103899926e-05,6.427925109164789e-05,0.00068550935247913,0.19182096421718597,-0.24363501369953156,-9.861359596252441,0,0,50.724002838134766,1,1,196,196
710.92179600,710921796,0,-0.0003345980367157608,-6.62785823806189e-05,0.0004623819550033659,0.19172734022140503,-0.24358709156513214,-9.861419677734375,0,0,50.724002838134766,1,1,196,196
710.92696600,710926966,0,-0.0007843383937142789,-0.0002457252994645387,0.0001944728137459606,0.19167739152908325,-0.24359674751758575,-9.861510276794434,0,0,50.724002838134766,1,1,196,196
710.93239100,710932391,0,-0.0010555530898272991,-0.00030770926969125867,0.00032682056189514697,0.1917087733745575,-0.24364393949508667,-9.861590385437012,0,0,50.724002838134766,1,1,196,196
710.93735700,710937357,0,-0.0013985035475343466,-0.00035397917963564396,0.0005189036019146442,0.1918337345123291,-0.24377334117889404,-9.861649513244629,0,0,50.724002838134766,1,1,196,196
710.94191300,710941913,0,-0.001549905864521861,-0.0003835907264146954,0.0005435398779809475,0.19202770292758942,-0.24401052296161652,-9.861686706542969,0,0,50.724002838134766,1,1,196,196
710.94751000,710947510,0,-0.0013691753847524524,-0.0003467194037511945,0.0003779628314077854,0.19226135313510895,-0.24429386854171753,-9.861734390258789,0,0,50.724002838134766,1,1,196,196
710.95234500,710952345,0,-0.0011708274250850081,-2.203643998655025e-05,0.0001542457757750526,0.19252213835716248,-0.24456091225147247,-9.861846923828125,0,0,50.724002838134766,1,1,196,196
710.95746800,710957468,0,-0.0008452836773358285,0.0006392925279214978,-5.3009014663985e-05,0.19280566275119781,-0.24479080736637115,-9.862009048461914,0,0,50.724002838134766,1,1,196,196
710.96233800,710962338,0,-0.000365341838914901,0.001067351084202528,-0.000264079513726756,0.19310790300369263,-0.24497216939926147,-9.862131118774414,0,0,50.724002838134766,1,1,196,196
710.96729000,710967290,0,-1.1875320524268318e-05,0.0009306284482590854,-0.0002772299339994788,0.19342514872550964,-0.24510201811790466,-9.862174034118652,0,0,50.724002838134766,1,1,196,196
710.97251000,710972510,0,0.0001585930585861206,0.0006037583225406706,1.7456790374126285e-05,0.19373992085456848,-0.24517101049423218,-9.862181663513184,0,0,50.724002838134766,1,1,196,196
710.97791300,710977913,0,4.991084279026836e-05,0.0005666815559379756,0.00024294939066749066,0.19400174915790558,-0.24514317512512207,-9.862198829650879,0,0,50.724002838134766,1,1,196,196
710.98287800,710982878,0,-0.0002759921771939844,0.000780735572334379,0.0002327856345800683,0.19415871798992157,-0.2449939250946045,-9.86225414276123,0,0,50.724002838134766,1,1,196,196
710.98740700,710987407,0,-0.0004832313279621303,0.0008617792627774179,0.00016470253467559814,0.19420692324638367,-0.24475790560245514,-9.862354278564453,0,0,50.724002838134766,1,1,196,196
710.99290800,710992908,0,-0.0004874546139035374,0.0007052409346215427,-2.292563658556901e-05,0.19416454434394836,-0.24451547861099243,-9.86247444152832,0,0,50.724002838134766,1,1,196,196
710.99784500,710997845,0,-0.0003938415611628443,0.0006241449154913425,-0.00028323527658358216,0.19402733445167542,-0.24431075155735016,-9.862577438354492,0,0,50.724002838134766,1,1,196,196
711.00302800,711003028,0,-0.0002193272957811132,0.0007531351875513792,-0.0005267940578050911,0.19378510117530823,-0.24411992728710175,-9.862643241882324,0,0,50.724002838134766,1,1,196,196
711.00835100,711008351,0,-4.0669845475349575e-05,0.0008516609668731689,-0.0007668514153920114,0.19345028698444366,-0.24394968152046204,-9.86267375946045,0,0,50.75600051879883,1,1,196,196
711.01279800,711012798,0,0.00015730400627944618,0.0008108117035590112,-0.0008524275617673993,0.19306260347366333,-0.24386176466941833,-9.862722396850586,0,0,50.75600051879883,1,1,196,196
711.01793400,711017934,0,0.0005360266077332199,0.000764114607591182,-0.0007419341709464788,0.1926717460155487,-0.24387599527835846,-9.862836837768555,0,0,50.75600051879883,1,1,196,196
711.02340300,711023403,0,0.000820881046820432,0.0007765256450511515,-0.0006122768390923738,0.19231536984443665,-0.24395360052585602,-9.862960815429688,0,0,50.75600051879883,1,1,196,196
711.02836800,711028368,0,0.0006885479670017958,0.0007093891617842019,-0.0004991037421859801,0.19199888408184052,-0.2440595030784607,-9.863000869750977,0,0,50.75600051879883,1,1,196,196
711.03290300,711032903,0,0.00038305213092826307,0.000459519011201337,-0.00020551738271024078,0.19169895350933075,-0.2442040890455246,-9.862931251525879,0,0,50.75600051879883,1,1,196,196
711.03830300,711038303,0,0.0001605679135536775,0.00017175203538499773,0.0004322169115766883,0.19141560792922974,-0.24444535374641418,-9.862777709960938,0,0,50.75600051879883,1,1,196,196
711.04338500,711043385,0,0.00012707967835012823,2.8120968636358157e-05,0.0012136040022596717,0.191190704703331,-0.244820699095726,-9.862598419189453,0,0,50.75600051879883,1,1,196,196
711.04850200,711048502,0,0.0004011865530628711,8.709729445399716e-05,0.001593098510056734,0.1910683512687683,-0.24529285728931427,-9.86245346069336,0,0,50.75600051879883,1,1,196,196
711.05381400,711053814,0,0.0007680560229346156,0.0001258815755136311,0.0012841803254559636,0.19106647372245789,-0.24580691754817963,-9.862359046936035,0,0,50.75600051879883,1,1,196,196
711.05826700,711058267,0,0.0010013615246862173,-1.0654381185304374e-05,0.0004967585555277765,0.19116543233394623,-0.24632753431797028,-9.862327575683594,0,0,50.75600051879883,1,1,196,196
711.06344800,711063448,0,0.0009140419424511492,-9.862249135039747e-05,-0.0003635744797065854,0.19132603704929352,-0.2468159943819046,-9.862385749816895,0,0,50.75600051879883,1,1,196,196
711.06883900,711068839,0,0.0003747903974726796,-9.332098852610216e-05,-0.0008252699044533074,0.1915339231491089,-0.24725183844566345,-9.862545013427734,0,0,50.75600051879883,1,1,196,196
711.07386900,711073869,0,-0.00022108631674200296,-4.450358392205089e-05,-0.0006891871453262866,0.1917828917503357,-0.24764502048492432,-9.862772941589355,0,0,50.75600051879883,1,1,196,196
711.07900900,711079009,0,-0.0006208446575328708,6.811930506955832e-05,-0.00029439665377140045,0.19204619526863098,-0.24799081683158875,-9.863025665283203,0,0,50.75600051879883,1,1,196,196
711.08391300,711083913,0,-0.0009531775140203536,0.00013628900342155248,-6.473818939412013e-05,0.19232077896595,-0.24822917580604553,-9.863292694091797,0,0,50.75600051879883,1,1,196,196
711.08893500,711088935,0,-0.0010822380427271128,0.00027507293270900846,9.327098814537749e-05,0.19264580309391022,-0.24828612804412842,-9.863585472106934,0,0,50.75600051879883,1,1,196,196
711.09397200,711093972,0,-0.0009833171498030424,0.0006834886153228581,0.00039646870573051274,0.1930420696735382,-0.24816644191741943,-9.8638916015625,0,0,50.75600051879883,1,1,196,196
711.09933400,711099334,0,-0.0009530315874144435,0.0009292973554693162,0.0006564106442965567,0.1934787929058075,-0.24793830513954163,-9.864188194274902,0,0,50.75600051879883,1,1,196,196
711.10378200,711103782,0,-0.0009088615770451725,0.0006801291019655764,0.0007389445090666413,0.19390718638896942,-0.24762845039367676,-9.864473342895508,0,0,50.75600051879883,1,1,196,196
711.10893000,711108930,0,-0.0006034548860043287,0.0003490702947601676,0.0005623883916996419,0.19426971673965454,-0.24719135463237762,-9.86473274230957,0,0,50.75600051879883,1,1,196,196
711.11434000,711114340,0,-0.0001282903685932979,9.702086390461773e-05,8.628387149656191e-05,0.1945221871137619,-0.24658697843551636,-9.86491870880127,0,0,50.75600051879883,1,1,196,196
711.11936400,711119364,0,0.0003340174735058099,-1.4765689229534473e-05,-0.00028078947798348963,0.19469572603702545,-0.24586442112922668,-9.865011215209961,0,0,50.75600051879883,1,1,196,196
711.12454200,711124542,0,0.0006460901349782944,0.00022590973821934313,-0.0005231762770563364,0.19487449526786804,-0.2451312392950058,-9.865026473999023,0,0,50.75600051879883,1,1,196,196
711.12935400,711129354,0,0.0006666631670668721,0.0005873964983038604,-0.0008687241352163255,0.19509190320968628,-0.24444176256656647,-9.864977836608887,0,0,50.75600051879883,1,1,196,196
711.13431700,711134317,0,0.0004912213771604002,0.0008297854219563305,-0.000984557787887752,0.19530761241912842,-0.24380241334438324,-9.864880561828613,0,0,50.75600051879883,1,1,196,196
711.13946300,711139463,0,0.00020415081235114485,0.0008620000444352627,-0.0008097242098301649,0.19548560678958893,-0.24326756596565247,-9.864752769470215,0,0,50.75600051879883,1,1,196,196
711.14506600,711145066,0,-0.0001848209067247808,0.0006294199265539646,-0.0005832517053931952,0.19564278423786163,-0.2428993582725525,-9.864620208740234,0,0,50.75600051879883,1,1,196,196
711.14930100,711149301,0,-0.00038755653076805174,0.0005796526675112545,-0.00037689259625039995,0.19582238793373108,-0.24267533421516418,-9.86450481414795,0,0,50.75600051879883,1,1,196,196
711.15444500,711154445,0,-0.0004612159391399473,0.0009430805803276598,-0.00011561758583411574,0.1960279792547226,-0.24252578616142273,-9.864384651184082,0,0,50.75600051879883,1,1,196,196
711.15982400,711159824,0,-0.0006693060859106481,0.0012213930021971464,0.00022556235489901155,0.19621369242668152,-0.24242272973060608,-9.864218711853027,0,0,50.75600051879883,1,1,196,196
711.16489900,711164899,0,-0.0007424733485095203,0.0012459963327273726,0.0004321151354815811,0.19634555280208588,-0.24238990247249603,-9.864013671875,0,0,50.75600051879883,1,1,196,196
711.17004000,711170040,0,-0.0005260350299067795,0.0010918441694229841,0.00042816056520678103,0.19642844796180725,-0.24246203899383545,-9.863801956176758,0,0,50.75600051879883,1,1,196,196
711.17471300,711174713,0,-0.00037202759995125234,0.0007774319965392351,0.00042974247480742633,0.19647404551506042,-0.24266266822814941,-9.863607406616211,0,0,50.75600051879883,1,1,196,196
711.17976800,711179768,0,-0.00022563822858501226,0.000553959864191711,0.0005389919970184565,0.1964789777994156,-0.2429770678281784,-9.863429069519043,0,0,50.75600051879883,1,1,196,196
711.18501200,711185012,0,4.616425940184854e-05,0.0003654645406641066,0.00046741010737605393,0.19644053280353546,-0.24334952235221863,-9.863237380981445,0,0,50.75600051879883,1,1,196,196
711.19046500,711190465,0,8.133172741509043e-06,2.0287443476263434e-05,7.57756697566947e-06,0.19636347889900208,-0.24372977018356323,-9.863035202026367,0,0,50.75600051879883,1,1,196,196
711.19540500,711195405,0,-0.00032841836218722165,-0.00017348858818877488,-0.0004941588849760592,0.19623133540153503,-0.24410080909729004,-9.862909317016602,0,0,50.75600051879883,1,1,196,196
711.19996100,711199961,0,-0.0005830451846122742,0.00011206829367438331,-0.0008113600197248161,0.19602268934249878,-0.24445444345474243,-9.862929344177246,0,0,50.75600051879883,1,1,196,196
711.20545100,711205451,0,-0.0008535091765224934,0.0007808501832187176,-0.0009776613442227244,0.1957608312368393,-0.2447764277458191,-9.863064765930176,0,0,50.75600051879883,1,1,196,196
711.21035500,711210355,0,-0.0011833889875561,0.0014478133525699377,-0.0007756375125609338,0.19549480080604553,-0.2450612634420395,-9.86324691772461,0,0,50.75600051879883,1,1,196,196
711.27116100,711271161,0,-0.0012657514307647943,0.0017713407287374139,-0.0003849118365906179,0.1952475905418396,-0.24531815946102142,-9.863310813903809,0,0,50.75600051879883,1,1,196,196
711.28138400,711281384,0,-0.0010555597255006433,0.0017614591633901,-8.662795880809426e-05,0.1950116604566574,-0.24556951224803925,-9.862902641296387,0,0,50.75600051879883,1,1,196,196
711.29136900,711291369,0,-0.0007998195942491293,0.0015942287864163518,0.00026650194195099175,0.19479422271251678,-0.24583546817302704,-9.861860275268555,0,0,50.75600051879883,1,1,196,196
711.30146800,711301468,0,-0.0005202234024181962,0.0013322203885763884,0.0005760033964179456,0.19462253153324127,-0.2461128681898117,-9.860506057739258,0,0,50.75600051879883,1,1,196,196
711.31178200,711311782,0,-0.0001791858085198328,0.0009187384857796133,0.00059278286062181,0.19449983537197113,-0.24639195203781128,-9.859245300292969,0,0,50.75600051879883,1,1,196,196
711.32182000,711321820,0,1.843088466557674e-05,0.0004093162133358419,0.0003610461426433176,0.19440066814422607,-0.24668489396572113,-9.858193397521973,0,0,50.75600051879883,1,1,196,196
711.33142000,711331420,0,0.0001611083425814286,6.0130500060040504e-05,0.00010906331590376794,0.19430221617221832,-0.2469954788684845,-9.857300758361816,0,0,50.75600051879883,1,1,196,196
711.34178600,711341786,0,0.00035465534892864525,-3.810503039858304e-05,0.000107908395875711,0.19419792294502258,-0.24728509783744812,-9.856521606445312,0,0,50.75600051879883,1,1,196,196
711.35180200,711351802,0,0.00032356244628317654,2.990468829011661e-06,0.00033216277370229363,0.19408205151557922,-0.2475052922964096,-9.855839729309082,0,0,50.71000289916992,1,1,196,196
711.36201600,711362016,0,8.595018880441785e-05,0.0001551990571897477,0.0004090999427717179,0.19393549859523773,-0.24764811992645264,-9.855242729187012,0,0,50.71000289916992,1,1,196,196
711.37231300,711372313,0,-9.80126642389223e-05,0.0003303972480352968,0.0004004338406957686,0.1937553882598877,-0.24774883687496185,-9.85470962524414,0,0,50.71000289916992,1,1,196,196
711.38237700,711382377,0,-0.00011462673137430102,0.0004292656958568841,0.0005632503307424486,0.19356723129749298,-0.24783924221992493,-9.854231834411621,0,0,50.71000289916992,1,1,196,196
711.39259900,711392599,0,5.733919169870205e-05,0.0004721118020825088,0.0006704682018607855,0.1933799833059311,-0.24794088304042816,-9.853805541992188,0,0,50.71000289916992,1,1,196,196
711.40316900,711403169,0,0.00023273380065802485,0.000532384729012847,0.0006245827535167336,0.19318066537380219,-0.24806596338748932,-9.85342788696289,0,0,50.71000289916992,1,1,196,196
711.41253100,711412531,0,0.000217078544665128,0.0005363972741179168,0.0006199537310749292,0.19297869503498077,-0.24819029867649078,-9.85310173034668,0,0,50.71000289916992,1,1,196,196
711.42247800,711422478,0,0.00016590292216278613,0.0003547324740793556,0.0006359524559229612,0.1927965134382248,-0.24829928576946259,-9.852839469909668,0,0,50.71000289916992,1,1,196,196
711.43297200,711432972,0,0.0002132110676029697,0.0002782789524644613,0.0006059757433831692,0.19261910021305084,-0.24841484427452087,-9.852655410766602,0,0,50.71000289916992,1,1,196,196
711.44287800,711442878,0,0.0001928842393681407,0.000425217323936522,0.0005599600845016539,0.19241903722286224,-0.248535618185997,-9.852585792541504,0,0,50.71000289916992,1,1,196,196
711.45312600,711453126,0,-1.3741437214775942e-05,0.0005971669452264905,0.0005680483882315457,0.19220687448978424,-0.24862541258335114,-9.852653503417969,0,0,50.71000289916992,1,1,196,196
711.46338700,711463387,0,-0.00021585167269222438,0.0007470627315342426,0.0006003881571814418,0.19201308488845825,-0.24865898489952087,-9.852821350097656,0,0,50.71000289916992,1,1,196,196
711.47348500,711473485,0,-0.00032316811848431826,0.0008041106048040092,0.0005325847887434065,0.19185087084770203,-0.24863505363464355,-9.85303020477295,0,0,50.71000289916992,1,1,196,196
711.48363100,711483631,0,-0.0005219720769673586,0.0007528465357609093,0.0003776740049943328,0.19170384109020233,-0.2485528141260147,-9.853254318237305,0,0,50.71000289916992,1,1,196,196
711.49416000,711494160,0,-0.0006725063431076705,0.0006599687621928751,0.00021177790767978877,0.19155731797218323,-0.24840489029884338,-9.853496551513672,0,0,50.71000289916992,1,1,196,196
711.50344800,711503448,0,-0.0006122055929154158,0.0006709102308377624,0.00017877522623166442,0.19141905009746552,-0.24819901585578918,-9.853761672973633,0,0,50.71000289916992,1,1,196,196
711.51365700,711513657,0,-0.000568427552934736,0.0007292929221875966,0.00037379824789240956,0.19129598140716553,-0.24797050654888153,-9.854037284851074,0,0,50.71000289916992,1,1,196,196
711.52400800,711524008,0,-0.0005412015598267317,0.0006407948094420135,0.0005338698974810541,0.19118724763393402,-0.2477719932794571,-9.854321479797363,0,0,50.71000289916992,1,1,196,196
711.53405100,711534051,0,-0.00042193318950012326,0.0004996180068701506,0.0003822488069999963,0.19109195470809937,-0.24764345586299896,-9.854625701904297,0,0,50.71000289916992,1,1,196,196
711.54419700,711544197,0,-0.0003349405596964061,0.00030852254712954164,5.9017271269112825e-05,0.1910092681646347,-0.2475922852754593,-9.854947090148926,0,0,50.71000289916992,1,1,196,196
711.55478100,711554781,0,-0.00028057274175807834,0.00013136632333043963,-0.00012428598711267114,0.19093838334083557,-0.24761062860488892,-9.85525894165039,0,0,50.71000289916992,1,1,196,196
711.56458600,711564586,0,-0.00030521221924573183,0.00010123928223038092,-4.6479279262712225e-05,0.19087839126586914,-0.24768409132957458,-9.8555269241333,0,0,50.71000289916992,1,1,196,196
711.57482900,711574829,0,-0.0005733989528380334,4.198570240987465e-05,0.00019336675177328289,0.19082856178283691,-0.2477714717388153,-9.855717658996582,0,0,50.71000289916992,1,1,196,196
711.58461500,711584615,0,-0.0009049170184880495,-1.9466757294139825e-05,0.0003578689938876778,0.19078809022903442,-0.2478218525648117,-9.85583209991455,0,0,50.71000289916992,1,1,196,196
711.59458800,711594588,0,-0.0010431320406496525,8.818539936328307e-05,0.0003485053312033415,0.19075623154640198,-0.24781782925128937,-9.855911254882812,0,0,50.71000289916992,1,1,196,196
711.60469000,711604690,0,-0.0010616538347676396,0.000308014452457428,0.0003105876676272601,0.19073225557804108,-0.2477651685476303,-9.856016159057617,0,0,50.71000289916992,1,1,196,196
711.61526400,711615264,0,-0.0010719908168539405,0.0004326339403633028,0.00016119025531224906,0.1907084882259369,-0.2476692795753479,-9.856163024902344,0,0,50.71000289916992,1,1,196,196
711.62507200,711625072,0,-0.0009710376616567373,0.0003291151951998472,-0.00011726291268132627,0.19067108631134033,-0.24754221737384796,-9.856313705444336,0,0,50.71000289916992,1,1,196,196
711.63527800,711635278,0,-0.0007315392722375691,0.00018973088299389929,-0.0001916428591357544,0.19062864780426025,-0.24740907549858093,-9.856422424316406,0,0,50.71000289916992,1,1,196,196
711.64564400,711645644,0,-0.00047320628073066473,0.00016610929742455482,-0.00010113968164660037,0.19060997664928436,-0.2472921758890152,-9.856487274169922,0,0,50.71000289916992,1,1,196,196
711.65572200,711655722,0,-0.0002569613279774785,0.00020247056090738624,-5.508791218744591e-05,0.19061966240406036,-0.24719053506851196,-9.856527328491211,0,0,50.71000289916992,1,1,196,196
711.66584600,711665846,0,-0.00026159262051805854,0.0003129685064777732,6.595291779376566e-05,0.1906336545944214,-0.24708214402198792,-9.856557846069336,0,0,50.71000289916992,1,1,196,196
711.67555400,711675554,0,-0.0005288454703986645,0.0004370373208075762,0.000251554447459057,0.19064445793628693,-0.24695438146591187,-9.856600761413574,0,0,50.71000289916992,1,1,196,196
711.68560700,711685607,0,-0.0007633930072188377,0.0004903872613795102,0.00027329649310559034,0.19067329168319702,-0.2468169927597046,-9.85665512084961,0,0,50.71000289916992,1,1,196,196
711.69595200,711695952,0,-0.0008832628955133259,0.00044672979856841266,5.444414637167938e-05,0.19073212146759033,-0.24667879939079285,-9.856677055358887,0,0,50.71000289916992,1,1,196,196
711.70618900,711706189,0,-0.000924634572584182,0.0002073531213682145,-0.0002887524024117738,0.19079641997814178,-0.24654768407344818,-9.856648445129395,0,0,50.71000289916992,1,1,196,196
711.71620800,711716208,0,-0.0007623156416229904,-7.819997699698433e-05,-0.0006234911852516234,0.19081632792949677,-0.2464306652545929,-9.856611251831055,0,0,50.71000289916992,1,1,196,196
711.72635700,711726357,0,-0.0003767702146433294,-0.00017134344670921564,-0.0008879918023012578,0.19077539443969727,-0.2463129460811615,-9.856606483459473,0,0,50.71000289916992,1,1,196,196
711.73687800,711736878,0,9.18561709113419e-05,-0.00015413365326821804,-0.0011192932724952698,0.1907152235507965,-0.24617432057857513,-9.856632232666016,0,0,50.71000289916992,1,1,196,196
711.74676600,711746766,0,0.0004021694476250559,-3.493276744848117e-05,-0.0012889906065538526,0.1906871497631073,-0.24601078033447266,-9.856650352478027,0,0,50.71000289916992,1,1,196,196
711.75630900,711756309,0,0.00041747133946046233,0.0002674293064046651,-0.0012903596507385373,0.1907089203596115,-0.2458259016275406,-9.8566312789917,0,0,50.71000289916992,1,1,196,196
711.76665700,711766657,0,0.00023612295626662672,0.000597511709202081,-0.0012110302923247218,0.19076119363307953,-0.24562303721904755,-9.856588363647461,0,0,50.71000289916992,1,1,196,196
711.88164800,711881648,0,-0.00021096326236147434,0.0007522118394263089,-0.00018200709018856287,0.19168904423713684,-0.24401172995567322,-9.857203483581543,0,0,50.68600082397461,1,1,196,196
711.88828300,711888283,0,-2.5892562916851602e-05,0.0006552578415721655,-8.086192246992141e-05,0.1917407512664795,-0.2440563291311264,-9.8572998046875,0,0,50.68600082397461,1,1,196,196
711.89865500,711898655,0,0.0003302257973700762,0.00040184560930356383,-3.373547951923683e-05,0.19177183508872986,-0.244111105799675,-9.857376098632812,0,0,50.68600082397461,1,1,196,196
711.90881300,711908813,0,0.000750313454773277,0.00017645909974817187,-7.440635090461001e-05,0.19179128110408783,-0.2441466599702835,-9.857470512390137,0,0,50.68600082397461,1,1,196,196
711.91860900,711918609,0,0.000749217695556581,0.0001670376950642094,-0.00014898391964379698,0.19179320335388184,-0.24415087699890137,-9.85757064819336,0,0,50.68600082397461,1,1,196,196
711.92882000,711928820,0,0.00033642665948718786,0.00026266774511896074,-6.701127858832479e-05,0.19179341197013855,-0.24414095282554626,-9.857629776000977,0,0,50.68600082397461,1,1,196,196
711.93917100,711939171,0,-3.343781645526178e-05,0.0003369124315213412,0.00023155308736022562,0.19181305170059204,-0.244160458445549,-9.857621192932129,0,0,50.68600082397461,1,1,196,196
711.94858700,711948587,0,-0.0003623161173891276,0.0002809216966852546,0.0006272295140661299,0.1918569803237915,-0.24424110352993011,-9.857582092285156,0,0,50.68600082397461,1,1,196,196
711.95881700,711958817,0,-0.000711908214725554,0.00017377693438902497,0.0009383907890878618,0.1919153779745102,-0.2443620264530182,-9.857577323913574,0,0,50.68600082397461,1,1,196,196
711.96916900,711969169,0,-0.0008969280170276761,0.0003267170104663819,0.001094968756660819,0.19195841252803802,-0.2444763034582138,-9.857645034790039,0,0,50.68600082397461,1,1,196,196
711.97919600,711979196,0,-0.0009667259873822331,0.0006263484247028828,0.0011467222357168794,0.19194549322128296,-0.2445630431175232,-9.857770919799805,0,0,50.68600082397461,1,1,196,196
711.98946700,711989467,0,-0.0009150002151727676,0.0007788122165948153,0.0010328209027647972,0.19187557697296143,-0.2446315586566925,-9.85792064666748,0,0,50.68600082397461,1,1,196,196
711.99964500,711999645,0,-0.0006574370199814439,0.0007781409076415002,0.0007569591398350894,0.19180405139923096,-0.2446834295988083,-9.858068466186523,0,0,50.68600082397461,1,1,196,196
712.00976700,712009767,0,-0.0004051268333569169,0.0006517667206935585,0.0005109337507747114,0.1917804330587387,-0.24469910562038422,-9.858206748962402,0,0,50.68600082397461,1,1,196,196
712.01989900,712019899,0,-0.00025789032224565744,0.0004376553697511554,0.0003278174845036119,0.19182078540325165,-0.24466830492019653,-9.85833740234375,0,0,50.68600082397461,1,1,196,196
712.02979400,712029794,0,-0.00013730757927987725,0.0002766327525023371,5.296919698594138e-05,0.19192515313625336,-0.24461007118225098,-9.858445167541504,0,0,50.68600082397461,1,1,196,196
712.03968400,712039684,0,-0.0001586412254255265,0.00022548688866663724,-0.00031669053714722395,0.1920582354068756,-0.24455560743808746,-9.858505249023438,0,0,50.68600082397461,1,1,196,196
712.04992100,712049921,0,-0.00029623130103573203,0.00018428715702611953,-0.0005532134091481566,0.19215326011180878,-0.24451883137226105,-9.858513832092285,0,0,50.68600082397461,1,1,196,196
712.06022400,712060224,0,-0.0002514893130864948,0.00015598726167809218,-0.0006266816635616124,0.19217176735401154,-0.2444910854101181,-9.858498573303223,0,0,50.68600082397461,1,1,196,196
712.07024600,712070246,0,-0.00012847686593886465,0.00019211492326576263,-0.0007130485610105097,0.192121684551239,-0.24447159469127655,-9.858482360839844,0,0,50.68600082397461,1,1,196,196
712.08040500,712080405,0,-0.00020306346414145082,0.00025188166182488203,-0.0007358311559073627,0.19202445447444916,-0.24448056519031525,-9.858464241027832,0,0,50.68600082397461,1,1,196,196
712.09087200,712090872,0,-0.00019931048154830933,0.000363791361451149,-0.0006710602319799364,0.1919136494398117,-0.24453593790531158,-9.85843276977539,0,0,50.68600082397461,1,1,196,196
712.10078900,712100789,0,-0.00015886891924310476,0.000531151657924056,-0.0006826001335866749,0.1918262392282486,-0.2446185201406479,-9.858373641967773,0,0,50.68600082397461,1,1,196,196
712.11100000,712111000,0,-0.0004249002959113568,0.0007445770897902548,-0.0006756517104804516,0.19176730513572693,-0.24467605352401733,-9.858284950256348,0,0,50.68600082397461,1,1,196,196
712.12097200,712120972,0,-0.0006794200744479895,0.0009378062095493078,-0.00045057368697598577,0.1917201727628708,-0.24468283355236053,-9.85818099975586,0,0,50.68600082397461,1,1,196,196
712.13077500,712130775,0,-0.0006674363976344466,0.000977837829850614,-0.00021845129958819598,0.19167694449424744,-0.24465815722942352,-9.858087539672852,0,0,50.68600082397461,1,1,196,196
712.14100500,712141005,0,-0.0005304869846440852,0.0009367552120238543,-0.00029220469878055155,0.19164440035820007,-0.24463343620300293,-9.858003616333008,0,0,50.68600082397461,1,1,196,196
712.15133200,712151332,0,-0.0004135790513828397,0.0009177079191431403,-0.00039218549500219524,0.1916356235742569,-0.24462279677391052,-9.857915878295898,0,0,50.68600082397461,1,1,196,196
712.16133200,712161332,0,-0.0004347013891674578,0.0007549532456323504,-0.0003269232402089983,0.19164815545082092,-0.24461087584495544,-9.857823371887207,0,0,50.68600082397461,1,1,196,196
712.17157900,712171579,0,-0.0005175975966267288,0.0003977183368988335,-0.00030094882822595537,0.19166569411754608,-0.24456284940242767,-9.857734680175781,0,0,50.68600082397461,1,1,196,196
712.18195500,712181955,0,-0.0005082811112515628,0.00012354143837001175,-0.00035155031946487725,0.19168762862682343,-0.24446187913417816,-9.85762882232666,0,0,50.68600082397461,1,1,196,196
712.19206300,712192063,0,-0.0004040801140945405,4.860524131800048e-05,-0.00037606555270031095,0.19173432886600494,-0.24432805180549622,-9.857474327087402,0,0,50.68600082397461,1,1,196,196
712.20153100,712201531,0,-0.00032781725167296827,0.0001363531337119639,-0.0003306011494714767,0.19180992245674133,-0.24417966604232788,-9.857268333435059,0,0,50.68600082397461,1,1,196,196
712.21190400,712211904,0,-0.00022731725766789168,0.0002844788832589984,-0.0003660263610072434,0.19188296794891357,-0.24401207268238068,-9.857040405273438,0,0,50.68600082397461,1,1,196,196
712.22207000,712222070,0,2.2891243133926764e-05,0.0002214901614934206,-0.0005384301766753197,0.1919253170490265,-0.24382127821445465,-9.856828689575195,0,0,50.68600082397461,1,1,196,196
712.23211200,712232112,0,0.00024248256522696465,-8.791537402430549e-05,-0.0006895209080539644,0.19193996489048004,-0.24363180994987488,-9.856674194335938,0,0,50.68600082397461,1,1,196,196
712.24239100,712242391,0,0.0002460166288074106,-0.0003485368797555566,-0.000800548936240375,0.19195067882537842,-0.24347959458827972,-9.856600761413574,0,0,50.68600082397461,1,1,196,196
712.25249800,712252498,0,0.00014561947318725288,-0.0003236394259147346,-0.0009758135420270264,0.1919788271188736,-0.24337561428546906,-9.85659122467041,0,0,50.68600082397461,1,1,196,196
712.26264800,712262648,0,-3.724941416294314e-05,-0.00011457686923677102,-0.0011997780529782176,0.19202236831188202,-0.24331538379192352,-9.856605529785156,0,0,50.68600082397461,1,1,196,196
712.27301900,712273019,0,-0.00027602730551734567,3.5801276681013405e-05,-0.001297385897487402,0.19205845892429352,-0.24328066408634186,-9.856612205505371,0,0,50.68600082397461,1,1,196,196
712.28303100,712283031,0,-0.0002836284111253917,0.00018106913194060326,-0.0010519800707697868,0.1920667290687561,-0.24323402345180511,-9.856612205505371,0,0,50.68600082397461,1,1,196,196
712.29272600,712292726,0,-0.00017926983127836138,0.00040050261304713786,-0.0006912126555107534,0.192050039768219,-0.24317696690559387,-9.856621742248535,0,0,50.68600082397461,1,1,195,196
712.30302500,712303025,0,-0.0002527245960664004,0.0006119778845459223,-0.0005573398666456342,0.1920320689678192,-0.24318085610866547,-9.856637001037598,0,0,50.68600082397461,1,1,195,196
712.31315400,712313154,0,-0.0003439450229052454,0.0007251625647768378,-0.0004530167207121849,0.1920410543680191,-0.24330921471118927,-9.85663890838623,0,0,50.68600082397461,1,1,195,196
712.32320900,712323209,0,-0.00047828195965848863,0.0006636656471528113,-0.00027810802566818893,0.1920950710773468,-0.24356216192245483,-9.856605529785156,0,0,50.68600082397461,1,1,195,196
712.33367200,712333672,0,-0.0007646564627066255,0.00042553216917440295,-0.00015673047164455056,0.19218909740447998,-0.24390418827533722,-9.856549263000488,0,0,50.68600082397461,1,1,195,196
712.34358500,712343585,0,-0.0009090395760722458,0.0002027616574196145,7.306917541427538e-05,0.19229735434055328,-0.24428893625736237,-9.856508255004883,0,0,50.68600082397461,1,1,195,196
712.35381500,712353815,0,-0.0008516910602338612,0.00013672112254425883,0.0004145634884480387,0.19240376353263855,-0.24466770887374878,-9.856487274169922,0,0,50.68600082397461,1,1,195,196
712.36408700,712364087,0,-0.0007619636016897857,5.329125269781798e-05,0.000583890185225755,0.1925288885831833,-0.24501097202301025,-9.85644245147705,0,0,50.68600082397461,1,1,195,196
712.37351700,712373517,0,-0.0006218422786332667,-0.00017995100643020123,0.0004794668057002127,0.1927119642496109,-0.24531345069408417,-9.856341361999512,0,0,50.698001861572266,1,1,195,196
712.48866800,712488668,0,-0.00043933402048423886,0.00013922066136728972,0.00022850336972624063,0.19382871687412262,-0.24643807113170624,-9.855080604553223,0,0,50.698001861572266,1,1,195,196
712.49530000,712495300,0,-0.0003374204388819635,-4.930420618620701e-05,0.0003632943844422698,0.19387903809547424,-0.2468780279159546,-9.855066299438477,0,0,50.698001861572266,1,1,195,196
712.50532400,712505324,0,-0.0001700978900771588,-0.00015446936595253646,0.0004966643755324185,0.19398027658462524,-0.24732606112957,-9.855091094970703,0,0,50.698001861572266,1,1,195,196
712.51565900,712515659,0,-5.7279634347651154e-05,-0.0002516755776014179,0.00044497798080556095,0.19413349032402039,-0.24773673713207245,-9.855179786682129,0,0,50.698001861572266,1,1,195,196
712.52570200,712525702,0,-0.00020348432008177042,-0.00027318819775246084,0.00031509273685514927,0.19431135058403015,-0.24805566668510437,-9.855324745178223,0,0,50.698001861572266,1,1,195,196
712.53591000,712535910,0,-0.00033920229179784656,-9.627754479879513e-05,0.0003315323847346008,0.1944892555475235,-0.24824166297912598,-9.855484008789062,0,0,50.698001861572266,1,1,195,196
712.54569800,712545698,0,-0.0002324004308320582,0.00014045463467482477,0.0004146351129747927,0.19464518129825592,-0.24829363822937012,-9.855633735656738,0,0,50.698001861572266,1,1,195,196
712.55589900,712555899,0,-8.351071301149204e-05,0.0002536190440878272,0.0004604878486134112,0.1947525441646576,-0.24826031923294067,-9.855790138244629,0,0,50.698001861572266,1,1,195,196
712.56590400,712565904,0,3.377086386535666e-06,0.00033803112455643713,0.0004268072370905429,0.19480186700820923,-0.2481788545846939,-9.855963706970215,0,0,50.698001861572266,1,1,195,196
712.57617400,712576174,0,-6.187742110341787e-05,0.0005500147817656398,0.00025645107962191105,0.19480593502521515,-0.2480407953262329,-9.856144905090332,0,0,50.698001861572266,1,1,195,196
712.58630800,712586308,0,-0.0001869211409939453,0.0006756960065104067,5.448034426080994e-05,0.19480445981025696,-0.24784591794013977,-9.85632610321045,0,0,50.698001861572266,1,1,195,196
712.59652800,712596528,0,-0.00021046883193776011,0.0005772848380729556,3.5347875382285565e-05,0.19485394656658173,-0.2476292997598648,-9.856491088867188,0,0,50.698001861572266,1,1,195,196
712.60700300,712607003,0,-0.00023353246797341853,0.0003912636311724782,0.0003180294297635555,0.19497673213481903,-0.24744342267513275,-9.856613159179688,0,0,50.698001861572266,1,1,195,196
712.61681100,712616811,0,-0.00035713883698917925,0.0002528368204366416,0.0007416832377202809,0.19515042006969452,-0.24734212458133698,-9.856687545776367,0,0,50.698001861572266,1,1,195,196
712.62702800,712627028,0,-0.0005570081411860883,0.0003225281252525747,0.0009909106884151697,0.1953476518392563,-0.24735203385353088,-9.856741905212402,0,0,50.698001861572266,1,1,195,196
712.63683500,712636835,0,-0.0007537903729826212,0.0003198739141225815,0.000949507812038064,0.19555780291557312,-0.24743345379829407,-9.856804847717285,0,0,50.698001861572266,1,1,195,196
712.64680800,712646808,0,-0.0008048475137911737,-3.282735633547418e-05,0.0007247617468237877,0.19577129185199738,-0.24749444425106049,-9.856895446777344,0,0,50.698001861572266,1,1,195,196
712.65696100,712656961,0,-0.0005655099521391094,-0.0003250296867918223,0.0004041917563881725,0.19597257673740387,-0.24745990335941315,-9.857011795043945,0,0,50.698001861572266,1,1,195,196
712.66735800,712667358,0,-0.0002874197671189904,-0.0003198703343514353,0.00010123195534106344,0.19614772498607635,-0.24731211364269257,-9.857121467590332,0,0,50.698001861572266,1,1,195,196
712.67735000,712677350,0,-0.0002038104721577838,-0.00017365158419124782,-2.8066175218555145e-05,0.19626353681087494,-0.2470707893371582,-9.857176780700684,0,0,50.698001861572266,1,1,195,196
712.68757100,712687571,0,-0.0001769910886650905,1.1049701242882293e-05,-0.00010148649016628042,0.19626961648464203,-0.2467542290687561,-9.857146263122559,0,0,50.698001861572266,1,1,195,196
712.69804200,712698042,0,-7.727467163931578e-05,0.00017761197523213923,-0.0003443590539973229,0.19614949822425842,-0.24638612568378448,-9.857062339782715,0,0,50.698001861572266,1,1,195,196
712.70797400,712707974,0,-1.5115138012333773e-05,0.00030256854370236397,-0.0006728338776156306,0.19593115150928497,-0.24600905179977417,-9.856992721557617,0,0,50.698001861572266,1,1,195,196
712.71750800,712717508,0,-0.00014119541447144002,0.0004356023564469069,-0.0008192486711777747,0.19565410912036896,-0.24566806852817535,-9.856964111328125,0,0,50.698001861572266,1,1,195,196
712.72796900,712727969,0,-0.00027961601153947413,0.0007041897042654455,-0.0005863826954737306,0.19534718990325928,-0.24539637565612793,-9.856937408447266,0,0,50.698001861572266,1,1,195,196
712.73787800,712737878,0,-0.0003965592186432332,0.0009844296146184206,-6.034445686964318e-05,0.19503626227378845,-0.2452092170715332,-9.856891632080078,0,0,50.698001861572266,1,1,195,196
712.74810200,712748102,0,-0.0005854492192156613,0.001056815031915903,0.00034374147071503103,0.19477251172065735,-0.24511277675628662,-9.856858253479004,0,0,50.698001861572266,1,1,195,196
712.75840600,712758406,0,-0.0006660260260105133,0.0009102376643568277,0.0004516449407674372,0.19460847973823547,-0.24509111046791077,-9.856870651245117,0,0,50.698001861572266,1,1,195,196
712.76853900,712768539,0,-0.0006789160543121397,0.0005300237098708749,0.0003966934746131301,0.19454161822795868,-0.24509452283382416,-9.85694408416748,0,0,50.698001861572266,1,1,195,196
712.77869200,712778692,0,-0.0007622512639500201,6.0700534959323704e-05,0.0002747968246694654,0.19452716410160065,-0.2450784146785736,-9.857067108154297,0,0,50.698001861572266,1,1,195,196
712.78920200,712789202,0,-0.0007574299816042185,-0.0003583871584851295,9.235208563040942e-05,0.19451770186424255,-0.24503092467784882,-9.857190132141113,0,0,50.698001861572266,1,1,195,196
712.79849300,712798493,0,-0.0005534383235499263,-0.0007232622010633349,-0.00013561034575104713,0.1944708377122879,-0.2449486255645752,-9.857276916503906,0,0,50.698001861572266,1,1,195,196
712.80875600,712808756,0,-0.000294623663648963,-0.0008320751949213445,-0.00023490494641009718,0.19436980783939362,-0.24482868611812592,-9.85733699798584,0,0,50.698001861572266,1,1,195,196
712.81900100,712819001,0,-0.00021879959967918694,-0.000586352834943682,-0.00014775063027627766,0.19422785937786102,-0.24466878175735474,-9.857388496398926,0,0,50.698001861572266,1,1,195,196
712.82901100,712829011,0,-0.0002980708668474108,-0.0001671589125180617,-4.1413783037569374e-05,0.194050133228302,-0.24446703493595123,-9.857410430908203,0,0,50.698001861572266,1,1,195,196
712.83920600,712839206,0,-0.0003304353158455342,0.000252021272899583,0.00010572715837042779,0.19382746517658234,-0.24427099525928497,-9.85737133026123,0,0,50.698001861572266,1,1,195,196
712.84959300,712849593,0,-0.00022865229402668774,0.0005882989498786628,0.0003486012283246964,0.19356584548950195,-0.24415111541748047,-9.857284545898438,0,0,50.698001861572266,1,1,195,196
712.85963000,712859630,0,-3.023427962034475e-05,0.0007657969836145639,0.0004311840166337788,0.19329190254211426,-0.24410711228847504,-9.857216835021973,0,0,50.698001861572266,1,1,195,196
712.86979600,712869796,0,0.00012244994286447763,0.0007796608260832727,0.0002628455404192209,0.1930364966392517,-0.24407528340816498,-9.857217788696289,0,0,50.698001861572266,1,1,195,196
712.98535000,712985350,0,-0.00031329665216617286,0.0009218206396326423,-0.0006954841082915664,0.1928263157606125,-0.24329647421836853,-9.856466293334961,0,0,50.64800262451172,1,1,195,196
712.99109500,712991095,0,-0.00021024546003900468,0.0009959491435438395,-0.0006248274585232139,0.19297803938388824,-0.2432965785264969,-9.856363296508789,0,0,50.64800262451172,1,1,195,196
713.00090200,713000902,0,-0.0002255317085655406,0.0011782464571297169,-0.000748033111449331,0.19309839606285095,-0.24329498410224915,-9.856232643127441,0,0,50.64800262451172,1,1,195,196
713.01125800,713011258,0,-0.00029433672898449004,0.0013761762529611588,-0.0005181612214073539,0.19315502047538757,-0.24326393008232117,-9.856091499328613,0,0,50.64800262451172,1,1,195,196
713.02128300,713021283,0,-0.00042777389171533287,0.001331763225607574,4.56227280665189e-05,0.19314725697040558,-0.24316473305225372,-9.855976104736328,0,0,50.64800262451172,1,1,195,196
713.03146800,713031468,0,-0.0005657041911035776,0.0010750064393505454,0.00044678780250251293,0.193109929561615,-0.24298416078090668,-9.855913162231445,0,0,50.64800262451172,1,1,195,196
713.04183200,713041832,0,-0.0006258371286094189,0.0008202346507459879,0.0006382525898516178,0.19308829307556152,-0.2427527755498886,-9.855896949768066,0,0,50.64800262451172,1,1,195,196
713.05193400,713051934,0,-0.0005842391401529312,0.0005641266470775008,0.000796993903350085,0.19310182332992554,-0.24251921474933624,-9.855894088745117,0,0,50.64800262451172,1,1,195,196
713.06210500,713062105,0,-0.0005022604018449783,0.00046336246305145323,0.0008560401620343328,0.1931397020816803,-0.24232009053230286,-9.855862617492676,0,0,50.64800262451172,1,1,195,196
713.07192700,713071927,0,-0.0005225345375947654,0.0006147511303424835,0.0008031076868064702,0.19319921731948853,-0.24218787252902985,-9.855777740478516,0,0,50.64800262451172,1,1,195,196
713.08181400,713081814,0,-0.0006929909577593207,0.0006986778462305665,0.0005491368938237429,0.19329167902469635,-0.24215824902057648,-9.855652809143066,0,0,50.64800262451172,1,1,195,196
713.09209300,713092093,0,-0.0008488281164318323,0.0005757715553045273,0.00014399923384189606,0.19342009723186493,-0.2422555834054947,-9.855518341064453,0,0,50.64800262451172,1,1,195,196
713.10238700,713102387,0,-0.0007035246817395091,0.0004836808948311955,-0.00014791215653531253,0.19357994198799133,-0.24248695373535156,-9.855392456054688,0,0,50.64800262451172,1,1,195,196
713.11240000,713112400,0,-0.00039040311821736395,0.0005298605537973344,-0.00027532887179404497,0.19377397000789642,-0.24282988905906677,-9.855274200439453,0,0,50.64800262451172,1,1,195,196
713.12256700,713122567,0,-0.00011168751370860264,0.0005803061067126691,-0.00024628473329357803,0.1940184235572815,-0.2432287484407425,-9.85516357421875,0,0,50.64800262451172,1,1,195,196
713.13303300,713133033,0,9.547091030981392e-05,0.000570146250538528,-9.55596478888765e-05,0.19432057440280914,-0.24364031851291656,-9.855074882507324,0,0,50.64800262451172,1,1,195,196
713.14301500,713143015,0,6.946961366338655e-05,0.00048037091619335115,8.349777635885403e-05,0.19465160369873047,-0.2440468817949295,-9.855040550231934,0,0,50.64800262451172,1,1,195,196
713.15312200,713153122,0,-6.27936897217296e-05,0.00026497378712520003,3.0012402930879034e-05,0.19495758414268494,-0.24439765512943268,-9.85507583618164,0,0,50.64800262451172,1,1,195,196
713.16285500,713162855,0,-9.002960723591968e-06,8.481831901008263e-05,-0.0002820076479110867,0.19519741833209991,-0.2446264922618866,-9.85515308380127,0,0,50.64800262451172,1,1,195,196
713.17294600,713172946,0,0.00017571459466125816,6.246341217774898e-05,-0.0005505165318027139,0.19536267220973969,-0.24472393095493317,-9.855224609375,0,0,50.64800262451172,1,1,195,196
713.18309900,713183099,0,0.00022845732746645808,0.00017259415471926332,-0.0006398011464625597,0.19544623792171478,-0.24471721053123474,-9.855277061462402,0,0,50.64800262451172,1,1,195,196
713.19361100,713193611,0,0.00015504458860959858,0.000376915093511343,-0.0004151254252064973,0.1954212635755539,-0.24463827908039093,-9.85533332824707,0,0,50.64800262451172,1,1,195,196
713.20354300,713203543,0,8.854005136527121e-05,0.000427831633714959,-8.487039303872734e-05,0.19528530538082123,-0.2445371448993683,-9.855405807495117,0,0,50.64800262451172,1,1,195,196
713.21370800,713213708,0,-1.4179517165757716e-05,0.00029004726093262434,7.251768693095073e-05,0.19509276747703552,-0.2444726675748825,-9.855501174926758,0,0,50.64800262451172,1,1,195,196
713.22427700,713224277,0,-6.122160266386345e-05,8.934920333558694e-05,0.00022152021119836718,0.19491367042064667,-0.2444833517074585,-9.85564136505127,0,0,50.64800262451172,1,1,195,196
713.23407800,713234078,0,-0.00012502557365223765,-0.00020705464703496546,0.00033704977249726653,0.19478261470794678,-0.24456818401813507,-9.85585880279541,0,0,50.64800262451172,1,1,195,196
713.24369400,713243694,0,-0.00044755832641385496,-0.0003852357331197709,0.0002557365514803678,0.19470928609371185,-0.244704931974411,-9.856134414672852,0,0,50.64800262451172,1,1,195,196
713.25395700,713253957,0,-0.0008299287874251604,-0.00026102320407517254,4.378441735752858e-05,0.19470204412937164,-0.24487332999706268,-9.85640811920166,0,0,50.64800262451172,1,1,195,196
713.26406500,713264065,0,-0.0009546031942591071,-6.955815479159355e-05,-0.0002413395995972678,0.1947539895772934,-0.2450411170721054,-9.856633186340332,0,0,50.64800262451172,1,1,195,196
713.27417400,713274174,0,-0.0008261598995886743,-4.182593693258241e-05,-0.0005050398758612573,0.19483762979507446,-0.2451723963022232,-9.856815338134766,0,0,50.64800262451172,1,1,195,196
713.28472300,713284723,0,-0.0006021772278472781,-4.514215106610209e-05,-0.0004956852062605321,0.1949281245470047,-0.24525627493858337,-9.85695743560791,0,0,50.64800262451172,1,1,195,196
713.29470500,713294705,0,-0.00042950749048031867,4.2697516619227827e-05,-0.00019971195433754474,0.195010244846344,-0.24530424177646637,-9.857032775878906,0,0,50.64800262451172,1,1,195,195
713.30488200,713304882,0,-0.00047350433305837214,0.00015672063454985619,-3.5993016354041174e-05,0.19506345689296722,-0.24532677233219147,-9.857016563415527,0,0,50.64800262451172,1,1,195,195
713.31509400,713315094,0,-0.0005596564733423293,0.0003133729042019695,-0.00017851204029284418,0.19505548477172852,-0.2453124076128006,-9.856916427612305,0,0,50.64800262451172,1,1,195,195
713.32522600,713325226,0,-0.00043824315071105957,0.0005120817804709077,-0.0002811651211231947,0.19495786726474762,-0.24525116384029388,-9.85678482055664,0,0,50.64800262451172,1,1,195,195
713.33472200,713334722,0,-0.000294332712655887,0.0007442568894475698,-0.00018646720855031163,0.1947735697031021,-0.24518325924873352,-9.856666564941406,0,0,50.64800262451172,1,1,195,195
713.34506800,713345068,0,-0.00032613505027256906,0.0009465077891945839,-1.6202031474676915e-05,0.1945337951183319,-0.24517273902893066,-9.856576919555664,0,0,50.64800262451172,1,1,195,195
713.35515900,713355159,0,-0.000488271500216797,0.0009364617872051895,5.116307511343621e-05,0.19427372515201569,-0.24523460865020752,-9.856496810913086,0,0,50.64800262451172,1,1,195,195
713.46981900,713469819,0,-0.00039603948243893683,0.001157777733169496,0.00012774164497386664,0.19261154532432556,-0.24725700914859772,-9.856200218200684,0,0,50.61000061035156,1,1,195,195
713.47674400,713476744,0,-0.000249345728661865,0.001117840176448226,0.0002198288420913741,0.19240565598011017,-0.2473224252462387,-9.856185913085938,0,0,50.61000061035156,1,1,195,195
713.48685400,713486854,0,-0.0003413822560105473,0.0009581941412761807,-6.0174017562530935e-05,0.1921953409910202,-0.24725787341594696,-9.856184959411621,0,0,50.61000061035156,1,1,195,195
713.49729600,713497296,0,-0.0007399535388685763,0.0005095847300253808,-0.0005152568337507546,0.19198231399059296,-0.2470843642950058,-9.856173515319824,0,0,50.61000061035156,1,1,195,195
713.50723500,713507235,0,-0.001048164558596909,1.1624016224232037e-05,-0.0008059946121647954,0.19178907573223114,-0.24685636162757874,-9.856125831604004,0,0,50.61000061035156,1,1,195,195
713.51683700,713516837,0,-0.0010942477965727448,-0.0002534388913773,-0.0009080450399778783,0.191642627120018,-0.24662289023399353,-9.856036186218262,0,0,50.61000061035156,1,1,195,195
713.52723400,713527234,0,-0.001005972851999104,-0.0004601399996317923,-0.0008470918401144445,0.19155290722846985,-0.24640682339668274,-9.855940818786621,0,0,50.61000061035156,1,1,195,195
713.53725300,713537253,0,-0.0008182908641174436,-0.0005980791174806654,-0.0007203092100098729,0.1915004849433899,-0.2462216317653656,-9.855866432189941,0,0,50.61000061035156,1,1,195,195
713.54745900,713547459,0,-0.000725562684237957,-0.0005705502117052674,-0.0005871453904546797,0.1914607584476471,-0.24607208371162415,-9.855819702148438,0,0,50.61000061035156,1,1,195,195
713.55802800,713558028,0,-0.0008545437594875693,-0.0005220721359364688,-0.0004245992749929428,0.1914326250553131,-0.24595534801483154,-9.855805397033691,0,0,50.61000061035156,1,1,195,195
713.56782500,713567825,0,-0.0009059482836164534,-0.00042050378397107124,-0.0003328263992443681,0.19142203032970428,-0.24586863815784454,-9.855825424194336,0,0,50.61000061035156,1,1,195,195
713.57806100,713578061,0,-0.0008047858718782663,-0.00026098728994838893,-0.00024035028764046729,0.19142021238803864,-0.24580931663513184,-9.855865478515625,0,0,50.61000061035156,1,1,195,195
713.58858800,713588588,0,-0.0007034000009298325,-0.000263331166934222,-6.049090370652266e-05,0.19141925871372223,-0.24577482044696808,-9.8558988571167,0,0,50.61000061035156,1,1,195,195
713.59790500,713597905,0,-0.0005166220362298191,-0.0003952161059714854,2.0216759367031045e-05,0.19142605364322662,-0.24575576186180115,-9.855927467346191,0,0,50.61000061035156,1,1,195,195
713.60798400,713607984,0,-0.000220645364606753,-0.00035224459134042263,-1.5078409887792077e-05,0.1914607286453247,-0.24572263658046722,-9.855972290039062,0,0,50.61000061035156,1,1,195,195
713.61840600,713618406,0,-3.6359877412905917e-05,-2.355432661715895e-05,-4.61524396087043e-05,0.19152714312076569,-0.24564917385578156,-9.856051445007324,0,0,50.61000061035156,1,1,195,195
713.62830100,713628301,0,5.448112915473757e-06,0.00027131676324643195,-6.906448834342882e-05,0.19158662855625153,-0.24554702639579773,-9.856154441833496,0,0,50.61000061035156,1,1,195,195
713.63852900,713638529,0,2.3579923436045647e-05,0.0004390486574266106,7.44568751542829e-05,0.1915975958108902,-0.2454407662153244,-9.856250762939453,0,0,50.61000061035156,1,1,195,195
713.64892800,713648928,0,-2.585399488452822e-05,0.0006708657019771636,0.0004271205107215792,0.1915510892868042,-0.24533146619796753,-9.856327056884766,0,0,50.61000061035156,1,1,195,195
713.65888300,713658883,0,-9.779496031114832e-05,0.0007821242325007915,0.0007046356913633645,0.19146043062210083,-0.2452061027288437,-9.856376647949219,0,0,50.61000061035156,1,1,195,195
713.66908800,713669088,0,-0.00011359545169398189,0.0006557749002240598,0.0006806942401453853,0.1913587599992752,-0.24505312740802765,-9.856395721435547,0,0,50.61000061035156,1,1,195,195
713.67949700,713679497,0,-0.00020478239457588643,0.0004408828972373158,0.00035944837145507336,0.1912967711687088,-0.24486932158470154,-9.856415748596191,0,0,50.61000061035156,1,1,195,195
713.68893900,713688939,0,-0.0004719587741419673,0.00022618146613240242,-9.298863005824387e-05,0.19131261110305786,-0.2446729987859726,-9.856484413146973,0,0,50.61000061035156,1,1,195,195
713.69916600,713699166,0,-0.0008230545790866017,5.402986062108539e-05,-0.00046596871106885374,0.1913979947566986,-0.24448761343955994,-9.856612205505371,0,0,50.61000061035156,1,1,195,195
713.70943400,713709434,0,-0.0011448153527453542,-6.374721124302596e-05,-0.0005692222039215267,0.1915171593427658,-0.2443200796842575,-9.856776237487793,0,0,50.61000061035156,1,1,195,195
713.71947600,713719476,0,-0.0012835945235565305,2.5749766791705042e-05,-0.0003651783335953951,0.1916588544845581,-0.2441764920949936,-9.856965065002441,0,0,50.61000061035156,1,1,195,195
713.72964600,713729646,0,-0.001202165032736957,0.0004072539450135082,-5.465857248054817e-05,0.19182689487934113,-0.2440691441297531,-9.857169151306152,0,0,50.61000061035156,1,1,195,195
713.73995900,713739959,0,-0.0010842905612662435,0.0006421640864573419,0.0002453279448673129,0.1920105218887329,-0.244008868932724,-9.8573637008667,0,0,50.61000061035156,1,1,195,195
713.74998700,713749987,0,-0.0009723129915073514,0.000549906340893358,0.0004809571837540716,0.19220700860023499,-0.24402599036693573,-9.857527732849121,0,0,50.61000061035156,1,1,195,195
713.76019000,713760190,0,-0.0008852974860928953,0.0005302420468069613,0.00048123649321496487,0.1924348920583725,-0.24416828155517578,-9.857662200927734,0,0,50.61000061035156,1,1,195,195
713.77006900,713770069,0,-0.0009854192612692714,0.0006018193671479821,0.00031634268816560507,0.1926964819431305,-0.24443566799163818,-9.85779857635498,0,0,50.61000061035156,1,1,195,195
713.77992000,713779920,0,-0.0012604908552020788,0.0005975020467303693,0.00015780537796672434,0.1929517537355423,-0.24475054442882538,-9.857964515686035,0,0,50.61000061035156,1,1,195,195
713.79019400,713790194,0,-0.0014594210078939795,0.0006631109281443059,8.632466051494703e-05,0.19315794110298157,-0.24500815570354462,-9.858147621154785,0,0,50.61000061035156,1,1,195,195
713.80057700,713800577,0,-0.0014246285427361727,0.0008544911397621036,0.0001232430076925084,0.19330497086048126,-0.24512912333011627,-9.85831069946289,0,0,50.61000061035156,1,1,195,195
713.81050200,713810502,0,-0.001337710884399712,0.0009627830586396158,9.931861131917685e-05,0.19339825212955475,-0.245071142911911,-9.858427047729492,0,0,50.61000061035156,1,1,195,195
713.82073600,713820736,0,-0.0012430765200406313,0.0009572923299856484,-0.00010694786760723218,0.19344982504844666,-0.2448393851518631,-9.858500480651855,0,0,50.61000061035156,1,1,195,195
713.83102500,713831025,0,-0.0010054671438410878,0.0010038570035248995,-0.0003068793739657849,0.1934848129749298,-0.24450244009494781,-9.858542442321777,0,0,50.61000061035156,1,1,195,195
713.84116800,713841168,0,-0.0006938654696568847,0.0010134178446605802,-0.0003589110856410116,0.19352568686008453,-0.24415722489356995,-9.858555793762207,0,0,50.61000061035156,1,1,195,195
713.85131900,713851319,0,-0.0003558642347343266,0.0009507398935966194,-0.0003299865056760609,0.19357861578464508,-0.2438695728778839,-9.858551025390625,0,0,50.61000061035156,1,1,195,195
713.86099900,713860999,0,-0.00017742643831297755,0.0009186087409034371,-0.0002681009646039456,0.1936420053243637,-0.2436770796775818,-9.858536720275879,0,0,50.61000061035156,1,1,195,195
713.87106200,713871062,0,-0.0002685181680135429,0.0008547594770789146,-0.000308040005620569,0.19371439516544342,-0.24362678825855255,-9.858506202697754,0,0,50.61000061035156,1,1,195,195
713.88130600,713881306,0,-0.00036504221498034894,0.0007883820217102766,-0.0004414002178236842,0.19379441440105438,-0.24377396702766418,-9.8584623336792,0,0,50.61000061035156,1,1,195,195
713.89187900,713891879,0,-0.0003397385007701814,0.0007339231087826192,-0.0004876892198808491,0.19388777017593384,-0.24413195252418518,-9.858427047729492,0,0,50.61000061035156,1,1,195,195
713.90201900,713902019,0,-0.0003138968313578516,0.0005905935540795326,-0.00043055397691205144,0.19401350617408752,-0.2446485310792923,-9.858429908752441,0,0,50.61000061035156,1,1,195,195
713.91187800,713911878,0,-0.0003982435737270862,0.0004331459349486977,-0.00022996639017947018,0.19418847560882568,-0.24523411691188812,-9.858477592468262,0,0,50.61000061035156,1,1,195,195
713.92227300,713922273,0,-0.0005185583140701056,0.0003527565859258175,0.00010483033111086115,0.19439947605133057,-0.2457870990037918,-9.858551979064941,0,0,50.61000061035156,1,1,195,195
713.93223500,713932235,0,-0.0006322654080577195,0.00032508335425518453,0.00033220878685824573,0.1946134865283966,-0.24622376263141632,-9.858630180358887,0,0,50.61000061035156,1,1,195,195
713.94175700,713941757,0,-0.0008783316588960588,0.00027540294104255736,0.00041062949458137155,0.194814994931221,-0.24649788439273834,-9.85871696472168,0,0,50.61000061035156,1,1,195,195
713.95217300,713952173,0,-0.0011389778228476644,0.00011969712795689702,0.0005077047972008586,0.1949971467256546,-0.24660390615463257,-9.858839988708496,0,0,50.61000061035156,1,1,195,195
713.96227900,713962279,0,-0.0011970429914072156,-5.587582927546464e-05,0.0005944960284978151,0.19512592256069183,-0.24657292664051056,-9.858994483947754,0,0,50.61000061035156,1,1,195,195
713.97238200,713972382,0,-0.0011994997039437294,-4.821792754228227e-05,0.0006592099089175463,0.1951502412557602,-0.24644047021865845,-9.85914134979248,0,0,50.61000061035156,1,1,195,195
713.98285300,713982853,0,-0.0012802358251065016,0.00020347602549009025,0.0007005775696597993,0.19503901898860931,-0.24623198807239532,-9.859273910522461,0,0,50.61000061035156,1,1,195,195
713.99284000,713992840,0,-0.001382407732307911,0.00046932886471040547,0.0004592719778884202,0.19479313492774963,-0.24598462879657745,-9.859441757202148,0,0,50.61000061035156,1,1,195,195
714.10800900,714108009,0,-0.0004570776363834739,-0.00017227792704943568,-0.0002894627978093922,0.1953892558813095,-0.24585360288619995,-9.860832214355469,0,0,50.61000061035156,1,1,195,195
714.11432900,714114329,0,-0.00016470704576931894,-0.0004287121118977666,-9.81348566710949e-05,0.1954927146434784,-0.24608558416366577,-9.8609619140625,0,0,50.61000061035156,1,1,195,195
714.12391500,714123915,0,0.00011212826211703941,-0.0007019639015197754,0.0002588345087133348,0.1955692023038864,-0.24629616737365723,-9.861089706420898,0,0,50.61000061035156,1,1,195,195
714.13429700,714134297,0,0.00037946217344142497,-0.0007712111109867692,0.0006243542884476483,0.19560706615447998,-0.24647246301174164,-9.861165046691895,0,0,50.61000061035156,1,1,195,195
714.14425800,714144258,0,0.00037871900713071227,-0.0005712880520150065,0.0008163402089849114,0.19558918476104736,-0.24658900499343872,-9.861157417297363,0,0,50.61000061035156,1,1,195,195
714.15445600,714154456,0,0.00019736780086532235,-0.0003876263799611479,0.0008874448831193149,0.19549356400966644,-0.24663743376731873,-9.861104965209961,0,0,50.61000061035156,1,1,195,195
714.16479400,714164794,0,0.00017625551845412701,-0.00035338991438038647,0.0008340635104104877,0.1953149288892746,-0.24663859605789185,-9.861088752746582,0,0,50.61000061035156,1,1,195,195
714.17490000,714174900,0,0.0001305455807596445,-0.00029198441188782454,0.000573756406083703,0.19508405029773712,-0.24661844968795776,-9.861167907714844,0,0,50.61000061035156,1,1,195,195
714.18505700,714185057,0,-7.588026346638799e-05,-0.00028240843676030636,0.00026605764287523925,0.19484272599220276,-0.24657931923866272,-9.861346244812012,0,0,50.61000061035156,1,1,195,195
714.19553000,714195530,0,-0.00021293910685926676,-0.0004574929771479219,4.923224696540274e-05,0.1946074515581131,-0.24651645123958588,-9.861556053161621,0,0,50.61000061035156,1,1,195,195
714.20516600,714205166,0,-0.00018441486463416368,-0.0004755141562782228,-2.8627473511733115e-05,0.19438596069812775,-0.2464606612920761,-9.8616943359375,0,0,50.61000061035156,1,1,195,195
714.21508300,714215083,0,2.2919302864465863e-05,-0.0003095913853030652,8.064311259659007e-05,0.19418509304523468,-0.2464745044708252,-9.861714363098145,0,0,50.61000061035156,1,1,195,195
714.22540500,714225405,0,0.00016935217718128115,-0.00019392749527469277,0.000310383242322132,0.19397588074207306,-0.24659951031208038,-9.861640930175781,0,0,50.61000061035156,1,1,195,195
714.23559100,714235591,0,9.972559928428382e-05,-0.0001251507201232016,0.0005522511200979352,0.19371844828128815,-0.2468302845954895,-9.861527442932129,0,0,50.61000061035156,1,1,195,195
714.24554700,714245547,0,-0.00011203276517335325,-0.00019771276856772602,0.0006994149298407137,0.19344736635684967,-0.24713335931301117,-9.861412048339844,0,0,50.61000061035156,1,1,195,195
714.25577300,714255773,0,-0.00040249264566227794,-0.00027078946004621685,0.0006668913993053138,0.19324955344200134,-0.2474713772535324,-9.86132526397705,0,0,50.61000061035156,1,1,195,195
714.26605300,714266053,0,-0.0005677806329913437,-0.00011899050150532275,0.0005549447378143668,0.19316038489341736,-0.24781771004199982,-9.861285209655762,0,0,50.61000061035156,1,1,195,195
714.27618500,714276185,0,-0.0005879069212824106,0.00011023491970263422,0.0005325229722075164,0.1931689977645874,-0.24816946685314178,-9.861257553100586,0,0,50.61000061035156,1,1,195,195
714.28632500,714286325,0,-0.0005346947582438588,0.00043645891128107905,0.0006099779275245965,0.19327203929424286,-0.24853800237178802,-9.861150741577148,0,0,50.61000061035156,1,1,195,195
714.29632300,714296323,0,-0.00040429693763144314,0.0007971833110786974,0.0006145017105154693,0.19344498217105865,-0.24891941249370575,-9.860947608947754,0,0,50.61000061035156,1,1,195,195
714.30613900,714306139,0,-0.0003154743171762675,0.0008923860732465982,0.0005832843016833067,0.19363056123256683,-0.24926115572452545,-9.86080265045166,0,0,50.61000061035156,1,1,195,195
714.31625500,714316255,0,-0.00026408169651404023,0.0006312251789495349,0.0005938307149335742,0.19379137456417084,-0.24947454035282135,-9.860895156860352,0,0,50.61000061035156,1,1,195,195
714.32662400,714326624,0,-0.00024073643726296723,0.00014610476500820369,0.0003589086118154228,0.19392210245132446,-0.24952983856201172,-9.861177444458008,0,0,50.61000061035156,1,1,195,195
714.33663700,714336637,0,-0.0006567491218447685,-0.0002447526203468442,-5.217605212237686e-05,0.1940251588821411,-0.24949227273464203,-9.861405372619629,0,0,50.61000061035156,1,1,195,195
714.34683900,714346839,0,-0.00141108816023916,-0.00030260608764365315,-0.00025546635151840746,0.19410282373428345,-0.2494557648897171,-9.861371994018555,0,0,50.61000061035156,1,1,195,195
714.35725000,714357250,0,-0.001545893494039774,0.00028409872902557254,-0.00021393512724898756,0.19417130947113037,-0.24949729442596436,-9.861079216003418,0,0,50.61000061035156,1,1,195,195
714.36728500,714367285,0,-0.0008840186055749655,0.0014840892981737852,-1.09735256046406e-05,0.1942591667175293,-0.24965737760066986,-9.860701560974121,0,0,50.61000061035156,1,1,195,195
714.37685500,714376855,0,-7.771455420879647e-05,0.0027398017700761557,0.0003343176213093102,0.19437779486179352,-0.24991562962532043,-9.860396385192871,0,0,50.61000061035156,1,1,195,195
714.38731400,714387314,0,0.00026947262813337147,0.0036684770602732897,0.0007319977157749236,0.19451630115509033,-0.25019028782844543,-9.86011028289795,0,0,50.61000061035156,1,1,195,195
714.39756700,714397567,0,-0.0001453730947105214,0.003941236063838005,0.001023397664539516,0.19467176496982574,-0.25038713216781616,-9.859695434570312,0,0,50.61000061035156,1,1,195,195
714.40748200,714407482,0,-0.0008422801620326936,0.0034779852721840143,0.0011010554153472185,0.19486947357654572,-0.2504572868347168,-9.859264373779297,0,0,50.61000061035156,1,1,195,195
714.41775500,714417755,0,-0.0008514602668583393,0.0027546794153749943,0.000903226959053427,0.19511783123016357,-0.2504066526889801,-9.859228134155273,0,0,50.66600036621094,1,1,195,195
714.42775100,714427751,0,4.911458381684497e-05,0.0020501576364040375,0.000507557881064713,0.19536811113357544,-0.25026217103004456,-9.859882354736328,0,0,50.66600036621094,1,1,195,195
714.43795500,714437955,0,0.0009429384954273701,0.0012305974960327148,0.00020094175124540925,0.1955556571483612,-0.25004151463508606,-9.861035346984863,0,0,50.66600036621094,1,1,195,195
714.44826500,714448265,0,0.0009194312733598053,0.00025480822660028934,-2.4892183319025207e-06,0.1956440955400467,-0.2497401088476181,-9.862140655517578,0,0,50.66600036621094,1,1,195,195
714.45834500,714458345,0,-6.44042156636715e-05,-0.000707993283867836,-0.00022172334138303995,0.19562928378582,-0.24932613968849182,-9.862777709960938,0,0,50.66600036621094,1,1,195,195
714.46794700,714467947,0,-0.0013125250115990639,-0.0012108506634831429,-0.0003524856292642653,0.19553618133068085,-0.24877198040485382,-9.862983703613281,0,0,50.66600036621094,1,1,195,195
714.47839200,714478392,0,-0.0016500838100910187,-0.0008678275044076145,-0.0003624492383096367,0.19540150463581085,-0.2481025606393814,-9.863119125366211,0,0,50.66600036621094,1,1,195,195
714.48828600,714488286,0,-0.0006958076846785843,2.2193211407284252e-05,-0.00026005730614997447,0.1952374130487442,-0.24739684164524078,-9.863441467285156,0,0,50.66600036621094,1,1,195,195
714.60444000,714604440,0,-0.0015084014739841223,-0.0004845251387450844,-0.00047451892169192433,0.19282850623130798,-0.2465866655111313,-9.86417007446289,0,0,50.66600036621094,1,1,195,195
714.60989200,714609892,0,-0.0004835980653297156,-6.080878301872872e-05,-0.0003918894799426198,0.19260095059871674,-0.24644532799720764,-9.86415958404541,0,0,50.66600036621094,1,1,195,195
714.62011700,714620117,0,0.0004169275052845478,0.0004448358085937798,-0.0001867668906925246,0.19224421679973602,-0.24614493548870087,-9.864029884338379,0,0,50.66600036621094,1,1,195,195
714.63046200,714630462,0,0.0006586473318748176,0.0006262933020479977,-0.00012168401008239016,0.19183695316314697,-0.24571794271469116,-9.86369800567627,0,0,50.66600036621094,1,1,195,195
714.64050800,714640508,0,0.0004324523324612528,0.0005643019103445113,-3.104775896645151e-05,0.19145673513412476,-0.24519413709640503,-9.863326072692871,0,0,50.66600036621094,1,1,195,195
714.65003100,714650031,0,2.7418798708822578e-05,0.0005035845679230988,0.00021187654056120664,0.19115890562534332,-0.24461473524570465,-9.863109588623047,0,0,50.66600036621094,1,1,195,195
714.66039000,714660390,0,-6.696051423205063e-05,0.0005081509007140994,0.000426856626290828,0.19098547101020813,-0.2440309375524521,-9.86307430267334,0,0,50.66600036621094,1,1,195,195
714.67044900,714670449,0,0.0003217604535166174,0.0004903391818515956,0.00042796856723725796,0.1909453421831131,-0.24348856508731842,-9.863096237182617,0,0,50.66600036621094,1,1,195,195
714.68058800,714680588,0,0.0008644349290989339,0.0005180251901037991,0.00016867158410605043,0.19103875756263733,-0.24302834272384644,-9.863052368164062,0,0,50.66600036621094,1,1,195,195
714.69097400,714690974,0,0.0010573454201221466,0.0005093073705211282,-5.84361441724468e-05,0.19128604233264923,-0.24268634617328644,-9.862934112548828,0,0,50.66600036621094,1,1,195,195
714.70093200,714700932,0,0.0008343189838342369,0.00037958475877530873,-6.724904960719869e-05,0.191690593957901,-0.24249404668807983,-9.862834930419922,0,0,50.66600036621094,1,1,195,195
714.71126700,714711267,0,0.0004039949271827936,0.0002176994748879224,-0.00012802025594282895,0.192205548286438,-0.2424578219652176,-9.862829208374023,0,0,50.66600036621094,1,1,195,195
714.72145300,714721453,0,-4.0276474464917555e-05,1.979330954782199e-05,-0.00046493689296767116,0.1927463412284851,-0.24254049360752106,-9.862879753112793,0,0,50.66600036621094,1,1,195,195
714.73149100,714731491,0,-0.00019268399046268314,-0.00010351877426728606,-0.0009198359912261367,0.193223237991333,-0.2426871657371521,-9.862863540649414,0,0,50.66600036621094,1,1,195,195
714.74111100,714741111,0,-7.016391464276239e-05,9.653373854234815e-05,-0.001130477525293827,0.19356319308280945,-0.24284827709197998,-9.86270809173584,0,0,50.66600036621094,1,1,195,195
714.75160300,714751603,0,1.485023858549539e-06,0.00041152836638502777,-0.0008667514775879681,0.19374367594718933,-0.24299339950084686,-9.862464904785156,0,0,50.66600036621094,1,1,195,195
714.76149100,714761491,0,-0.00017601151193957776,0.0005084798904135823,-0.00032319084857590497,0.19380836188793182,-0.24313032627105713,-9.862215042114258,0,0,50.66600036621094,1,1,195,195
714.77163500,714771635,0,-0.0005427838186733425,0.00042940981802530587,8.85794943314977e-05,0.19380402565002441,-0.24327315390110016,-9.861994743347168,0,0,50.66600036621094,1,1,195,195
714.78197000,714781970,0,-0.0009274605545215309,0.00022920560149941593,0.000303282227832824,0.1937379539012909,-0.24339944124221802,-9.861811637878418,0,0,50.66600036621094,1,1,195,195
714.79211700,714792117,0,-0.0011919518001377583,-4.1952320316340774e-05,0.0004340343875810504,0.19362398982048035,-0.24348218739032745,-9.861651420593262,0,0,50.66600036621094,1,1,195,195
714.80223600,714802236,0,-0.0012413783697411418,-0.00018805354193318635,0.00039348265272565186,0.1935238093137741,-0.243539497256279,-9.861509323120117,0,0,50.66600036621094,1,1,195,195
714.81262400,714812624,0,-0.0010729371570050716,-0.00019284246081952006,6.843105802545324e-05,0.1935204118490219,-0.24362961947917938,-9.861411094665527,0,0,50.66600036621094,1,1,195,195
714.82266000,714822660,0,-0.000781041628215462,-0.000287167786154896,-0.00032827359973452985,0.19365961849689484,-0.24381855130195618,-9.8613862991333,0,0,50.66600036621094,1,1,195,195
714.83217100,714832171,0,-0.0005932187777943909,-0.0005109552294015884,-0.00047009284025989473,0.1939256191253662,-0.2441367208957672,-9.861400604248047,0,0,50.66600036621094,1,1,195,195
714.84252300,714842523,0,-0.0006502678734250367,-0.0006996766896918416,-0.0003567467792890966,0.19426856935024261,-0.24456171691417694,-9.861394882202148,0,0,50.66600036621094,1,1,195,195
714.85253900,714852539,0,-0.0007603676640428603,-0.00067632005084306,-0.00019656501535791904,0.19464340806007385,-0.24504485726356506,-9.86136245727539,0,0,50.66600036621094,1,1,195,195
714.86272000,714862720,0,-0.0007160395616665483,-0.0004509161226451397,-0.00020368475816212595,0.19500960409641266,-0.2455282211303711,-9.861336708068848,0,0,50.66600036621094,1,1,195,195
714.87308800,714873088,0,-0.0006066918140277267,-0.00012088154471712187,-0.00023666581546422094,0.19532400369644165,-0.24594607949256897,-9.861336708068848,0,0,50.66600036621094,1,1,195,195
714.88316500,714883165,0,-0.00043523445492610335,0.0002992140653077513,-0.00011747860116884112,0.1955622434616089,-0.24623990058898926,-9.861366271972656,0,0,50.66600036621094,1,1,195,195
714.89360900,714893609,0,-0.00016267283353954554,0.0006792640197090805,-5.44904287380632e-05,0.1957169473171234,-0.2463860809803009,-9.861409187316895,0,0,50.66600036621094,1,1,195,195
714.90403200,714904032,0,-1.039608378050616e-06,0.0008596875704824924,-0.00018881316646002233,0.19576801359653473,-0.2464202642440796,-9.861434936523438,0,0,50.66600036621094,1,1,195,195
714.91313300,714913133,0,-2.9707245630561374e-05,0.000961716752499342,-0.00039084797026589513,0.19568409025669098,-0.2464309185743332,-9.861424446105957,0,0,50.66600036621094,1,1,195,195
714.92325200,714923252,0,-3.829653360298835e-05,0.0011114472290500998,-0.0003746117581613362,0.19545887410640717,-0.24648340046405792,-9.861380577087402,0,0,50.66400146484375,1,1,195,195
714.93364100,714933641,0,1.70737475855276e-05,0.0011490239994600415,-0.00015196118329185992,0.19512952864170074,-0.2465660274028778,-9.861329078674316,0,0,50.66400146484375,1,1,195,195
714.94364200,714943642,0,-1.328095004282659e-05,0.001020247582346201,1.9948578483308665e-05,0.1947578340768814,-0.246640145778656,-9.861289978027344,0,0,50.66400146484375,1,1,195,195
714.95387500,714953875,0,-7.859225297579542e-05,0.0008374538738280535,0.00013361794117372483,0.19442036747932434,-0.2467062622308731,-9.861271858215332,0,0,50.66400146484375,1,1,195,195
714.96419300,714964193,0,-0.0003056926652789116,0.0006123318453319371,0.00024964858312159777,0.19420641660690308,-0.24681375920772552,-9.861279487609863,0,0,50.66400146484375,1,1,195,195
714.97422400,714974224,0,-0.0008285230142064393,0.0004115047922823578,0.000291194039164111,0.1941811591386795,-0.2470066100358963,-9.861329078674316,0,0,50.66400146484375,1,1,195,195
714.98444400,714984444,0,-0.0012312574544921517,0.0003673359751701355,0.0002362669911235571,0.1943458616733551,-0.24727468192577362,-9.861437797546387,0,0,50.66400146484375,1,1,195,195
714.99495800,714994958,0,-0.0012862961739301682,0.000406753271818161,9.343992860522121e-05,0.19463767111301422,-0.24758754670619965,-9.86159896850586,0,0,50.66400146484375,1,1,195,195
715.00421800,715004218,0,-0.0011643213219940662,0.00037297801463864744,-0.00011580828140722588,0.19497857987880707,-0.24791768193244934,-9.861785888671875,0,0,50.66400146484375,1,1,195,195
715.01434400,715014344,0,-0.0009818905964493752,0.0002582430315669626,-0.00021007718169130385,0.19532644748687744,-0.24821241199970245,-9.861979484558105,0,0,50.66400146484375,1,1,195,195
715.02474300,715024743,0,-0.0008066509035415947,0.00012751507165376097,-7.276394171640277e-05,0.19567154347896576,-0.2483828216791153,-9.86219310760498,0,0,50.66400146484375,1,1,195,195
715.03480900,715034809,0,-0.0006168344989418983,-3.76694806618616e-05,0.00014804481179453433,0.19600515067577362,-0.2483430802822113,-9.862436294555664,0,0,50.66400146484375,1,1,195,195
715.04495100,715044951,0,-0.0004575908533297479,-0.00018665101379156113,0.00020707868679892272,0.1963055431842804,-0.24808058142662048,-9.86268424987793,0,0,50.66400146484375,1,1,195,195
715.05533200,715055332,0,-0.0002391113666817546,-8.775844617048278e-05,0.0001244744926225394,0.19655349850654602,-0.2476552277803421,-9.862886428833008,0,0,50.66400146484375,1,1,195,195
715.06527300,715065273,0,0.0002804703253787011,0.0003206820401828736,9.586610394762829e-05,0.1967391073703766,-0.24714258313179016,-9.86300277709961,0,0,50.66400146484375,1,1,195,195
715.07546500,715075465,0,0.0008938355604186654,0.0008489202591590583,0.0001513820025138557,0.19682584702968597,-0.24660374224185944,-9.863044738769531,0,0,50.66400146484375,1,1,195,195
715.08522600,715085226,0,0.0011147081386297941,0.0012246001278981566,0.00023611390497535467,0.19673971831798553,-0.24607954919338226,-9.863044738769531,0,0,50.66400146484375,1,1,195,195
715.09529400,715095294,0,0.000788362929597497,0.0012424238957464695,0.00021271384321153164,0.19644342362880707,-0.24559952318668365,-9.863022804260254,0,0,50.66400146484375,1,1,195,195
715.10549300,715105493,0,0.0002650937531143427,0.0010857390007004142,8.960822742665187e-05,0.19598878920078278,-0.2451828122138977,-9.862988471984863,0,0,50.66400146484375,1,1,195,195
715.11588400,715115884,0,-3.811564965872094e-05,0.0009293266921304166,-5.679177775164135e-05,0.19547902047634125,-0.24483217298984528,-9.862990379333496,0,0,50.66400146484375,1,1,195,195
715.12588000,715125880,0,-7.088338315952569e-05,0.0006459736614488065,-0.00023803777003195137,0.19502772390842438,-0.2445497065782547,-9.863097190856934,0,0,50.66400146484375,1,1,195,195
715.13603300,715136033,0,0.00019004882778972387,0.00046333842328749597,-0.00029475544579327106,0.19472236931324005,-0.244350865483284,-9.863290786743164,0,0,50.66400146484375,1,1,195,195
715.14639600,715146396,0,0.0001183696513180621,0.00047027869732119143,-0.00028075705631636083,0.19458431005477905,-0.24424904584884644,-9.863481521606445,0,0,50.66400146484375,1,1,195,195
715.15639900,715156399,0,-0.0009407369652763009,0.00035575576475821435,-0.0002884062414523214,0.19457583129405975,-0.2442346066236496,-9.863606452941895,0,0,50.66400146484375,1,1,195,195
715.16661200,715166612,0,-0.0021041890140622854,0.00020584526646416634,-0.00014688340888824314,0.1946413666009903,-0.2442774623632431,-9.863651275634766,0,0,50.66400146484375,1,1,195,195
715.17636300,715176363,0,-0.0023500705137848854,0.0002793425810523331,-1.4740729966433719e-05,0.19473081827163696,-0.2443503737449646,-9.86364459991455,0,0,50.66400146484375,1,1,195,195
715.18639300,715186393,0,-0.0017402389785274863,0.0004977172939106822,-0.00012388217146508396,0.19479916989803314,-0.24442876875400543,-9.863640785217285,0,0,50.66400146484375,1,1,195,195
715.19669100,715196691,0,-0.0012108179507777095,0.0005314592272043228,-0.0002740583731792867,0.19483432173728943,-0.24447663128376007,-9.863675117492676,0,0,50.66400146484375,1,1,195,195
715.20713000,715207130,0,-0.0008771815337240696,0.0005756458849646151,-0.00030880756094120443,0.19486045837402344,-0.24448294937610626,-9.86373519897461,0,0,50.66400146484375,1,1,195,195
715.21692300,715216923,0,8.694281859789044e-05,0.000984757556580007,-0.00028153369203209877,0.19487842917442322,-0.24445901811122894,-9.863810539245605,0,0,50.66400146484375,1,1,195,195
715.22736000,715227360,0,0.0013723226729780436,0.001434658421203494,-0.00017735123401507735,0.1948539912700653,-0.24437318742275238,-9.863921165466309,0,0,50.66400146484375,1,1,195,195
715.23751100,715237511,0,0.0019249951001256704,0.001551739638671279,-4.357057150627952e-06,0.19476379454135895,-0.24417653679847717,-9.864054679870605,0,0,50.66400146484375,1,1,195,195
715.24753000,715247530,0,0.001175604178570211,0.001170640578493476,0.00011463705595815554,0.19460825622081757,-0.2438679039478302,-9.864167213439941,0,0,50.66400146484375,1,1,195,195
715.25705600,715257056,0,-0.00010038435721071437,0.0005742079229094088,0.00018429795454721898,0.19439518451690674,-0.24348878860473633,-9.864238739013672,0,0,50.66400146484375,1,1,195,195
715.26742900,715267429,0,-0.0007436353480443358,0.00025617508799768984,0.0003219465143047273,0.19414584338665009,-0.24309778213500977,-9.864267349243164,0,0,50.66400146484375,1,1,195,195
715.27756500,715277565,0,-0.0009573564166203141,8.138772682286799e-05,0.0004121911770198494,0.1939004808664322,-0.24275434017181396,-9.864243507385254,0,0,50.66400146484375,1,1,195,195
715.28768300,715287683,0,-0.0011869203299283981,-4.3058917071903124e-05,0.000356604577973485,0.19370205700397491,-0.2424834668636322,-9.864171028137207,0,0,50.66400146484375,1,1,195,195
715.29806000,715298060,0,-0.0014313235878944397,-6.617498002015054e-05,0.000242332331254147,0.19357477128505707,-0.24225813150405884,-9.8640718460083,0,0,50.66400146484375,1,1,195,195
715.30810900,715308109,0,-0.0015291497111320496,-8.897134830476716e-05,6.995064177317545e-05,0.19350489974021912,-0.24205386638641357,-9.863946914672852,0,0,50.66400146484375,1,1,195,195
715.31824100,715318241,0,-0.0014322601491585374,-5.443930422188714e-05,-9.610609413357452e-05,0.19347280263900757,-0.24189066886901855,-9.86379337310791,0,0,50.66400146484375,1,1,195,195
715.32860200,715328602,0,-0.0012614959850907326,0.00010599042434478179,-0.00012096679711248726,0.19348174333572388,-0.24181407690048218,-9.863630294799805,0,0,50.66400146484375,1,1,195,195
715.33802700,715338027,0,-0.0008258664747700095,0.0004001831403002143,-0.00012611506099347025,0.19352731108665466,-0.2418574094772339,-9.863478660583496,0,0,50.66400146484375,1,1,195,195
715.34823800,715348238,0,-0.00029716535937041044,0.0006474416586570442,-0.0003314967034384608,0.1935914307832718,-0.2420077919960022,-9.863347053527832,0,0,50.66400146484375,1,1,195,195
715.35864500,715358645,0,0.00011878348595928401,0.0007707102922722697,-0.0006446019397117198,0.19367875158786774,-0.24221815168857574,-9.863218307495117,0,0,50.66400146484375,1,1,195,195
715.36856300,715368563,0,0.0003986023657489568,0.0008630267693661153,-0.0007892561843618751,0.19381429255008698,-0.24243901669979095,-9.863066673278809,0,0,50.66400146484375,1,1,195,195
715.37875300,715378753,0,0.000347371882526204,0.0008696304867044091,-0.0006668153218924999,0.19400617480278015,-0.24261899292469025,-9.862894058227539,0,0,50.66400146484375,1,1,195,195
715.38932700,715389327,0,0.00020076442160643637,0.0007813071715645492,-0.00038830231642350554,0.19424037635326385,-0.24271941184997559,-9.862740516662598,0,0,50.66400146484375,1,1,195,195
715.39938100,715399381,0,9.024596511153504e-05,0.0005597590352408588,-9.029574721353129e-05,0.19448310136795044,-0.24272708594799042,-9.862631797790527,0,0,50.66400146484375,1,1,195,195
715.40940200,715409402,0,-8.650838572066277e-05,0.00026570120826363564,0.00010542439122218639,0.19467608630657196,-0.24264469742774963,-9.862542152404785,0,0,50.66400146484375,1,1,195,195
715.41967000,715419670,0,-0.00020728835079353303,0.00010048520925920457,0.00026623447774909437,0.19477450847625732,-0.24251015484333038,-9.862401008605957,0,0,50.66400146484375,1,1,195,195
715.42908700,715429087,0,-0.00022477106540463865,-2.31648900808068e-05,0.00048389818402938545,0.19478768110275269,-0.2423856556415558,-9.86217975616455,0,0,50.66400146484375,1,1,195,195
715.43933300,715439333,0,-0.0002947759930975735,-0.00015516960411332548,0.0005276795127429068,0.1947595179080963,-0.24231986701488495,-9.861928939819336,0,0,50.64800262451172,1,1,195,195
715.44969100,715449691,0,-0.0005340346833691001,-5.4391166486311704e-05,0.00032171898055821657,0.19474343955516815,-0.24234192073345184,-9.861689567565918,0,0,50.64800262451172,1,1,195,195
715.45971200,715459712,0,-0.0008595153922215104,0.0001903491502162069,8.98292419151403e-05,0.19478024542331696,-0.24244248867034912,-9.861440658569336,0,0,50.64800262451172,1,1,195,195
715.46996700,715469967,0,-0.0011618270073086023,0.00019213781342841685,-3.2565710625931388e-06,0.19487112760543823,-0.2425847202539444,-9.861161231994629,0,0,50.64800262451172,1,1,195,195
715.48024300,715480243,0,-0.0013406166108325124,2.482270610926207e-05,9.372169733978808e-05,0.1949959099292755,-0.24274945259094238,-9.860886573791504,0,0,50.64800262451172,1,1,195,195
715.49029000,715490290,0,-0.0013196951476857066,7.313502283068374e-05,0.00031500213663093746,0.19515030086040497,-0.24293334782123566,-9.860679626464844,0,0,50.64800262451172,1,1,195,195
715.50050300,715500503,0,-0.0012074891710653901,0.00037292283377610147,0.00039391196332871914,0.19535821676254272,-0.2431333363056183,-9.860576629638672,0,0,50.64800262451172,1,1,195,195
715.51038700,715510387,0,-0.0011265241773799062,0.0006282456452026963,0.00017852179007604718,0.19564782083034515,-0.24332556128501892,-9.860560417175293,0,0,50.64800262451172,1,1,195,195
715.52027600,715520276,0,-0.001023830147460103,0.0007064960664138198,-2.9555165383499116e-05,0.19601577520370483,-0.24345380067825317,-9.860586166381836,0,0,50.64800262451172,1,1,195,195
715.53039200,715530392,0,-0.0008783948142081499,0.000684666505549103,-8.765408711042255e-05,0.19642378389835358,-0.2434750497341156,-9.86062240600586,0,0,50.64800262451172,1,1,195,195
715.54074400,715540744,0,-0.0006886310293339193,0.0005666681099683046,-0.00011527142487466335,0.19681626558303833,-0.2433934211730957,-9.860668182373047,0,0,50.64800262451172,1,1,195,195
715.55096200,715550962,0,-0.0005152142257429659,0.00042605516500771046,-0.00012286310084164143,0.19714362919330597,-0.24324819445610046,-9.860721588134766,0,0,50.64800262451172,1,1,195,195
715.56097200,715560972,0,-0.00043656991329044104,0.00040777921094559133,-0.00011938517855014652,0.19738981127738953,-0.24309584498405457,-9.860774993896484,0,0,50.64800262451172,1,1,195,195
715.57133000,715571330,0,-0.0004714280366897583,0.00045157026033848524,-5.970931397314416e-06,0.19756194949150085,-0.2429800033569336,-9.860847473144531,0,0,50.64800262451172,1,1,195,195
715.58134900,715581349,0,-0.0005536242970265448,0.0004636893863789737,0.00013754253450315446,0.19765979051589966,-0.2429114729166031,-9.860966682434082,0,0,50.64800262451172,1,1,195,195
715.59155300,715591553,0,-0.0005368488491512835,0.00045827904250472784,5.638649963657372e-05,0.19768361747264862,-0.24288569390773773,-9.861124038696289,0,0,50.64800262451172,1,1,195,195
715.60145600,715601456,0,-0.0005814370815642178,0.0003928954538423568,-0.00022140270448289812,0.1976480484008789,-0.24290528893470764,-9.861311912536621,0,0,50.64800262451172,1,1,195,195
715.61142100,715611421,0,-0.0007518624188378453,0.00036445423029363155,-0.000538208638317883,0.1975875049829483,-0.24299336969852448,-9.861515998840332,0,0,50.64800262451172,1,1,195,195
715.62153500,715621535,0,-0.0008960425038821995,0.000359288533218205,-0.0008110061171464622,0.19753296673297882,-0.2431771457195282,-9.861705780029297,0,0,50.64800262451172,1,1,195,195
715.63181700,715631817,0,-0.0010518374620005488,0.0001555953494971618,-0.0009034936665557325,0.1974840611219406,-0.2434525340795517,-9.86184024810791,0,0,50.64800262451172,1,1,195,195
715.64189500,715641895,0,-0.0010243698488920927,-5.000515375286341e-05,-0.0007335363188758492,0.19742654263973236,-0.24377331137657166,-9.861910820007324,0,0,50.64800262451172,1,1,195,195
715.65205500,715652055,0,-0.0007567685097455978,-5.187880105950171e-06,-0.0005244603380560875,0.19734063744544983,-0.2440769076347351,-9.861958503723145,0,0,50.64800262451172,1,1,195,195
715.66256600,715662566,0,-0.0006380212726071477,0.00025575136533007026,-0.00044337479630485177,0.19721588492393494,-0.2443353533744812,-9.862019538879395,0,0,50.64800262451172,1,1,195,195
715.67247500,715672475,0,-0.0006665472756139934,0.0006210188730619848,-0.0004394784045871347,0.19707106053829193,-0.2445588856935501,-9.862079620361328,0,0,50.64800262451172,1,1,195,195
715.68206600,715682066,0,-0.0006017967243678868,0.0008585651521570981,-0.0005259011522866786,0.19693008065223694,-0.24475686252117157,-9.862110137939453,0,0,50.64800262451172,1,1,195,195
715.69243300,715692433,0,-0.0005052834167145193,0.0008301071356981993,-0.0005330526037141681,0.19679339230060577,-0.24493084847927094,-9.862133979797363,0,0,50.64800262451172,1,1,195,195
715.70240300,715702403,0,-0.00041268012137152255,0.0005748445983044803,-0.00029024388641119003,0.19664734601974487,-0.24508929252624512,-9.862207412719727,0,0,50.64800262451172,1,1,195,195
715.71268400,715712684,0,-0.00023492288892157376,0.0002616946876514703,2.3978909666766413e-05,0.19647979736328125,-0.24525389075279236,-9.8623685836792,0,0,50.64800262451172,1,1,195,195
715.72298000,715722980,0,-0.00015696685295552015,8.814882312435657e-05,0.00025751610519364476,0.19629397988319397,-0.24545101821422577,-9.86262035369873,0,0,50.64800262451172,1,1,195,195
715.73300200,715733002,0,-0.00030011485796421766,6.829337507952005e-05,0.00040631796582601964,0.19612087309360504,-0.2457040697336197,-9.862923622131348,0,0,50.64800262451172,1,1,195,195
715.74321600,715743216,0,-0.0004152629990130663,0.00017846543050836772,0.00048520657583139837,0.19598813354969025,-0.2460266500711441,-9.863199234008789,0,0,50.64800262451172,1,1,195,195
715.75354400,715753544,0,-0.0004415938747115433,0.00038164496072568,0.0005677573499269783,0.19591324031352997,-0.24640260636806488,-9.863389015197754,0,0,50.64800262451172,1,1,195,195
715.76297500,715762975,0,-0.0005256157019175589,0.0005890834145247936,0.0007410679245367646,0.1959255486726761,-0.24678213894367218,-9.863484382629395,0,0,50.64800262451172,1,1,195,195
715.77318300,715773183,0,-0.0006205865065567195,0.0007048667757771909,0.0008708026725798845,0.19603677093982697,-0.2471206784248352,-9.863517761230469,0,0,50.64800262451172,1,1,195,195
715.78375800,715783758,0,-0.0006493399268947542,0.0007012926507741213,0.0008487258455716074,0.19622187316417694,-0.24741362035274506,-9.86352252960205,0,0,50.64800262451172,1,1,195,195
715.79358900,715793589,0,-0.0006407684995792806,0.0005887288716621697,0.0008111466886475682,0.1964440643787384,-0.2476850003004074,-9.863513946533203,0,0,50.64800262451172,1,1,195,195
715.80381500,715803815,0,-0.0007213933276943862,0.0004463499353732914,0.0007209245231933892,0.19667015969753265,-0.2479495108127594,-9.863490104675293,0,0,50.64800262451172,1,1,195,195
715.81420900,715814209,0,-0.0009866947075352073,0.00042321678483858705,0.00046538893366232514,0.19686345756053925,-0.2481713443994522,-9.863444328308105,0,0,50.64800262451172,1,1,195,195
715.82411200,715824112,0,-0.001182434381917119,0.0004616341320797801,0.00023406797845382243,0.19698432087898254,-0.24827678501605988,-9.863371849060059,0,0,50.64800262451172,1,1,195,195
715.83430100,715834301,0,-0.0010428907116875052,0.0005218630540184677,0.00021806472796015441,0.19702568650245667,-0.24823547899723053,-9.863268852233887,0,0,50.64800262451172,1,1,195,195
715.84466700,715844667,0,-0.0006654092576354742,0.000580602849368006,0.0002554377424530685,0.19702363014221191,-0.24808408319950104,-9.863160133361816,0,0,50.64800262451172,1,1,195,195
715.85407000,715854070,0,-0.00040689302841201425,0.00046901238965801895,0.0001529206201666966,0.19701069593429565,-0.2478560358285904,-9.863096237182617,0,0,50.64800262451172,1,1,195,195
715.86428600,715864286,0,-0.00041434451122768223,0.00024543821928091347,3.8373250390577596e-06,0.1970020979642868,-0.2475467473268509,-9.863128662109375,0,0,50.64800262451172,1,1,195,195
715.87465000,715874650,0,-0.000442066986579448,0.00017057408695109189,-8.53455057949759e-05,0.19700442254543304,-0.24714556336402893,-9.863280296325684,0,0,50.64800262451172,1,1,195,195
715.88484500,715884845,0,-0.0004213251522742212,0.0002342362276976928,-7.56037698010914e-05,0.19700951874256134,-0.24666449427604675,-9.863519668579102,0,0,50.64800262451172,1,1,195,195
715.89512900,715895129,0,-0.00048686389345675707,0.000298829167149961,-2.0522280465229414e-05,0.19701707363128662,-0.2461497187614441,-9.863770484924316,0,0,50.64800262451172,1,1,195,195
715.90528900,715905289,0,-0.0005279993056319654,0.00040376061224378645,4.532984166871756e-05,0.19704076647758484,-0.24566373229026794,-9.863975524902344,0,0,50.64800262451172,1,1,195,195
715.91519600,715915196,0,-0.00039133738027885556,0.0006125500658527017,0.00015597298624925315,0.19708570837974548,-0.24524828791618347,-9.864117622375488,0,0,50.64800262451172,1,1,195,195
715.92540200,715925402,0,-0.00024941712035797536,0.0008296731975860894,0.00010813426342792809,0.19714947044849396,-0.24490539729595184,-9.864215850830078,0,0,50.64800262451172,1,1,195,195
715.93517400,715935174,0,-0.00023838522611185908,0.0009025055915117264,-5.863432670594193e-05,0.19722963869571686,-0.24460847675800323,-9.86429500579834,0,0,50.64800262451172,1,1,195,195
715.94521400,715945214,0,-0.00029207352781668305,0.0008393250172957778,-3.8577927625738084e-05,0.19731709361076355,-0.24435441195964813,-9.864364624023438,0,0,50.6879997253418,1,1,195,195
715.95534700,715955347,0,-0.00036606795038096607,0.0008289868128485978,6.677732017124072e-05,0.19739654660224915,-0.24418212473392487,-9.864424705505371,0,0,50.6879997253418,1,1,195,195
715.96586900,715965869,0,-0.00038246423355303705,0.0008459411910735071,0.00013938617485109717,0.19746838510036469,-0.2441120147705078,-9.864469528198242,0,0,50.6879997253418,1,1,195,195
715.97574000,715975740,0,-0.00036809759330935776,0.0005565779865719378,0.0003399924316909164,0.19753997027873993,-0.24409876763820648,-9.864472389221191,0,0,50.6879997253418,1,1,195,195
715.98591300,715985913,0,-0.00039454104262404144,0.00012541201431304216,0.0005620846641249955,0.19759690761566162,-0.2440805584192276,-9.864396095275879,0,0,50.6879997253418,1,1,195,195
715.99627100,715996271,0,-0.00038258664426393807,-0.00013023869541939348,0.0005925199948251247,0.19761249423027039,-0.24403002858161926,-9.864228248596191,0,0,50.6879997253418,1,1,195,195
716.00664700,716006647,0,-0.000301982305245474,-0.00035680635483004153,0.0005253626150079072,0.19757692515850067,-0.2439299076795578,-9.864012718200684,0,0,50.6879997253418,1,1,195,195
716.01594400,716015944,0,-0.00020451699674595147,-0.0004720051947515458,0.0004775237466674298,0.1975168138742447,-0.24376502633094788,-9.863828659057617,0,0,50.6879997253418,1,1,195,195
716.02625900,716026259,0,-0.0001709374919300899,-0.0002478728420101106,0.00039570825174450874,0.19747699797153473,-0.24354316294193268,-9.863713264465332,0,0,50.6879997253418,1,1,195,195
716.03625900,716036259,0,-0.00022719078697264194,4.1400959162274376e-05,0.00026117078959941864,0.19749055802822113,-0.24329954385757446,-9.86366081237793,0,0,50.6879997253418,1,1,195,195
716.04647400,716046474,0,-0.00031524180667474866,9.39233141252771e-05,0.00012804841389879584,0.19757279753684998,-0.24308687448501587,-9.863630294799805,0,0,50.6879997253418,1,1,195,195
716.05680000,716056800,0,-0.0005064081051386893,-2.9728586014243774e-05,2.1928093701717444e-05,0.19770899415016174,-0.24293804168701172,-9.863570213317871,0,0,50.6879997253418,1,1,195,195
716.06683200,716066832,0,-0.000814373604953289,-0.00016043614596128464,2.362962277402403e-06,0.19785773754119873,-0.24285423755645752,-9.863476753234863,0,0,50.6879997253418,1,1,195,195
716.07704500,716077045,0,-0.000906573433894664,-0.0001633314968785271,2.8023128834320232e-05,0.19798888266086578,-0.24283607304096222,-9.863389015197754,0,0,50.6879997253418,1,1,195,195
716.08746300,716087463,0,-0.0006141093326732516,7.495885938624269e-07,1.7549984477227554e-05,0.19810350239276886,-0.24288377165794373,-9.863321304321289,0,0,50.6879997253418,1,1,195,195
716.09746700,716097467,0,-0.00024835686781443655,0.000317499041557312,9.721850074129179e-05,0.19821663200855255,-0.24299010634422302,-9.863245010375977,0,0,50.6879997253418,1,1,195,195
716.10704700,716107047,0,-7.791983080096543e-05,0.0005918865208514035,0.0002568693016655743,0.19832780957221985,-0.24315528571605682,-9.863131523132324,0,0,50.6879997253418,1,1,195,195
716.11736900,716117369,0,-8.71773881954141e-05,0.0006337689119391143,0.0002124934981111437,0.19842258095741272,-0.24336518347263336,-9.862987518310547,0,0,50.6879997253418,1,1,195,195
716.12741500,716127415,0,-0.00012779490498360246,0.00045094237430021167,-0.00013126088015269488,0.19849513471126556,-0.24356494843959808,-9.862835884094238,0,0,50.6879997253418,1,1,195,195
716.13761600,716137616,0,-0.00012269630678929389,9.156994929071516e-05,-0.00039207618101499975,0.19854037463665009,-0.24369849264621735,-9.862693786621094,0,0,50.6879997253418,1,1,195,195
716.14790400,716147904,0,-0.00014943034329917282,-0.00022842027829028666,-0.0002983473241329193,0.19854693114757538,-0.24375104904174805,-9.862532615661621,0,0,50.6879997253418,1,1,195,195
716.15793100,716157931,0,-0.0002914222131948918,-0.000360978243406862,-0.00010642005508998409,0.19850485026836395,-0.24373780190944672,-9.86230754852295,0,0,50.6879997253418,1,1,195,195
716.16816300,716168163,0,-0.0005657396395690739,-0.0003777666424866766,-1.086352585843997e-05,0.19839853048324585,-0.24367275834083557,-9.86202335357666,0,0,50.6879997253418,1,1,195,195
716.17846100,716178461,0,-0.0008490340551361442,-0.00028325265157036483,1.9749977582250722e-05,0.1982213407754898,-0.24357572197914124,-9.861739158630371,0,0,50.6879997253418,1,1,195,195
716.18851400,716188514,0,-0.0009752591140568256,-0.0002069165784632787,1.3279603990667965e-05,0.19798873364925385,-0.24347856640815735,-9.86149787902832,0,0,50.6879997253418,1,1,195,195
716.19810100,716198101,0,-0.000843471847474575,-0.000259697058936581,-9.629919986764435e-06,0.19772188365459442,-0.24338892102241516,-9.861303329467773,0,0,50.6879997253418,1,1,195,195
716.20872800,716208728,0,-0.0005618003197014332,-0.00015306167188100517,1.6803964172140695e-05,0.19744697213172913,-0.2432994693517685,-9.861124992370605,0,0,50.6879997253418,1,1,195,195
716.21874900,716218749,0,-0.00047488664858974516,0.00032466003904119134,0.00011425422417232767,0.1971873790025711,-0.24323873221874237,-9.860946655273438,0,0,50.6879997253418,1,1,195,195
716.22869300,716228693,0,-0.0006035513360984623,0.0008325467351824045,0.00017369714623782784,0.19694304466247559,-0.2432459592819214,-9.860797882080078,0,0,50.6879997253418,1,1,195,195
716.23907300,716239073,0,-0.0007044400554150343,0.0009910704102367163,0.00020322487398516387,0.1966998130083084,-0.24329999089241028,-9.860697746276855,0,0,50.6879997253418,1,1,195,195
716.24915100,716249151,0,-0.0007194385398179293,0.0008459837990812957,0.00026528729358687997,0.19645196199417114,-0.2433396577835083,-9.860620498657227,0,0,50.6879997253418,1,1,195,195
716.25925500,716259255,0,-0.0006904323818162084,0.0005318564362823963,0.0003306215221527964,0.19620144367218018,-0.24333123862743378,-9.860514640808105,0,0,50.6879997253418,1,1,195,195
716.26909600,716269096,0,-0.0004881343920715153,0.00025174961774609983,0.00038459873758256435,0.19595001637935638,-0.24327288568019867,-9.860336303710938,0,0,50.6879997253418,1,1,195,195
716.27904400,716279044,0,-0.00019037579477299005,0.0003592961293179542,0.000422475190134719,0.19569921493530273,-0.24317017197608948,-9.860072135925293,0,0,50.6879997253418,1,1,195,195
716.28919100,716289191,0,-0.00027456259704194963,0.0007361307507380843,0.00044516829075291753,0.19544345140457153,-0.24303540587425232,-9.85976791381836,0,0,50.6879997253418,1,1,195,195
716.29954800,716299548,0,-0.0006299298838712275,0.0009037721320055425,0.00035078407381661236,0.19514977931976318,-0.2428796887397766,-9.859519958496094,0,0,50.6879997253418,1,1,195,195
716.30965600,716309656,0,-0.0006232507294043899,0.0008856408530846238,0.00011379025090718642,0.19477498531341553,-0.24268515408039093,-9.859399795532227,0,0,50.6879997253418,1,1,195,195
716.31977600,716319776,0,-0.0002869036979973316,0.0009930030209943652,-0.00014447534340433776,0.19432970881462097,-0.24242205917835236,-9.85936164855957,0,0,50.6879997253418,1,1,195,195
716.33018000,716330180,0,-0.0002808963181450963,0.0010864270152524114,-0.00036183075280860066,0.19387997686862946,-0.24208517372608185,-9.859270095825195,0,0,50.6879997253418,1,1,195,195
716.34014700,716340147,0,-0.0007499186904169619,0.0008387106936424971,-0.0004113206232432276,0.19348478317260742,-0.24169817566871643,-9.859068870544434,0,0,50.6879997253418,1,1,195,195
716.35032100,716350321,0,-0.0013004906941205263,0.0004243174917064607,-0.00031814962858334184,0.19317570328712463,-0.24131758511066437,-9.858841896057129,0,0,50.6879997253418,1,1,195,195
716.36009200,716360092,0,-0.001465142471715808,0.0003282402758486569,-0.00022790790535509586,0.19297342002391815,-0.24102182686328888,-9.858689308166504,0,0,50.6879997253418,1,1,195,195
716.37013200,716370132,0,-0.0011495024664327502,0.0006139248143881559,-0.00010424420906929299,0.19288891553878784,-0.24085968732833862,-9.85863208770752,0,0,50.6879997253418,1,1,195,195
716.38031200,716380312,0,-0.0009828039910644293,0.000920184247661382,6.360068073263392e-05,0.19291026890277863,-0.24082502722740173,-9.858647346496582,0,0,50.6879997253418,1,1,195,195
716.39061800,716390618,0,-0.001078238245099783,0.001017706817947328,0.00021936287521384656,0.1930052489042282,-0.24089767038822174,-9.858726501464844,0,0,50.6879997253418,1,1,195,195
716.40095200,716400952,0,-0.0009113741107285023,0.0009962088661268353,0.00033854885259643197,0.19314460456371307,-0.24106590449810028,-9.858870506286621,0,0,50.6879997253418,1,1,195,195
716.41103700,716411037,0,-0.0006521822651848197,0.0008694268180988729,0.0003113537677563727,0.19330883026123047,-0.24129773676395416,-9.859051704406738,0,0,50.6879997253418,1,1,195,195
716.42130500,716421305,0,-0.001137478626333177,0.0004014066362287849,6.159307667985559e-05,0.1934664100408554,-0.2415221631526947,-9.859206199645996,0,0,50.6879997253418,1,1,195,195
716.43123500,716431235,0,-0.002093191258609295,-0.00018977063882630318,-0.0002451177278999239,0.19358216226100922,-0.24166879057884216,-9.859270095825195,0,0,50.6879997253418,1,1,195,195
716.44140700,716441407,0,-0.002347324974834919,-0.0005122128059156239,-0.0004657175450120121,0.19365978240966797,-0.24170292913913727,-9.859207153320312,0,0,50.6879997253418,1,1,195,195
716.45115400,716451154,0,-0.00168931158259511,-0.0005371528095565736,-0.0006015482940711081,0.19373780488967896,-0.2416222244501114,-9.859053611755371,0,0,50.6879997253418,1,1,195,195
716.46118100,716461181,0,-0.0005149301723577082,-0.0003096788132097572,-0.0006700147641822696,0.19383671879768372,-0.2414672076702118,-9.85887622833252,0,0,50.682003021240234,1,1,195,195
716.47144200,716471442,0,0.000568595074582845,-6.585831670236075e-06,-0.0006400872953236103,0.19394676387310028,-0.24130253493785858,-9.858697891235352,0,0,50.682003021240234,1,1,195,195
716.48179600,716481796,0,0.0008677590521983802,6.202908116392791e-05,-0.0004637304227799177,0.19405211508274078,-0.24117211997509003,-9.858500480651855,0,0,50.682003021240234,1,1,195,195
716.49186700,716491867,0,0.00036431997432373464,-0.00020562908321153373,-0.00019961767247878015,0.19413869082927704,-0.2410871684551239,-9.858293533325195,0,0,50.682003021240234,1,1,195,195
