timestamp,TimeUS,I,GyrX,GyrY,GyrZ,AccX,AccY,AccZ,EG,EA,T,GH,AH,GHz,AHz
29.22324100,29223241,0,-0.0009135131840594113,0.000983948353677988,-0.0003674589388538152,0.5157116651535034,-0.48183199763298035,-9.8419771194458,0,0,45.86800003051758,1,1,1261,1261
29.22584800,29225848,0,-0.0015704656252637506,0.0009835693053901196,-0.00024434749502688646,0.5184528827667236,-0.48240524530410767,-9.845951080322266,0,0,45.86800003051758,1,1,1261,1261
29.22829600,29228296,0,-0.0019322786247357726,0.0009421722497791052,-0.00049644336104393,0.5194700360298157,-0.482370525598526,-9.850932121276855,0,0,45.86800003051758,1,1,1261,1261
29.23097700,29230977,0,-0.0014932389603927732,0.0010607376461848617,-0.0006958511658012867,0.5162736773490906,-0.48298412561416626,-9.853922843933105,0,0,45.86800003051758,1,1,1261,1261
29.23330200,29233302,0,-0.0012785567669197917,0.0009426373871974647,-0.0006601858185604215,0.5158880352973938,-0.4842856824398041,-9.853839874267578,0,0,45.86800003051758,1,1,1261,1261
29.23574000,29235740,0,-0.0014332598075270653,0.0008056290098465979,0.00015228842676151544,0.5166119933128357,-0.4846896231174469,-9.85483455657959,0,0,45.86800003051758,1,1,1261,1261
29.23829600,29238296,0,-0.001682157046161592,0.0004929568967781961,0.0003087819495704025,0.5167534947395325,-0.48485806584358215,-9.858138084411621,0,0,45.86800003051758,1,1,1261,1261
29.24093200,29240932,0,-0.001642974908463657,5.4816769988974556e-05,0.0004877921601291746,0.5184524059295654,-0.48479071259498596,-9.86435317993164,0,0,45.86800003051758,1,1,1261,1261
29.24322200,29243222,0,-0.0009115485590882599,-0.0002979691489599645,0.0007637387607246637,0.5212998390197754,-0.4857443869113922,-9.867742538452148,0,0,45.86800003051758,1,1,1261,1261
29.24581000,29245810,0,4.181994154350832e-05,-2.4379492970183492e-05,0.0007979532820172608,0.5224760174751282,-0.4861494302749634,-9.867671012878418,0,0,45.86800003051758,1,1,1261,1261
29.24825500,29248255,0,0.0005107804317958653,0.0006124347564764321,0.0006996503798291087,0.5214407444000244,-0.4842054545879364,-9.86555004119873,0,0,45.86800003051758,1,1,1261,1261
29.25096300,29250963,0,0.00047993133193813264,0.0008279948378913105,0.0007037468021735549,0.5186938047409058,-0.4811664819717407,-9.864486694335938,0,0,45.86800003051758,1,1,1261,1261
29.25328300,29253283,0,0.000481769151519984,0.0006161050987429917,0.0004978717188350856,0.5181524157524109,-0.4795582890510559,-9.864579200744629,0,0,45.86800003051758,1,1,1261,1261
29.25576400,29255764,0,0.0007120785885490477,8.216274727601558e-05,0.0001322072494076565,0.5191799402236938,-0.4749988615512848,-9.863815307617188,0,0,45.86800003051758,1,1,1261,1261
29.25832000,29258320,0,0.0009239337523467839,-1.4303089301392902e-05,-0.0004343606415204704,0.5187861323356628,-0.47164300084114075,-9.863255500793457,0,0,45.86800003051758,1,1,1261,1261
29.26093800,29260938,0,0.0010592887410894036,4.8067147872643545e-05,-0.0013660478871315718,0.5186155438423157,-0.46796709299087524,-9.859241485595703,0,0,45.86800003051758,1,1,1261,1261
29.26330900,29263309,0,0.0007765142945572734,9.772575867827982e-05,-0.0015490263467654586,0.519157886505127,-0.46601781249046326,-9.854399681091309,0,0,45.86800003051758,1,1,1261,1261
29.26575700,29265757,0,0.00029758401797153056,0.0001373807026538998,-0.0013180272653698921,0.5208708047866821,-0.4649200737476349,-9.851011276245117,0,0,45.86800003051758,1,1,1261,1261
29.26833500,29268335,0,-0.00045786265400238335,0.00010151125025004148,-0.0007787271752022207,0.5242217779159546,-0.46455198526382446,-9.848145484924316,0,0,45.86800003051758,1,1,1261,1261
29.27096700,29270967,0,-0.0008763087680563331,0.00046934947022236884,-0.00037831394001841545,0.5250099897384644,-0.46450188755989075,-9.848714828491211,0,0,45.86800003051758,1,1,1261,1261
29.27322200,29273222,0,-0.0011697913287207484,0.0013395861024037004,0.00022362542222253978,0.5262540578842163,-0.46310514211654663,-9.849186897277832,0,0,45.86800003051758,1,1,1261,1261
29.27582200,29275822,0,-0.0012149341637268662,0.0017635573167353868,0.0006703371182084084,0.5273222923278809,-0.4627082943916321,-9.848406791687012,0,0,45.86800003051758,1,1,1261,1261
29.27825900,29278259,0,-0.0009437414701096714,0.0018666170071810484,0.0011362785007804632,0.5305262804031372,-0.46478521823883057,-9.847892761230469,0,0,45.86800003051758,1,1,1261,1261
29.28096700,29280967,0,-0.0005958520923741162,0.001612064428627491,0.0010240075644105673,0.5341836810112,-0.4691336154937744,-9.845693588256836,0,0,45.86800003051758,1,1,1261,1261
29.28331600,29283316,0,-0.0006895287660881877,0.0015498449793085456,0.0008486116421408951,0.535584032535553,-0.472441703081131,-9.844913482666016,0,0,45.86800003051758,1,1,1261,1261
29.28572500,29285725,0,-0.0004182635457254946,0.000857411592733115,0.0004371280665509403,0.5370885133743286,-0.47525185346603394,-9.844293594360352,0,0,45.900001525878906,1,1,1261,1261
29.28834000,29288340,0,-0.00023077741207089275,0.000547704694326967,0.00026934390189126134,0.5370789766311646,-0.47482332587242126,-9.842884063720703,0,0,45.900001525878906,1,1,1261,1261
29.29104700,29291047,0,-0.0001374053827021271,0.00047728640493005514,6.752548506483436e-05,0.5371317863464355,-0.4732836186885834,-9.841231346130371,0,0,45.900001525878906,1,1,1261,1261
29.29330800,29293308,0,-0.00028404835029505193,0.000504014955367893,-5.808220157632604e-05,0.5366858839988708,-0.47313418984413147,-9.840442657470703,0,0,45.900001525878906,1,1,1261,1261
29.29580300,29295803,0,-0.0007403228664770722,0.00039181672036647797,8.280397014459595e-05,0.5354633927345276,-0.47576668858528137,-9.839000701904297,0,0,45.900001525878906,1,1,1261,1261
29.29822900,29298229,0,-0.001046340330503881,-2.7418680019763997e-06,-0.0001442433858755976,0.5368450880050659,-0.47942760586738586,-9.840117454528809,0,0,45.900001525878906,1,1,1261,1261
29.30095600,29300956,0,-0.001039708498865366,-0.0006033191457390785,-0.00012681650696322322,0.5413676500320435,-0.48111435770988464,-9.846373558044434,0,0,45.900001525878906,1,1,1261,1261
29.30335700,29303357,0,-0.0009168604156002402,-0.001011664280667901,0.00022458245803136379,0.5448457598686218,-0.48044246435165405,-9.851157188415527,0,0,45.900001525878906,1,1,1261,1261
29.30580100,29305801,0,-0.0005772597505711019,-0.0008140511345118284,0.00024016323732212186,0.5485647320747375,-0.4826333224773407,-9.855375289916992,0,0,45.900001525878906,1,1,1261,1261
29.30840900,29308409,0,-3.216713230358437e-05,-0.0002688292588572949,-1.9653745766845532e-05,0.5494993329048157,-0.48615849018096924,-9.854921340942383,0,0,45.900001525878906,1,1,1261,1261
29.31097500,29310975,0,0.0002723132784012705,0.00016549510473851115,-3.8853751902934164e-05,0.5498069524765015,-0.48856890201568604,-9.852768898010254,0,0,45.900001525878906,1,1,1261,1261
29.31330600,29313306,0,0.0003115579311270267,-0.00017103170102927834,-3.558163734851405e-05,0.550406277179718,-0.49035775661468506,-9.8533353805542,0,0,45.900001525878906,1,1,1261,1261
29.31572800,29315728,0,0.00010831741383299232,-0.0003907310892827809,4.299826468923129e-05,0.5499690771102905,-0.49150606989860535,-9.856151580810547,0,0,45.900001525878906,1,1,1261,1261
29.31830500,29318305,0,-0.00033012329367920756,-0.00022925782832317054,-1.7873040633276105e-05,0.5480740070343018,-0.490547776222229,-9.856924057006836,0,0,45.900001525878906,1,1,1261,1261
29.32094200,29320942,0,-0.000617500685621053,4.669093686970882e-05,-0.00028728783945553005,0.5453910827636719,-0.4885876774787903,-9.85776138305664,0,0,45.900001525878906,1,1,1261,1261
29.32323400,29323234,0,-0.0008895934442989528,-0.00014623945753555745,-0.00034787357435561717,0.541006326675415,-0.48420706391334534,-9.85806941986084,0,0,45.900001525878906,1,1,1261,1261
29.32583400,29325834,0,-0.0011171922087669373,-0.0001875569432741031,-0.0004025805101264268,0.5389131307601929,-0.4810425341129303,-9.856303215026855,0,0,45.900001525878906,1,1,1261,1261
29.32825700,29328257,0,-0.0014218707801774144,-0.00013077992480248213,-0.000714613648597151,0.536013662815094,-0.4758613705635071,-9.856486320495605,0,0,45.900001525878906,1,1,1261,1261
29.33115300,29331153,0,-0.0012772997142747045,-0.00027208292158320546,-0.0006510851089842618,0.5353450179100037,-0.4729650318622589,-9.858386039733887,0,0,45.900001525878906,1,1,1261,1261
29.33327500,29333275,0,-0.0007707924814894795,-0.0004865434020757675,-0.0005661839968524873,0.5344204902648926,-0.47204509377479553,-9.859946250915527,0,0,45.900001525878906,1,1,1261,1261
29.33572300,29335723,0,-8.635908307041973e-05,-0.0007056908216327429,-0.0005844327388331294,0.5312700271606445,-0.47158944606781006,-9.860011100769043,0,0,45.900001525878906,1,1,1261,1261
29.33831100,29338311,0,-0.00011069168976973742,-0.0006953892298042774,-0.0005015277420170605,0.5290088057518005,-0.4717881679534912,-9.858871459960938,0,0,45.900001525878906,1,1,1261,1261
29.34089000,29340890,0,-0.00021539870067499578,-0.0003934134729206562,-7.322023884626105e-05,0.5250207185745239,-0.47379377484321594,-9.857988357543945,0,0,45.900001525878906,1,1,1261,1261
29.34331100,29343311,0,-0.0005314578302204609,-0.0005259796744212508,0.00016261545533780009,0.5224850177764893,-0.47482621669769287,-9.858567237854004,0,0,45.900001525878906,1,1,1261,1261
29.34578100,29345781,0,-0.0011539397528395057,-0.0006837839027866721,0.00017123644647654146,0.5201361775398254,-0.4751768708229065,-9.859289169311523,0,0,45.900001525878906,1,1,1261,1261
29.34824900,29348249,0,-0.0012610980775207281,-0.0006732164765708148,0.00010094673780258745,0.5179952383041382,-0.4749968349933624,-9.859723091125488,0,0,45.900001525878906,1,1,1261,1261
29.35097100,29350971,0,-0.0012523651821538806,-0.00029418509802781045,0.00019878610328305513,0.5161199569702148,-0.4745562970638275,-9.86009407043457,0,0,45.900001525878906,1,1,1261,1261
29.35322600,29353226,0,-0.0009629576234146953,4.402483318699524e-05,0.0007656065281480551,0.5172003507614136,-0.4732464551925659,-9.857206344604492,0,0,45.900001525878906,1,1,1261,1261
29.35600800,29356008,0,-0.0011105025187134743,0.0002244974602945149,0.001262693083845079,0.5202457904815674,-0.47338294982910156,-9.855581283569336,0,0,45.900001525878906,1,1,1261,1261
29.35830200,29358302,0,-0.0014351351419463754,0.0004977521602995694,0.0015363990096375346,0.5259889960289001,-0.4725978970527649,-9.854927062988281,0,0,45.900001525878906,1,1,1261,1261
29.36096800,29360968,0,-0.0013748392229899764,0.0004978888900950551,0.0017214210238307714,0.5303264260292053,-0.47059428691864014,-9.855345726013184,0,0,45.858001708984375,1,1,1261,1261
29.36331600,29363316,0,-0.0009346500737592578,0.00045780750224366784,0.001507819164544344,0.5327013731002808,-0.4699861705303192,-9.855755805969238,0,0,45.858001708984375,1,1,1261,1261
29.36571200,29365712,0,-0.0006995126022957265,0.0005636457353830338,0.0011159904533997178,0.5331413745880127,-0.4691002070903778,-9.854950904846191,0,0,45.858001708984375,1,1,1261,1261
29.36833300,29368333,0,-0.0005712288548238575,0.0004739271244034171,0.0008945075096562505,0.5316550731658936,-0.46851301193237305,-9.852765083312988,0,0,45.858001708984375,1,1,1261,1261
29.37091500,29370915,0,-0.0007410650723613799,0.0003587942919693887,0.0006490637315437198,0.5300112962722778,-0.4691601097583771,-9.85108470916748,0,0,45.858001708984375,1,1,1261,1261
29.37322900,29373229,0,-0.0009018067503347993,5.751045682700351e-05,0.00015209709818009287,0.5279944539070129,-0.47101137042045593,-9.851007461547852,0,0,45.858001708984375,1,1,1261,1261
29.37580800,29375808,0,-0.0007838721503503621,0.0001387156662531197,9.119794412981719e-05,0.5275509357452393,-0.4719548225402832,-9.852264404296875,0,0,45.858001708984375,1,1,1261,1261
29.37822900,29378229,0,-0.0004428672546055168,0.0001689451455604285,0.0002655487915035337,0.5265741944313049,-0.47376659512519836,-9.852341651916504,0,0,45.858001708984375,1,1,1261,1261
29.38096100,29380961,0,-0.00021553727856371552,0.00030213649733923376,0.0005562438745982945,0.525977373123169,-0.4727681875228882,-9.85097599029541,0,0,45.858001708984375,1,1,1261,1261
29.38324400,29383244,0,-6.054147888789885e-05,0.0003939456073567271,0.0004864090296905488,0.5264707803726196,-0.471423476934433,-9.850054740905762,0,0,45.858001708984375,1,1,1261,1261
29.38572600,29385726,0,0.0001596869115019217,0.00035734361154027283,0.0004500697832554579,0.5261452198028564,-0.47378525137901306,-9.851295471191406,0,0,45.858001708984375,1,1,1261,1261
29.38834800,29388348,0,0.00047321742749772966,0.0005553965456783772,0.00022191970492713153,0.5249724984169006,-0.4771544337272644,-9.853902816772461,0,0,45.858001708984375,1,1,1261,1261
29.39090700,29390907,0,0.00047169229947030544,0.0011031060712412,-0.0002843030379153788,0.5226930975914001,-0.4797670245170593,-9.858721733093262,0,0,45.858001708984375,1,1,1261,1261
29.39328200,29393282,0,0.00033940718276426196,0.0013762637972831726,-0.0007140509551391006,0.5196986198425293,-0.48031294345855713,-9.861174583435059,0,0,45.858001708984375,1,1,1261,1261
29.39578500,29395785,0,8.081606938503683e-05,0.001657996908761561,-0.000886759371496737,0.5161359906196594,-0.4801819622516632,-9.86033821105957,0,0,45.858001708984375,1,1,1261,1261
29.39822200,29398222,0,-0.0003579295880626887,0.0019077514298260212,-0.00028772241785191,0.5127630829811096,-0.4779675006866455,-9.857047080993652,0,0,45.858001708984375,1,1,1261,1261
29.40095000,29400950,0,-0.00046730515896342695,0.0016693973448127508,0.00011103006545454264,0.5115271210670471,-0.47640374302864075,-9.854284286499023,0,0,45.858001708984375,1,1,1261,1261
29.40330000,29403300,0,-0.0001841552584664896,0.0012988962698727846,0.00042013105121441185,0.5111479759216309,-0.476589173078537,-9.853033065795898,0,0,45.858001708984375,1,1,1261,1261
29.40573000,29405730,0,3.9766495319781825e-05,0.001003983779810369,0.0005101820570416749,0.5119656920433044,-0.47696036100387573,-9.854475975036621,0,0,45.858001708984375,1,1,1261,1261
29.40841800,29408418,0,7.049975829431787e-05,0.00047975656343623996,0.0004349247901700437,0.5142818093299866,-0.47648459672927856,-9.8560209274292,0,0,45.858001708984375,1,1,1261,1261
29.41092200,29410922,0,-0.0001660488051129505,0.00019539812637958676,0.00020645465701818466,0.5169742107391357,-0.4762861728668213,-9.855303764343262,0,0,45.858001708984375,1,1,1261,1261
29.41323400,29413234,0,-0.0005372437299229205,9.51108886511065e-05,-8.375916513614357e-05,0.5201849937438965,-0.4771856367588043,-9.85373306274414,0,0,45.858001708984375,1,1,1261,1261
29.41577900,29415779,0,-0.0008002607501111925,0.00017735350411385298,-0.0005882383557036519,0.5234885215759277,-0.4779297113418579,-9.850640296936035,0,0,45.858001708984375,1,1,1261,1261
29.41821500,29418215,0,-0.0009575986186973751,0.00036932367947883904,-0.0011027059517800808,0.5252497792243958,-0.4776018559932709,-9.847850799560547,0,0,45.858001708984375,1,1,1261,1261
29.42096300,29420963,0,-0.0008774988236837089,0.0005861754179932177,-0.0016599968075752258,0.5255128741264343,-0.4775161147117615,-9.8475341796875,0,0,45.858001708984375,1,1,1261,1261
29.42330400,29423304,0,-0.0006771997432224452,0.0009035653783939779,-0.0019250627374276519,0.5249885320663452,-0.47722962498664856,-9.84753704071045,0,0,45.858001708984375,1,1,1261,1261
29.42572000,29425720,0,-0.0002079384430544451,0.0009672939195297658,-0.0019768844358623028,0.5226764678955078,-0.4741233289241791,-9.846851348876953,0,0,45.858001708984375,1,1,1261,1261
29.42832000,29428320,0,3.588178878999315e-05,0.00031820862204767764,-0.0016822128091007471,0.521226167678833,-0.4719996750354767,-9.845541954040527,0,0,45.858001708984375,1,1,1261,1261
29.43114000,29431140,0,0.00016274995869025588,-0.000396803836338222,-0.0010339653817936778,0.5193352103233337,-0.4717865586280823,-9.845709800720215,0,0,45.858001708984375,1,1,1261,1261
29.43331300,29433313,0,0.0003191725118085742,-0.0007854118593968451,-0.0005981383146718144,0.5179515480995178,-0.47248005867004395,-9.848346710205078,0,0,45.88999938964844,1,1,1261,1261
29.43575700,29435757,0,0.00019014070858247578,-0.0005441416287794709,-0.00042490067426115274,0.5163009166717529,-0.472378134727478,-9.850950241088867,0,0,45.88999938964844,1,1,1261,1261
29.43821900,29438219,0,-0.00010821635805768892,-3.780092447414063e-05,-0.0002446185681037605,0.5147790908813477,-0.47176212072372437,-9.852893829345703,0,0,45.88999938964844,1,1,1261,1261
29.44106000,29441060,0,-0.00027249561389908195,0.00032551519689150155,1.3335242329048924e-05,0.5172708630561829,-0.4731213450431824,-9.852337837219238,0,0,45.88999938964844,1,1,1261,1261
29.44322200,29443222,0,-0.0002501722483430058,0.0008159988792613149,0.00038565133581869304,0.5211530923843384,-0.47871845960617065,-9.850048065185547,0,0,45.88999938964844,1,1,1261,1261
29.44579500,29445795,0,-0.0005269427201710641,0.0011792711447924376,0.0005126884789206088,0.5225009322166443,-0.4813686013221741,-9.848477363586426,0,0,45.88999938964844,1,1,1261,1261
29.44825600,29448256,0,-0.0008393158204853535,0.0008141238940879703,0.0005007474683225155,0.5243276953697205,-0.4828628897666931,-9.847851753234863,0,0,45.88999938964844,1,1,1261,1261
29.45098700,29450987,0,-0.0009440499707125127,0.0004609680618159473,0.0003868046624120325,0.5241729617118835,-0.4835886061191559,-9.848801612854004,0,0,45.88999938964844,1,1,1261,1261
29.45327900,29453279,0,-0.0007362314499914646,0.0006116616423241794,0.00015459598216693848,0.5235081315040588,-0.48426273465156555,-9.846078872680664,0,0,45.88999938964844,1,1,1261,1261
29.45571200,29455712,0,5.566306754190009e-06,0.000868958595674485,-8.688434172654524e-05,0.5229601860046387,-0.4854775071144104,-9.842377662658691,0,0,45.88999938964844,1,1,1261,1261
29.45829800,29458298,0,0.0002603044849820435,0.0008816649788059294,-0.0001539337245048955,0.5235584378242493,-0.4860211908817291,-9.841928482055664,0,0,45.88999938964844,1,1,1261,1261
29.46088200,29460882,0,2.457298614899628e-05,0.0005633967230096459,-0.0002172790700569749,0.52520751953125,-0.4863103926181793,-9.84259033203125,0,0,45.88999938964844,1,1,1261,1261
29.46328700,29463287,0,-0.00019792521197814494,0.0005872344481758773,-3.197753176209517e-05,0.5262339115142822,-0.4858590066432953,-9.844563484191895,0,0,45.88999938964844,1,1,1261,1261
29.46575700,29465757,0,-0.0003658925124909729,0.0008354131714440882,0.0001524703111499548,0.5281528830528259,-0.48380783200263977,-9.84759521484375,0,0,45.88999938964844,1,1,1261,1261
29.46824700,29468247,0,-9.87065868685022e-05,0.0011352996807545424,0.0003076184366364032,0.5298793315887451,-0.4811895787715912,-9.849032402038574,0,0,45.88999938964844,1,1,1261,1261
29.47096400,29470964,0,0.00033886285382322967,0.0013293186202645302,0.00027666272944770753,0.5307980179786682,-0.4780680537223816,-9.848909378051758,0,0,45.88999938964844,1,1,1261,1261
29.47323100,29473231,0,0.0005070347106084228,0.0013341018930077553,0.00011812688171630725,0.5320488810539246,-0.4765729010105133,-9.847103118896484,0,0,45.88999938964844,1,1,1261,1261
29.47577200,29475772,0,0.00028498010942712426,0.0012826627353206277,0.00036778036155737936,0.5327950119972229,-0.4762861430644989,-9.845709800720215,0,0,45.88999938964844,1,1,1261,1261
29.47824500,29478245,0,5.09467936353758e-05,0.000941943668294698,0.00031759930425323546,0.5348311066627502,-0.4761407673358917,-9.845063209533691,0,0,45.88999938964844,1,1,1261,1261
29.48094900,29480949,0,-6.124781793914735e-05,0.000596983649302274,-8.474342757835984e-05,0.5387159585952759,-0.4774167835712433,-9.849655151367188,0,0,45.88999938964844,1,1,1261,1261
29.48331900,29483319,0,-0.00011250554962316528,0.0004900664207525551,-0.00037579977652058005,0.5368946194648743,-0.4793800413608551,-9.853890419006348,0,0,45.88999938964844,1,1,1261,1261
29.48571900,29485719,0,-0.0001568931038491428,0.0001260024291696027,-0.000654050032608211,0.531879723072052,-0.48408079147338867,-9.85683822631836,0,0,45.88999938964844,1,1,1261,1261
29.48835000,29488350,0,-0.00019679997058119625,-0.00023880248772911727,-0.0005788196576759219,0.530343770980835,-0.4859316051006317,-9.856636047363281,0,0,45.88999938964844,1,1,1261,1261
29.49087000,29490870,0,-0.0005111684440635145,-0.0007197093218564987,-0.0003302181139588356,0.5308058857917786,-0.4843296706676483,-9.855107307434082,0,0,45.88999938964844,1,1,1261,1261
29.49337700,29493377,0,-0.0008580105495639145,-0.0008782388758845627,-0.00016989324649330229,0.5327909588813782,-0.48102444410324097,-9.853128433227539,0,0,45.88999938964844,1,1,1261,1261
29.49576300,29495763,0,-0.0009918087162077427,-0.0008924992871470749,-0.00025181256933137774,0.5353537201881409,-0.47807547450065613,-9.851107597351074,0,0,45.88999938964844,1,1,1261,1261
29.49822200,29498222,0,-0.00038795481668785214,-0.0008003080147318542,-0.0005301919882185757,0.541113018989563,-0.4743989109992981,-9.847018241882324,0,0,45.88999938964844,1,1,1261,1261
29.50095600,29500956,0,0.00025394701515324414,-0.00028048380045220256,-0.0005788938142359257,0.5438463687896729,-0.47318482398986816,-9.843769073486328,0,0,45.88999938964844,1,1,1261,1261
29.50330600,29503306,0,0.0006144257495179772,0.00025133739109151065,-0.0006306813447736204,0.5452789664268494,-0.4732128977775574,-9.8379487991333,0,0,45.88999938964844,1,1,1261,1261
29.50577300,29505773,0,0.0005131508223712444,0.0005044747376814485,-0.0006267117569223046,0.5451305508613586,-0.4745214283466339,-9.837084770202637,0,0,45.88999938964844,1,1,1261,1261
29.50836300,29508363,0,0.0003559569304343313,0.0006114939460530877,-0.0007990571903064847,0.5436246991157532,-0.4764193594455719,-9.83895492553711,0,0,45.874000549316406,1,1,1261,1261
29.51098100,29510981,0,-0.00010038865730166435,0.00040051041287370026,-0.0013774619437754154,0.5416984558105469,-0.4785030484199524,-9.842448234558105,0,0,45.874000549316406,1,1,1261,1261
29.51331000,29513310,0,-0.0009421747527085245,0.0005870827008038759,-0.0014548796461895108,0.5406771898269653,-0.48147961497306824,-9.844705581665039,0,0,45.874000549316406,1,1,1261,1261
29.51571300,29515713,0,-0.0014948250027373433,0.0007929736166261137,-0.0015670339344069362,0.538142740726471,-0.4830009341239929,-9.845370292663574,0,0,45.874000549316406,1,1,1261,1261
29.51830100,29518301,0,-0.0019443643977865577,0.0007660373230464756,-0.001514328527264297,0.5338975787162781,-0.48303189873695374,-9.843810081481934,0,0,45.874000549316406,1,1,1261,1261
29.52090300,29520903,0,-0.0019431409891694784,0.0006885172915644944,-0.0013387297512963414,0.5302549600601196,-0.4815217852592468,-9.84256362915039,0,0,45.874000549316406,1,1,1261,1261
29.52324300,29523243,0,-0.0018254431197419763,0.00046879140427336097,-0.0008143211016431451,0.5287822484970093,-0.4802420139312744,-9.844230651855469,0,0,45.874000549316406,1,1,1261,1261
29.52578700,29525787,0,-0.0013532013399526477,0.000496138643939048,-0.0005451787728816271,0.5271425247192383,-0.4791841208934784,-9.845855712890625,0,0,45.874000549316406,1,1,1261,1261
29.52824200,29528242,0,-0.0009126009535975754,0.0009755807113833725,-0.00012152543786214665,0.5243054628372192,-0.4779577851295471,-9.845738410949707,0,0,45.874000549316406,1,1,1261,1261
29.53115400,29531154,0,-0.0002515721716918051,0.0008754815207794309,4.9571630370337516e-05,0.5226432681083679,-0.4780312180519104,-9.844820976257324,0,0,45.874000549316406,1,1,1261,1261
29.53328900,29533289,0,1.2437564691936132e-05,0.0004640997212845832,9.59397220867686e-05,0.5223062038421631,-0.47773995995521545,-9.84401798248291,0,0,45.874000549316406,1,1,1261,1261
29.53573200,29535732,0,5.6650653277756646e-05,-0.00010720065620262176,0.00012099247396690771,0.5232396125793457,-0.4765896499156952,-9.84179973602295,0,0,45.874000549316406,1,1,1261,1261
29.53830900,29538309,0,-0.00020892782777082175,-0.0003741321270354092,0.00016028857498895377,0.5243176817893982,-0.4768504202365875,-9.841054916381836,0,0,45.874000549316406,1,1,1261,1261
29.54088900,29540889,0,-0.00032413136796094477,-0.0002786068362183869,0.00028914460563100874,0.5233031511306763,-0.47783082723617554,-9.842057228088379,0,0,45.874000549316406,1,1,1261,1261
29.54329100,29543291,0,7.053109584376216e-05,-5.138126289239153e-05,0.0003195773751940578,0.5216974020004272,-0.4791753590106964,-9.844171524047852,0,0,45.874000549316406,1,1,1261,1261
29.54576800,29545768,0,0.0002943721483461559,-6.827936886111274e-05,0.00024872797075659037,0.5211345553398132,-0.48001307249069214,-9.844880104064941,0,0,45.874000549316406,1,1,1261,1261
29.54824900,29548249,0,0.000577929022256285,-0.00012186376261524856,0.0004512920568231493,0.5209755897521973,-0.48215973377227783,-9.84273910522461,0,0,45.874000549316406,1,1,1261,1261
29.55096600,29550966,0,0.0007779512670822442,-0.00023971770133357495,0.0005952930077910423,0.5223334431648254,-0.48379695415496826,-9.842082977294922,0,0,45.874000549316406,1,1,1261,1261
29.55321700,29553217,0,0.0009353013010695577,-0.0005747029790654778,0.00047003061627037823,0.523594081401825,-0.4842359125614166,-9.845128059387207,0,0,45.874000549316406,1,1,1261,1261
29.55579600,29555796,0,0.001129625365138054,-0.0006015843246132135,0.0003062829782720655,0.523780345916748,-0.4834316074848175,-9.848166465759277,0,0,45.874000549316406,1,1,1261,1261
29.55825300,29558253,0,0.0011636213166639209,-0.0004381693433970213,0.00040369355701841414,0.5244612693786621,-0.4823569059371948,-9.849946975708008,0,0,45.874000549316406,1,1,1261,1261
29.56098900,29560989,0,0.0010776165872812271,-0.00022708946198690683,0.0005767642287537456,0.5262227654457092,-0.48117396235466003,-9.848062515258789,0,0,45.874000549316406,1,1,1261,1261
29.56329300,29563293,0,0.0006706496351398528,1.93446012417553e-05,0.00043002996244467795,0.5260125398635864,-0.48108989000320435,-9.847376823425293,0,0,45.874000549316406,1,1,1261,1261
29.56572900,29565729,0,0.00037730243639089167,0.0005869559827260673,0.0006013758247718215,0.524128794670105,-0.4815097749233246,-9.850000381469727,0,0,45.874000549316406,1,1,1261,1261
29.56831200,29568312,0,0.0003429418138694018,0.0006694532348774374,0.0008784050005488098,0.5243798494338989,-0.4826955497264862,-9.852694511413574,0,0,45.874000549316406,1,1,1261,1261
29.57092200,29570922,0,0.0006412592483684421,0.0005174341495148838,0.0011189030483365059,0.5243510007858276,-0.4848431646823883,-9.855537414550781,0,0,45.874000549316406,1,1,1261,1261
29.57329700,29573297,0,0.0011397756170481443,0.0003489348746370524,0.0009591524722054601,0.5244596600532532,-0.48541778326034546,-9.855208396911621,0,0,45.874000549316406,1,1,1261,1261
29.57579200,29575792,0,0.0013852836564183235,0.0001494497701060027,0.0010601242538541555,0.5252897143363953,-0.4857640862464905,-9.852828979492188,0,0,45.874000549316406,1,1,1261,1261
29.57821900,29578219,0,0.001185150584205985,-0.00027997829602099955,0.0010605022544041276,0.52677983045578,-0.4879191219806671,-9.850105285644531,0,0,45.874000549316406,1,1,1261,1261
29.58097000,29580970,0,0.00067129050148651,-0.0004968990106135607,0.001098975888453424,0.5277373194694519,-0.489250510931015,-9.85024642944336,0,0,45.874000549316406,1,1,1261,1261
29.58321900,29583219,0,0.00014880129310768098,-0.0002220223395852372,0.001139369560405612,0.5257853269577026,-0.48811015486717224,-9.851310729980469,0,0,45.88999938964844,1,1,1261,1261
29.58571900,29585719,0,-0.0002438155934214592,0.00031576206674799323,0.0010749063221737742,0.5225690603256226,-0.48549023270606995,-9.852396965026855,0,0,45.88999938964844,1,1,1261,1261
29.58832700,29588327,0,-0.0004155407950747758,0.0010584889678284526,0.0007416941807605326,0.521205723285675,-0.48244354128837585,-9.85184097290039,0,0,45.88999938964844,1,1,1261,1261
29.59103200,29591032,0,-0.00046477318392135203,0.0010951851727440953,0.00038975250208750367,0.5220302939414978,-0.4792870283126831,-9.849456787109375,0,0,45.88999938964844,1,1,1261,1261
29.59323700,29593237,0,-0.0003543721104506403,0.0010979402577504516,0.00044496802729554474,0.5209152698516846,-0.47687092423439026,-9.848210334777832,0,0,45.88999938964844,1,1,1261,1261
29.59578800,29595788,0,-0.000613901240285486,0.0006845018942840397,0.0006836485699750483,0.520233154296875,-0.47661978006362915,-9.850558280944824,0,0,45.88999938964844,1,1,1261,1261
29.59821900,29598219,0,-0.00110309396404773,0.00033476768294349313,0.0008544719312340021,0.5205171704292297,-0.47697049379348755,-9.853877067565918,0,0,45.88999938964844,1,1,1261,1261
29.60096300,29600963,0,-0.0013065967941656709,3.4087406675098464e-05,0.0007115843473002315,0.5190650224685669,-0.4761525094509125,-9.855069160461426,0,0,45.88999938964844,1,1,1261,1261
29.60359100,29603591,0,-0.0013620824320241809,5.010816948924912e-06,0.0005011120229028165,0.5176212191581726,-0.4740351140499115,-9.854986190795898,0,0,45.88999938964844,1,1,1261,1261
29.60572900,29605729,0,-0.001985276350751519,0.0003972784907091409,0.00033678262843750417,0.5185966491699219,-0.4725727438926697,-9.852364540100098,0,0,45.88999938964844,1,1,1261,1261
29.60840600,29608406,0,-0.002135463524609804,0.0007212276686914265,0.0003919097362086177,0.5204256176948547,-0.4725434482097626,-9.850005149841309,0,0,45.88999938964844,1,1,1261,1261
29.61088100,29610881,0,-0.0020098737441003323,0.0008701028418727219,0.0003669958095997572,0.520891010761261,-0.4711339771747589,-9.847979545593262,0,0,45.88999938964844,1,1,1261,1261
29.61330600,29613306,0,-0.001767100766301155,0.0010230587795376778,0.0002004640846280381,0.5212347507476807,-0.4699384868144989,-9.849538803100586,0,0,45.88999938964844,1,1,1261,1261
29.61575300,29615753,0,-0.0010284247109666467,0.0013917215401306748,-0.00022651487961411476,0.5236315131187439,-0.4681738018989563,-9.852823257446289,0,0,45.88999938964844,1,1,1261,1261
29.61826000,29618260,0,-2.7245057935942896e-05,0.001557257492095232,-0.0005954193766228855,0.5263231992721558,-0.46594828367233276,-9.854397773742676,0,0,45.88999938964844,1,1,1261,1261
29.62096100,29620961,0,0.0005634551052935421,0.002038425300270319,-0.000995742972008884,0.5292832851409912,-0.46283695101737976,-9.854676246643066,0,0,45.88999938964844,1,1,1261,1261
29.62323700,29623237,0,0.001279684598557651,0.0021601165644824505,-0.00118999311234802,0.5331964492797852,-0.4612656831741333,-9.854768753051758,0,0,45.88999938964844,1,1,1261,1261
29.62578800,29625788,0,0.0017622127197682858,0.0016240004915744066,-0.0010756149422377348,0.5366182327270508,-0.46115538477897644,-9.855264663696289,0,0,45.88999938964844,1,1,1261,1261
29.62827400,29628274,0,0.0017295447178184986,0.000604183180257678,-0.0010263362200930715,0.5394942760467529,-0.46126067638397217,-9.855195045471191,0,0,45.88999938964844,1,1,1261,1261
29.63114600,29631146,0,0.001532500609755516,0.00011858535435749218,-0.0008151066140271723,0.5414875745773315,-0.46133068203926086,-9.854899406433105,0,0,45.88999938964844,1,1,1261,1261
29.63327400,29633274,0,0.0012572875712066889,-6.729482265654951e-05,-0.0005299134645611048,0.5421584248542786,-0.4617082178592682,-9.853318214416504,0,0,45.88999938964844,1,1,1261,1261
29.63571500,29635715,0,0.0005621574237011373,-0.000604770437348634,-9.867713379207999e-05,0.5445461869239807,-0.4616645574569702,-9.847800254821777,0,0,45.88999938964844,1,1,1261,1261
29.63830700,29638307,0,-3.0317543860292062e-05,-0.0008783198427408934,0.00037926845834590495,0.5462955236434937,-0.4628904163837433,-9.84363079071045,0,0,45.88999938964844,1,1,1261,1261
29.64088800,29640888,0,-0.00045811719610355794,-0.0006877951673232019,0.0006303659756667912,0.547051191329956,-0.46632495522499084,-9.841653823852539,0,0,45.88999938964844,1,1,1261,1261
29.64321900,29643219,0,-0.0005372661980800331,-0.0002874360652640462,0.0006541489856317639,0.5465803742408752,-0.4708930253982544,-9.842399597167969,0,0,45.88999938964844,1,1,1261,1261
29.64581700,29645817,0,-0.00037225455162115395,4.169677049503662e-05,0.0007163266418501735,0.5457821488380432,-0.4734480082988739,-9.843265533447266,0,0,45.88999938964844,1,1,1261,1261
29.64823800,29648238,0,-0.00028884230414405465,0.0006672618328593671,0.0007047444814816117,0.5427090525627136,-0.47560781240463257,-9.842035293579102,0,0,45.88999938964844,1,1,1261,1261
29.65097600,29650976,0,-0.000614118471276015,0.0008484456920996308,0.000748863851185888,0.5405886173248291,-0.4764716625213623,-9.8394136428833,0,0,45.88999938964844,1,1,1261,1261
29.65323100,29653231,0,-0.0008876746287569404,0.0009666551486589015,0.0006446532788686454,0.5394625663757324,-0.47735196352005005,-9.837602615356445,0,0,45.88999938964844,1,1,1261,1261
29.65576600,29655766,0,-0.0009283488616347313,0.0009642253862693906,0.0008130501955747604,0.5370936989784241,-0.47904831171035767,-9.838123321533203,0,0,45.88999938964844,1,1,1261,1261
29.65828400,29658284,0,-0.0007697191904298961,0.0009229962015524507,0.0009802111890166998,0.5363701581954956,-0.4795224964618683,-9.840191841125488,0,0,45.906002044677734,1,1,1261,1261
29.66094100,29660941,0,0.00011479792010504752,0.000860771513544023,0.0007367264479398727,0.5336990356445312,-0.48026803135871887,-9.841554641723633,0,0,45.906002044677734,1,1,1261,1261
29.66329500,29663295,0,0.0006796031957492232,0.001080851536244154,0.0006358721293509007,0.5321150422096252,-0.4805319309234619,-9.840814590454102,0,0,45.906002044677734,1,1,1261,1261
29.66572300,29665723,0,0.0011721609625965357,0.001808304456062615,0.0011938328389078379,0.5311566591262817,-0.48417729139328003,-9.840201377868652,0,0,45.906002044677734,1,1,1261,1261
29.66831400,29668314,0,0.0009472696692682803,0.0019206617726013064,0.001541760633699596,0.5305663347244263,-0.4876030385494232,-9.839621543884277,0,0,45.906002044677734,1,1,1261,1261
29.67095300,29670953,0,0.0007267552427947521,0.0017542679561302066,0.0015035575488582253,0.5289267897605896,-0.4910140335559845,-9.840702056884766,0,0,45.906002044677734,1,1,1261,1261
29.67321800,29673218,0,0.0005432916805148125,0.001699532032944262,0.0009758581290952861,0.5247552394866943,-0.4938925802707672,-9.845474243164062,0,0,45.906002044677734,1,1,1261,1261
29.67579500,29675795,0,0.0005325441597960889,0.0016919920453801751,0.0006080775638110936,0.5218040943145752,-0.4950816333293915,-9.8478422164917,0,0,45.906002044677734,1,1,1261,1261
29.67820900,29678209,0,0.000568369694519788,0.001564323902130127,9.510893141850829e-05,0.5177733302116394,-0.4958312511444092,-9.849968910217285,0,0,45.906002044677734,1,1,1261,1261
29.68097800,29680978,0,0.0003149804542772472,0.0012855088571086526,-0.00014728713722433895,0.5164774060249329,-0.49547818303108215,-9.849869728088379,0,0,45.906002044677734,1,1,1261,1261
29.68324800,29683248,0,-0.0002947655157186091,0.0011441868264228106,-0.0003707213909365237,0.5176701545715332,-0.4951130449771881,-9.849863052368164,0,0,45.906002044677734,1,1,1261,1261
29.68571000,29685710,0,-0.000773036852478981,0.001152371522039175,-0.0008069589384831488,0.5201690196990967,-0.4945068359375,-9.851631164550781,0,0,45.906002044677734,1,1,1261,1261
29.68851700,29688517,0,-0.0010803906479850411,0.0010551613522693515,-0.0010120291262865067,0.5219500064849854,-0.49303942918777466,-9.855422973632812,0,0,45.906002044677734,1,1,1261,1261
29.69096800,29690968,0,-0.0015352516202256083,0.001070300117135048,-0.0008657178259454668,0.5230686068534851,-0.490800678730011,-9.858752250671387,0,0,45.906002044677734,1,1,1261,1261
29.69329900,29693299,0,-0.0018020779825747013,0.0009568384266458452,-0.00047268610796891153,0.5247637033462524,-0.489301472902298,-9.85913372039795,0,0,45.906002044677734,1,1,1261,1261
29.69570700,29695707,0,-0.0022204862907528877,0.0010506758699193597,-0.0002717002062126994,0.5271700024604797,-0.4883454740047455,-9.859203338623047,0,0,45.906002044677734,1,1,1261,1261
29.69830000,29698300,0,-0.0025118228513747454,0.0010168930748477578,0.00022844855266157538,0.5265059471130371,-0.48821505904197693,-9.858489036560059,0,0,45.906002044677734,1,1,1261,1261
29.70096300,29700963,0,-0.002509375335648656,0.0009261866798624396,0.0004727512423414737,0.5253697633743286,-0.48742905259132385,-9.858755111694336,0,0,45.906002044677734,1,1,1261,1261
29.70330200,29703302,0,-0.0017692489782348275,0.0010908582480624318,0.0006871703662909567,0.5240886211395264,-0.4841478168964386,-9.86101245880127,0,0,45.906002044677734,1,1,1261,1261
29.70581800,29705818,0,-0.0013476703315973282,0.0011588700581341982,0.0005265038344077766,0.5225363373756409,-0.48220089077949524,-9.861737251281738,0,0,45.906002044677734,1,1,1261,1261
29.70833300,29708333,0,-0.000593600096181035,0.0012579192407429218,0.0002355193573748693,0.5204738974571228,-0.4796946942806244,-9.85937213897705,0,0,45.906002044677734,1,1,1261,1261
29.71095900,29710959,0,-0.0001990998862311244,0.0014056714717298746,0.0001504555984865874,0.5206197500228882,-0.47800251841545105,-9.857170104980469,0,0,45.906002044677734,1,1,1261,1261
29.71327600,29713276,0,-4.072771480423398e-05,0.0013733702944591641,-0.00017151374777313322,0.5214890241622925,-0.47748440504074097,-9.858162879943848,0,0,45.906002044677734,1,1,1261,1261
29.71571500,29715715,0,0.0002442297409288585,0.0008767120307311416,-0.00035554025089368224,0.5247518420219421,-0.4771222174167633,-9.861808776855469,0,0,45.906002044677734,1,1,1261,1261
29.71829600,29718296,0,0.0003575473092496395,0.0007922622608020902,-0.0005922667915001512,0.5273902416229248,-0.4771535396575928,-9.862865447998047,0,0,45.906002044677734,1,1,1261,1261
29.72088700,29720887,0,0.0005368578131310642,0.0015734888147562742,-0.00046240250230766833,0.531160295009613,-0.47938093543052673,-9.86075210571289,0,0,45.906002044677734,1,1,1261,1261
29.72333200,29723332,0,0.0006883730529807508,0.0016767359338700771,-0.00038645221502520144,0.5331918597221375,-0.48124536871910095,-9.85828685760498,0,0,45.906002044677734,1,1,1261,1261
29.72575600,29725756,0,0.0010150029556825757,0.0014400993240997195,-0.0001937216002261266,0.5349587202072144,-0.48347607254981995,-9.85574722290039,0,0,45.906002044677734,1,1,1261,1261
29.72826400,29728264,0,0.0008849420701153576,0.0006717841606587172,-0.00029772031120955944,0.5361329913139343,-0.4851421117782593,-9.85411548614502,0,0,45.906002044677734,1,1,1261,1261
29.73113000,29731130,0,0.0007081393268890679,-0.0003006851766258478,-0.0006957878940738738,0.5350487232208252,-0.4844895899295807,-9.854999542236328,0,0,45.895999908447266,1,1,1261,1261
29.73329100,29733291,0,0.0006733856862410903,-0.0011908813612535596,-0.0011104282457381487,0.533185601234436,-0.48225584626197815,-9.857800483703613,0,0,45.895999908447266,1,1,1261,1261
29.73570900,29735709,0,0.0007537760538980365,-0.0013908222317695618,-0.0010101080406457186,0.5325812697410583,-0.4783273935317993,-9.85861587524414,0,0,45.895999908447266,1,1,1261,1261
29.73830700,29738307,0,0.0010890307603403926,-0.0012746567372232676,-0.0005570297362282872,0.5310145616531372,-0.47435471415519714,-9.858177185058594,0,0,45.895999908447266,1,1,1261,1261
29.74098400,29740984,0,0.0012601498747244477,-0.0011704779462888837,5.496113590197638e-05,0.5290353298187256,-0.47109609842300415,-9.858996391296387,0,0,45.895999908447266,1,1,1261,1261
29.74322100,29743221,0,0.0011028453009203076,-0.0011905679712072015,0.00044539550435729325,0.5292671322822571,-0.466998815536499,-9.859222412109375,0,0,45.895999908447266,1,1,1261,1261
29.74578600,29745786,0,0.0007009541732259095,-0.00125268311239779,0.00022057532623875886,0.531147837638855,-0.4608306288719177,-9.86037540435791,0,0,45.895999908447266,1,1,1261,1261
29.74823900,29748239,0,0.0005628034705296159,-0.0008439371013082564,0.0002898329694289714,0.5323468446731567,-0.4569668173789978,-9.86226749420166,0,0,45.895999908447266,1,1,1261,1261
29.75096800,29750968,0,0.0005273977294564247,-0.00035160552943125367,0.00035661301808431745,0.5340117812156677,-0.45681217312812805,-9.861068725585938,0,0,45.895999908447266,1,1,1261,1261
29.75325000,29753250,0,0.0006364775472320616,-7.194003410404548e-05,0.00016479718033224344,0.5361801385879517,-0.4580710530281067,-9.85777759552002,0,0,45.895999908447266,1,1,1261,1261
29.75571800,29755718,0,0.0006051695672795177,8.024679846130311e-05,-0.00021923545864410698,0.5388140678405762,-0.4618183374404907,-9.850666046142578,0,0,45.895999908447266,1,1,1261,1261
29.75832100,29758321,0,0.0004613487108144909,-0.00020953429338987917,-0.00039833193295635283,0.5402618050575256,-0.46500882506370544,-9.847899436950684,0,0,45.895999908447266,1,1,1261,1261
29.76092900,29760929,0,1.5041582628327888e-05,-0.0003980171459261328,-0.0001548343716422096,0.5410588383674622,-0.46915897727012634,-9.849761962890625,0,0,45.895999908447266,1,1,1261,1261
29.76332300,29763323,0,-9.19201920623891e-05,-0.00032257699058391154,-3.9847065636422485e-05,0.5398498773574829,-0.4725082516670227,-9.852072715759277,0,0,45.895999908447266,1,1,1261,1261
29.76573600,29765736,0,2.1797713998239487e-05,-0.00041041692020371556,0.00018259808712173253,0.5384123921394348,-0.4759852886199951,-9.857349395751953,0,0,45.895999908447266,1,1,1261,1261
29.76825200,29768252,0,0.0006199415074661374,-0.00030134429107420146,0.0004879352927673608,0.5370765924453735,-0.47684067487716675,-9.86106014251709,0,0,45.895999908447266,1,1,1261,1261
29.77099200,29770992,0,0.0005771811120212078,-0.00021823571296408772,0.0007144936826080084,0.5357365608215332,-0.47586506605148315,-9.861726760864258,0,0,45.895999908447266,1,1,1261,1261
29.77325500,29773255,0,0.000249374657869339,-0.0003465756890363991,0.0006851268117316067,0.5342715978622437,-0.4736161530017853,-9.859789848327637,0,0,45.895999908447266,1,1,1261,1261
29.77572100,29775721,0,-0.00017240156012121588,-0.00045595370465889573,0.0004256222164258361,0.5350582003593445,-0.4730690121650696,-9.861492156982422,0,0,45.895999908447266,1,1,1261,1261
29.77829100,29778291,0,-4.070173963555135e-05,-0.0004908948903903365,0.00044505184632726014,0.5368895530700684,-0.47208717465400696,-9.862740516662598,0,0,45.895999908447266,1,1,1261,1261
29.78092400,29780924,0,2.7618185413302854e-05,-0.00014861802628729492,0.0004188106395304203,0.5368788838386536,-0.47109848260879517,-9.861154556274414,0,0,45.895999908447266,1,1,1261,1261
29.78329200,29783292,0,-0.00019826507195830345,0.00020429793221410364,0.000449043873231858,0.5363067388534546,-0.4718044400215149,-9.857887268066406,0,0,45.895999908447266,1,1,1261,1261
29.78572400,29785724,0,-0.00019473933207336813,0.00023959996178746223,0.00038050953298807144,0.538928210735321,-0.47646671533584595,-9.853537559509277,0,0,45.895999908447266,1,1,1261,1261
29.78825500,29788255,0,-0.00026570927002467215,0.0001332839747192338,0.00029226471087895334,0.5397749543190002,-0.47856226563453674,-9.8518705368042,0,0,45.895999908447266,1,1,1261,1261
29.79096500,29790965,0,-0.00038087478606030345,0.00020689495431724936,7.062354416120797e-05,0.5395345091819763,-0.47917285561561584,-9.850004196166992,0,0,45.895999908447266,1,1,1261,1261
29.79328300,29793283,0,-0.00030376770882867277,0.00013127880811225623,-0.00024569020024500787,0.5397564768791199,-0.47995439171791077,-9.849027633666992,0,0,45.895999908447266,1,1,1261,1261
29.79572700,29795727,0,0.00023930799216032028,-2.5764433303265832e-05,-0.0003221276856493205,0.5393443703651428,-0.4822865128517151,-9.847647666931152,0,0,45.895999908447266,1,1,1261,1261
29.79822100,29798221,0,0.0005403666291385889,-8.195912960218266e-05,-0.0004904476227238774,0.5347710251808167,-0.48503485321998596,-9.850263595581055,0,0,45.895999908447266,1,1,1261,1261
29.80097000,29800970,0,0.0009103204356506467,-0.0003708544827532023,-0.000958373537287116,0.5315843224525452,-0.48708614706993103,-9.854771614074707,0,0,45.895999908447266,1,1,1261,1261
29.80329600,29803296,0,0.0014441815437749028,-0.0009899642318487167,-0.0012775585055351257,0.5308578014373779,-0.488582968711853,-9.859540939331055,0,0,45.895999908447266,1,1,1261,1261
29.80577100,29805771,0,0.001858609146438539,-0.0016952542355284095,-0.0013809429947286844,0.5311272144317627,-0.48814401030540466,-9.86299991607666,0,0,45.91600036621094,1,1,1261,1261
29.80839100,29808391,0,0.002035672776401043,-0.0020051500760018826,-0.0015434117522090673,0.5323530435562134,-0.486400842666626,-9.86516284942627,0,0,45.91600036621094,1,1,1261,1261
29.81089900,29810899,0,0.0017281601903960109,-0.001705497270449996,-0.0008342050714418292,0.5323754549026489,-0.4802340865135193,-9.8649263381958,0,0,45.91600036621094,1,1,1261,1261
29.81324100,29813241,0,0.0014356934698298573,-0.0012802841374650598,-1.4231344721338246e-05,0.5281407833099365,-0.474934458732605,-9.861715316772461,0,0,45.91600036621094,1,1,1261,1261
29.81576200,29815762,0,0.0014156269608065486,-0.000794192950706929,0.0004991689929738641,0.5241364240646362,-0.4728472828865051,-9.859829902648926,0,0,45.91600036621094,1,1,1261,1261
29.81825800,29818258,0,0.0014749323017895222,-0.0004486609250307083,0.0008461691322736442,0.5230712294578552,-0.47313618659973145,-9.859003067016602,0,0,45.91600036621094,1,1,1261,1261
29.82093900,29820939,0,0.001587170409038663,-0.00034860734012909234,0.0007947838166728616,0.5227867364883423,-0.47360759973526,-9.858736038208008,0,0,45.91600036621094,1,1,1261,1261
29.82332300,29823323,0,0.0015685393009334803,-0.0002864236303139478,0.0007078138878569007,0.5226603746414185,-0.4738845229148865,-9.858007431030273,0,0,45.91600036621094,1,1,1261,1261
29.82571400,29825714,0,0.0013250602642074227,4.9449106882093474e-05,0.0006276396452449262,0.5224863886833191,-0.47416672110557556,-9.856795310974121,0,0,45.91600036621094,1,1,1261,1261
29.82833100,29828331,0,0.001089494558982551,0.0003634254971984774,0.0006548381643369794,0.5234076976776123,-0.4736553430557251,-9.85593032836914,0,0,45.91600036621094,1,1,1261,1261
29.83107300,29831073,0,0.000998590956442058,0.0006583683425560594,0.0009172797435894608,0.5244120955467224,-0.4745394289493561,-9.855029106140137,0,0,45.91600036621094,1,1,1261,1261
29.83323000,29833230,0,0.000984936486929655,0.0008959861006587744,0.0010969669092446566,0.5255613327026367,-0.47454574704170227,-9.85378646850586,0,0,45.91600036621094,1,1,1261,1261
29.83578300,29835783,0,0.0009362470591440797,0.0007547266432084143,0.0008981357677839696,0.5279231071472168,-0.47524991631507874,-9.853073120117188,0,0,45.91600036621094,1,1,1261,1261
29.83824000,29838240,0,0.001363052288070321,0.0005640252493321896,-5.139799031894654e-05,0.5299569368362427,-0.4772075414657593,-9.853690147399902,0,0,45.91600036621094,1,1,1261,1261
29.84095200,29840952,0,0.0015911859227344394,0.0004498431517276913,-0.0006540438043884933,0.5306577682495117,-0.4777717590332031,-9.854873657226562,0,0,45.91600036621094,1,1,1261,1261
29.84329200,29843292,0,0.001770088798366487,0.0005812437157146633,-0.0009473849786445498,0.5295283198356628,-0.47733691334724426,-9.854379653930664,0,0,45.91600036621094,1,1,1261,1261
29.84571500,29845715,0,0.001585916499607265,0.0006382394931279123,-0.0013035028241574764,0.5285833477973938,-0.4770793616771698,-9.85504150390625,0,0,45.91600036621094,1,1,1261,1261
29.84833000,29848330,0,0.000910620903596282,0.0005499745602719486,-0.0014254237757995725,0.5284509062767029,-0.4772275388240814,-9.857240676879883,0,0,45.91600036621094,1,1,1261,1261
29.85088600,29850886,0,0.0005577761330641806,0.00041227592737413943,-0.001574174384586513,0.5278648138046265,-0.47707170248031616,-9.85798454284668,0,0,45.91600036621094,1,1,1261,1261
29.85330600,29853306,0,0.0004082235391251743,0.0005386921693570912,-0.00155845214612782,0.525833785533905,-0.4758429527282715,-9.857929229736328,0,0,45.91600036621094,1,1,1261,1261
29.85576700,29855767,0,0.00024217773170676082,0.0005142063018865883,-0.0014978164108470082,0.5247364044189453,-0.47469407320022583,-9.857524871826172,0,0,45.91600036621094,1,1,1261,1261
29.85824900,29858249,0,0.0003097467706538737,0.00044761691242456436,-0.0009400103008374572,0.5245866775512695,-0.4724395275115967,-9.855414390563965,0,0,45.91600036621094,1,1,1261,1261
29.86097600,29860976,0,0.00025486486265435815,0.0002293396246386692,-0.0009298649383708835,0.5239981412887573,-0.4733808636665344,-9.854113578796387,0,0,45.91600036621094,1,1,1261,1261
29.86321500,29863215,0,1.1652296961983666e-05,-0.00028426130302250385,-0.0006613280274905264,0.526061475276947,-0.4744225740432739,-9.85193157196045,0,0,45.91600036621094,1,1,1261,1261
29.86578500,29865785,0,-0.0003179269260726869,-0.0004818181914743036,-0.00010767461935756728,0.5283113121986389,-0.4761373996734619,-9.851092338562012,0,0,45.91600036621094,1,1,1261,1261
29.86823200,29868232,0,-0.0004603769048117101,-0.0003622408548835665,0.00014371653378475457,0.5304900407791138,-0.47788485884666443,-9.85084056854248,0,0,45.91600036621094,1,1,1261,1261
29.87096100,29870961,0,-0.0005589676438830793,-1.2997791600355413e-05,0.00036244228249415755,0.5340930819511414,-0.47886863350868225,-9.849813461303711,0,0,45.91600036621094,1,1,1261,1261
29.87327700,29873277,0,-0.0004884549998678267,-0.00010449373803567141,0.00041403641807846725,0.536041259765625,-0.47926589846611023,-9.847429275512695,0,0,45.91600036621094,1,1,1261,1261
29.87572100,29875721,0,-0.00021077535348013043,-0.00044780244934372604,8.955218504524964e-07,0.5357822179794312,-0.48165521025657654,-9.845913887023926,0,0,45.91600036621094,1,1,1261,1261
29.87829300,29878293,0,-0.0001300098665524274,-0.00032607311732135713,-0.0001231071655638516,0.5362722277641296,-0.4826454222202301,-9.847443580627441,0,0,45.91600036621094,1,1,1261,1261
29.88088400,29880884,0,0.00016947418043855578,-0.000184129094122909,1.0590140846034046e-05,0.5394967198371887,-0.48388734459877014,-9.850893020629883,0,0,45.86800003051758,1,1,1261,1261
29.88328500,29883285,0,0.0003751880722120404,-0.0003456870617810637,7.2444654506398365e-06,0.5404617786407471,-0.4842347502708435,-9.8508939743042,0,0,45.86800003051758,1,1,1261,1261
29.88575600,29885756,0,0.00019523166702128947,-0.00018948462093248963,-0.0001743942266330123,0.5381315350532532,-0.4824100136756897,-9.848785400390625,0,0,45.86800003051758,1,1,1261,1261
29.88828900,29888289,0,-0.00012123539636377245,0.00026727962540462613,-0.0004500359355006367,0.5354220867156982,-0.4817057251930237,-9.846123695373535,0,0,45.86800003051758,1,1,1261,1261
29.89105500,29891055,0,-0.00036702948273159564,0.00045521106221713126,-0.0004878306353930384,0.5343704223632812,-0.4813168942928314,-9.84393310546875,0,0,45.86800003051758,1,1,1261,1261
29.89321700,29893217,0,-0.00010549386206548661,0.00025778418057598174,-0.0006959625752642751,0.5315101742744446,-0.47933048009872437,-9.846312522888184,0,0,45.86800003051758,1,1,1261,1261
29.89579200,29895792,0,0.00030105694895610213,0.00034262987901456654,-0.0006565808434970677,0.5300533771514893,-0.4765283167362213,-9.84921646118164,0,0,45.86800003051758,1,1,1261,1261
29.89824000,29898240,0,0.0009282011887989938,0.0004161698743700981,-0.0004543466493487358,0.5285562872886658,-0.47413545846939087,-9.852438926696777,0,0,45.86800003051758,1,1,1261,1261
29.90095500,29900955,0,0.0010154469637200236,0.00027150107780471444,-0.00020852980378549546,0.5262145400047302,-0.47238248586654663,-9.851037979125977,0,0,45.86800003051758,1,1,1261,1261
29.90334900,29903349,0,0.0008787875412963331,0.0002604024775791913,0.00010690811177482828,0.5244326591491699,-0.4711073935031891,-9.846863746643066,0,0,45.86800003051758,1,1,1261,1261
29.90572800,29905728,0,0.0009605286759324372,-0.0001738429709803313,8.400375372730196e-05,0.5250239372253418,-0.47169727087020874,-9.84434700012207,0,0,45.86800003051758,1,1,1261,1261
29.90839200,29908392,0,0.0007942379452288151,-0.0003819349512923509,-0.0002443102712277323,0.5256511569023132,-0.47228407859802246,-9.846002578735352,0,0,45.86800003051758,1,1,1261,1261
29.91089000,29910890,0,0.0005742566427215934,-0.0004932222072966397,-0.0007735852850601077,0.5252647399902344,-0.47411492466926575,-9.848413467407227,0,0,45.86800003051758,1,1,1261,1261
29.91329800,29913298,0,0.0005650760722346604,-0.00013926243991591036,-0.0011448238510638475,0.5255451202392578,-0.4762476682662964,-9.851128578186035,0,0,45.86800003051758,1,1,1261,1261
29.91575000,29915750,0,0.0005476997466757894,0.0002721825730986893,-0.0014029134763404727,0.5262754559516907,-0.47629812359809875,-9.851366996765137,0,0,45.86800003051758,1,1,1261,1261
29.91822100,29918221,0,0.0005120144342072308,0.0009029324864968657,-0.0015875259414315224,0.5280402302742004,-0.4769330322742462,-9.847871780395508,0,0,45.86800003051758,1,1,1261,1261
29.92096800,29920968,0,-7.685009768465534e-05,0.0011617307318374515,-0.0015811625635251403,0.5287908911705017,-0.4767952859401703,-9.846417427062988,0,0,45.86800003051758,1,1,1261,1261
29.92326000,29923260,0,-0.00010615569044603035,0.0010820722673088312,-0.0015412004431709647,0.528914213180542,-0.47783148288726807,-9.84704875946045,0,0,45.86800003051758,1,1,1261,1261
29.92571600,29925716,0,5.300718839862384e-05,0.0009136300650425255,-0.0011172284139320254,0.5290160775184631,-0.47881805896759033,-9.849799156188965,0,0,45.86800003051758,1,1,1261,1261
29.92831300,29928313,0,0.00017805039533413947,0.0008245451026596129,-0.0009625492966733873,0.5289073586463928,-0.4776161015033722,-9.851912498474121,0,0,45.86800003051758,1,1,1261,1261
29.93114100,29931141,0,0.00017552114150021225,0.001248072599992156,-0.0007317657582461834,0.5314364433288574,-0.47629034519195557,-9.852421760559082,0,0,45.86800003051758,1,1,1261,1261
29.93330800,29933308,0,9.53137205215171e-05,0.0014269871171563864,-0.0006447581108659506,0.5333811640739441,-0.47589942812919617,-9.851269721984863,0,0,45.86800003051758,1,1,1261,1261
29.93572000,29935720,0,-0.0003893158573191613,0.0013414999702945352,-8.158788841683418e-05,0.5345708131790161,-0.47615504264831543,-9.850727081298828,0,0,45.86800003051758,1,1,1261,1261
29.93826300,29938263,0,-0.0009605208761058748,0.001276639522984624,0.0005132821970619261,0.5344899296760559,-0.47638148069381714,-9.852087020874023,0,0,45.86800003051758,1,1,1261,1261
29.94094000,29940940,0,-0.001281387754715979,0.0011929516913369298,0.0011428012512624264,0.5325319170951843,-0.4771229326725006,-9.854753494262695,0,0,45.86800003051758,1,1,1261,1261
29.94323100,29943231,0,-0.001451974269002676,0.0011795534519478679,0.0017101455014199018,0.5313262939453125,-0.4774150848388672,-9.855835914611816,0,0,45.86800003051758,1,1,1261,1261
29.94578600,29945786,0,-0.0012913718819618225,0.0011942159617319703,0.0016637229127809405,0.5320373773574829,-0.4779195189476013,-9.854096412658691,0,0,45.86800003051758,1,1,1261,1261
29.94824400,29948244,0,-0.0014565859455615282,0.001284391270019114,0.0011804146924987435,0.53286212682724,-0.479897677898407,-9.849621772766113,0,0,45.86800003051758,1,1,1261,1261
29.95095900,29950959,0,-0.0014025956625118852,0.0010860917391255498,0.0008882292895577848,0.5330352783203125,-0.48093050718307495,-9.847088813781738,0,0,45.86800003051758,1,1,1261,1261
29.95326100,29953261,0,-0.001327264471910894,0.0007017619209364057,0.0005282903439365327,0.5331300497055054,-0.48250216245651245,-9.844087600708008,0,0,45.86800003051758,1,1,1261,1261
29.95573400,29955734,0,-0.0010245987214148045,0.00024293667229358107,1.1461735084594693e-05,0.5324417352676392,-0.48448705673217773,-9.843804359436035,0,0,45.88199996948242,1,1,1261,1261
29.95830000,29958300,0,-0.00027904685703106225,0.0002728839754126966,-0.0006742185796611011,0.5304179191589355,-0.48663708567619324,-9.846410751342773,0,0,45.88199996948242,1,1,1261,1261
29.96092600,29960926,0,0.00028813836979679763,0.0003537875018082559,-0.0012313227634876966,0.5278061032295227,-0.48823076486587524,-9.848648071289062,0,0,45.88199996948242,1,1,1261,1261
29.96333800,29963338,0,0.0008074644720181823,0.0004538154462352395,-0.001393773127347231,0.5275049805641174,-0.48912906646728516,-9.848502159118652,0,0,45.88199996948242,1,1,1261,1261
29.96571400,29965714,0,0.0009704841068014503,0.0006105079082772136,-0.0015076398849487305,0.5284059643745422,-0.4891851544380188,-9.850327491760254,0,0,45.88199996948242,1,1,1261,1261
29.96832200,29968322,0,0.0007304899045266211,0.0007245664019137621,-0.0016442042542621493,0.5297449231147766,-0.48649463057518005,-9.854493141174316,0,0,45.88199996948242,1,1,1261,1261
29.97091800,29970918,0,0.0005324322846718132,0.001037344802170992,-0.0015077150892466307,0.5302169919013977,-0.4828426241874695,-9.856407165527344,0,0,45.88199996948242,1,1,1261,1261
29.97322000,29973220,0,0.0002588382048998028,0.001505003310739994,-0.0008454330381937325,0.5298075079917908,-0.4771668612957001,-9.856204986572266,0,0,45.88199996948242,1,1,1261,1261
29.97581200,29975812,0,8.213784167310223e-05,0.001433296361938119,-0.0006420121062546968,0.5290915966033936,-0.47528666257858276,-9.853507041931152,0,0,45.88199996948242,1,1,1261,1261
29.97821400,29978214,0,-0.0006779632531106472,0.00104566290974617,-0.00016722516738809645,0.5273463726043701,-0.4751031696796417,-9.846556663513184,0,0,45.88199996948242,1,1,1261,1261
29.98098100,29980981,0,-0.0006924616754986346,0.000783001072704792,0.00018038910639006644,0.527749240398407,-0.47479498386383057,-9.844515800476074,0,0,45.88199996948242,1,1,1261,1261
29.98323300,29983233,0,-0.000977728283032775,0.00022397282009478658,0.0005321448552422225,0.5317637324333191,-0.47399720549583435,-9.844632148742676,0,0,45.88199996948242,1,1,1261,1261
29.98572600,29985726,0,-0.0011367736151441932,0.00016501540085300803,0.0007106533739715815,0.5348732471466064,-0.4742773175239563,-9.845898628234863,0,0,45.88199996948242,1,1,1261,1261
29.98831000,29988310,0,-0.0010433829156681895,0.0005049186875112355,0.0008650790550746024,0.5347350239753723,-0.47498151659965515,-9.84484577178955,0,0,45.88199996948242,1,1,1261,1261
29.99091400,29990914,0,-0.0006310376338660717,0.00037665991112589836,0.0007184013957157731,0.5355514287948608,-0.4742543399333954,-9.841443061828613,0,0,45.88199996948242,1,1,1261,1261
29.99322700,29993227,0,-0.0005378025816753507,0.00012332567712292075,0.00040123489452525973,0.5368102788925171,-0.47245585918426514,-9.838232040405273,0,0,45.88199996948242,1,1,1261,1261
29.99579400,29995794,0,-0.0004322874592617154,-0.0003161079657729715,-0.00015901321603450924,0.5385379195213318,-0.47266024351119995,-9.837411880493164,0,0,45.88199996948242,1,1,1261,1261
29.99824500,29998245,0,-0.000396750052459538,-0.0006927018985152245,-0.0005532470531761646,0.5394418835639954,-0.4734746813774109,-9.842164039611816,0,0,45.88199996948242,1,1,1261,1261
30.00095100,30000951,0,-0.00021572198602370918,-0.0007132304599508643,-0.0004488297854550183,0.5380797982215881,-0.47618845105171204,-9.849618911743164,0,0,45.88199996948242,1,1,1261,1261
30.00337300,30003373,0,0.0003227903798688203,-0.00042887727613560855,-0.0005106335738673806,0.5379199981689453,-0.4775192141532898,-9.85292911529541,0,0,45.88199996948242,1,1,1261,1261
30.00572500,30005725,0,0.0006534373387694359,2.0506300643319264e-05,-0.0006382543360814452,0.5369570851325989,-0.4767206609249115,-9.852178573608398,0,0,45.88199996948242,1,1,1261,1261
30.00839700,30008397,0,0.0008480578544549644,0.00041652709478512406,-0.0004920937353745103,0.5357282757759094,-0.4761820435523987,-9.851658821105957,0,0,45.88199996948242,1,1,1261,1261
30.01091700,30010917,0,0.0006219685892574489,0.00021155289141461253,-0.0003688339493237436,0.5365612506866455,-0.4749602675437927,-9.851869583129883,0,0,45.88199996948242,1,1,1261,1261
30.01329900,30013299,0,0.00024288884014822543,-4.596198414219543e-05,-0.0001716154656605795,0.535995602607727,-0.4730306565761566,-9.853652954101562,0,0,45.88199996948242,1,1,1261,1261
30.01579100,30015791,0,-4.224549775244668e-05,-7.514477329095826e-05,-0.00011101350537501276,0.5342889428138733,-0.47101640701293945,-9.8551607131958,0,0,45.88199996948242,1,1,1261,1261
30.01821200,30018212,0,-0.00019113736925646663,0.0003229329304303974,-0.00014036201173439622,0.5298380851745605,-0.4680795669555664,-9.856741905212402,0,0,45.88199996948242,1,1,1261,1261
30.02115400,30021154,0,-0.00022883900965098292,0.0006079157465137541,2.3317979866988026e-05,0.5280554294586182,-0.4671408236026764,-9.854753494262695,0,0,45.88199996948242,1,1,1261,1261
30.02322000,30023220,0,-0.00013949170534033328,0.00046308586024679244,0.00018017565889749676,0.52727210521698,-0.46834805607795715,-9.851325035095215,0,0,45.88199996948242,1,1,1261,1261
30.02579800,30025798,0,-4.641298437491059e-05,0.00029309873934835196,9.698996291263029e-05,0.5260217785835266,-0.46985122561454773,-9.848431587219238,0,0,45.88199996948242,1,1,1262,1262
30.02828400,30028284,0,-4.9208370910491794e-05,0.00026683288160711527,8.587218326283619e-05,0.5248368382453918,-0.47081902623176575,-9.847723960876465,0,0,45.900001525878906,1,1,1262,1262
30.03114900,30031149,0,5.471216718433425e-05,-5.842767222929979e-06,-0.00010938198101939633,0.5220983028411865,-0.47299373149871826,-9.847086906433105,0,0,45.900001525878906,1,1,1262,1262
30.03329700,30033297,0,-0.00010803103941725567,-0.0004033491713926196,-0.00016102481458801776,0.5200455188751221,-0.4747275710105896,-9.847047805786133,0,0,45.900001525878906,1,1,1262,1262
30.03571500,30035715,0,-1.4779156117583625e-05,-0.0008609473006799817,-0.00048073846846818924,0.5167419910430908,-0.47846072912216187,-9.844913482666016,0,0,45.900001525878906,1,1,1262,1262
30.03827300,30038273,0,0.00013503889204002917,-0.0009884978644549847,-0.0005587799823842943,0.5160393118858337,-0.4796734154224396,-9.843080520629883,0,0,45.900001525878906,1,1,1262,1262
30.04103700,30041037,0,0.00020195392426103354,-0.0006838814588263631,-5.279116976453224e-06,0.5181931257247925,-0.481271356344223,-9.844584465026855,0,0,45.900001525878906,1,1,1262,1262
30.04322500,30043225,0,0.00021442020079120994,-0.000716265058144927,0.00027421704726293683,0.5197100639343262,-0.4810021221637726,-9.847333908081055,0,0,45.900001525878906,1,1,1262,1262
30.04578600,30045786,0,0.0001259476412087679,-0.0006343480781652033,0.0004443375510163605,0.5203897356987,-0.47858455777168274,-9.851754188537598,0,0,45.900001525878906,1,1,1262,1262
30.04827400,30048274,0,0.00046389552881009877,-0.0007548104622401297,0.0007158640655688941,0.5187256336212158,-0.4762078523635864,-9.855937004089355,0,0,45.900001525878906,1,1,1262,1262
30.05099800,30050998,0,0.0008344047819264233,-0.0010431631235405803,0.0010140168014913797,0.5160067677497864,-0.4743323028087616,-9.860039710998535,0,0,45.900001525878906,1,1,1262,1262
30.05330300,30053303,0,0.0013687548926100135,-0.0009545247303321958,0.0008351001888513565,0.5152220726013184,-0.4721684753894806,-9.861444473266602,0,0,45.900001525878906,1,1,1262,1262
30.05571300,30055713,0,0.0015962382312864065,-0.0006651147268712521,0.0006683962419629097,0.5170809030532837,-0.46972304582595825,-9.8615140914917,0,0,45.900001525878906,1,1,1262,1262
30.05831600,30058316,0,0.0014647163916379213,-0.0003151457931380719,0.0005203282926231623,0.518021821975708,-0.46933287382125854,-9.86262321472168,0,0,45.900001525878906,1,1,1262,1262
30.06091500,30060915,0,0.0015302785905078053,0.00025971748982556164,1.2561187759274617e-05,0.5191195607185364,-0.46945080161094666,-9.864886283874512,0,0,45.900001525878906,1,1,1262,1262
30.06332300,30063323,0,0.0014830883592367172,0.0008612712263129652,-0.00016737925761844963,0.5196155309677124,-0.4707372486591339,-9.865705490112305,0,0,45.900001525878906,1,1,1262,1262
30.06577700,30065777,0,0.001189416041597724,0.0011270359391346574,-0.000394996750401333,0.5195413827896118,-0.47342583537101746,-9.864230155944824,0,0,45.900001525878906,1,1,1262,1262
30.06824900,30068249,0,0.0009849265916272998,0.0009277102071791887,-0.0006990453694015741,0.5198488235473633,-0.47800832986831665,-9.861682891845703,0,0,45.900001525878906,1,1,1262,1262
30.07096000,30070960,0,0.0004468933620955795,0.0006877684500068426,-0.0009396073292009532,0.5213691592216492,-0.4808453321456909,-9.861309051513672,0,0,45.900001525878906,1,1,1262,1262
30.07322400,30073224,0,-0.0001571060565765947,0.0003689349687192589,-0.0008772707660682499,0.5236347317695618,-0.48195210099220276,-9.861991882324219,0,0,45.900001525878906,1,1,1262,1262
30.07576800,30075768,0,-0.00057768210535869,-0.00010887036478379741,-0.0008606482879258692,0.5270599722862244,-0.4828137457370758,-9.86112117767334,0,0,45.900001525878906,1,1,1262,1262
30.07825000,30078250,0,-0.0005356849287636578,-0.0002823432150762528,-0.0008519813418388367,0.5301257371902466,-0.48433545231819153,-9.859317779541016,0,0,45.900001525878906,1,1,1262,1262
30.08095800,30080958,0,-0.000259833614109084,-0.000492977793328464,-0.0007140144589357078,0.5370221734046936,-0.48489701747894287,-9.857236862182617,0,0,45.900001525878906,1,1,1262,1262
30.08332800,30083328,0,-0.00041115880594588816,-0.0006556364824064076,-0.000675523595418781,0.5400918126106262,-0.4841725528240204,-9.856144905090332,0,0,45.900001525878906,1,1,1262,1262
30.08571400,30085714,0,-0.0008990524220280349,-0.0011658871080726385,-0.0003382751310709864,0.5425471067428589,-0.48417243361473083,-9.851679801940918,0,0,45.900001525878906,1,1,1262,1262
30.08835100,30088351,0,-0.0008911275072023273,-0.0016501363134011626,-0.0001749515358824283,0.5420708656311035,-0.4836714267730713,-9.849275588989258,0,0,45.900001525878906,1,1,1262,1262
30.09087300,30090873,0,-0.0008871950558386743,-0.0016911114798858762,-0.0004885747912339866,0.5376546382904053,-0.48109564185142517,-9.847943305969238,0,0,45.900001525878906,1,1,1262,1262
30.09323600,30093236,0,-0.0007001545745879412,-0.0012595322914421558,-0.00040183833334594965,0.534946084022522,-0.4787151515483856,-9.8477144241333,0,0,45.900001525878906,1,1,1262,1262
30.09577600,30095776,0,-0.0007047731196507812,-0.0009085644851438701,-1.0616498911986127e-05,0.5348971486091614,-0.47779685258865356,-9.846659660339355,0,0,45.900001525878906,1,1,1262,1262
30.09821100,30098211,0,-0.0007858352037146688,-0.0007218958926387131,0.0007601628312841058,0.5318617820739746,-0.4771229326725006,-9.844562530517578,0,0,45.900001525878906,1,1,1262,1262
30.10098100,30100981,0,-0.0008828344289213419,-0.0008598216227255762,0.0007645583827979863,0.5297470092773438,-0.47557979822158813,-9.844292640686035,0,0,45.900001525878906,1,1,1262,1262
30.10357400,30103574,0,-0.0008704022038727999,-0.0012025204487144947,0.0004464669618755579,0.5265824198722839,-0.47478628158569336,-9.84736442565918,0,0,45.84400177001953,1,1,1262,1262
30.10578100,30105781,0,-0.0004537460335996002,-0.0012910864315927029,4.995900599169545e-05,0.5222985744476318,-0.47792401909828186,-9.852607727050781,0,0,45.84400177001953,1,1,1262,1262
30.10845200,30108452,0,5.321227217791602e-05,-0.0012068375945091248,6.359261169563979e-05,0.5222080945968628,-0.4815656840801239,-9.854510307312012,0,0,45.84400177001953,1,1,1262,1262
30.11089900,30110899,0,0.00044430489651858807,-0.0010492504807189107,0.0004060666251461953,0.5245142579078674,-0.48633095622062683,-9.85399055480957,0,0,45.84400177001953,1,1,1262,1262
30.11329900,30113299,0,0.0004198157403152436,-0.0011408862192183733,0.0006656270707026124,0.5259367227554321,-0.4880129098892212,-9.853117942810059,0,0,45.84400177001953,1,1,1262,1262
30.11576000,30115760,0,-7.646019366802648e-05,-0.0013256125384941697,0.0007433214923366904,0.5278606414794922,-0.4897772967815399,-9.854165077209473,0,0,45.84400177001953,1,1,1262,1262
30.11821500,30118215,0,-0.0004982456448487937,-0.0011807359987869859,0.0004847522941417992,0.5290818810462952,-0.4915468692779541,-9.858624458312988,0,0,45.84400177001953,1,1,1262,1262
30.12096100,30120961,0,-0.0010333032114431262,-0.0007268092595040798,-0.00013304849562700838,0.5287096500396729,-0.49266675114631653,-9.861456871032715,0,0,45.84400177001953,1,1,1262,1262
30.12323000,30123230,0,-0.0012080945307388902,-0.00013052779831923544,-0.00021102200844325125,0.5272298455238342,-0.49393630027770996,-9.858851432800293,0,0,45.84400177001953,1,1,1262,1262
30.12578400,30125784,0,-0.0013380534946918488,0.00013393555127549917,-0.00019852300465572625,0.5272047519683838,-0.4954826831817627,-9.851808547973633,0,0,45.84400177001953,1,1,1262,1262
30.12823900,30128239,0,-0.001259840209968388,-0.00023054139455780387,-0.0005962775903753936,0.5274574160575867,-0.49632999300956726,-9.847466468811035,0,0,45.84400177001953,1,1,1262,1262
30.13113500,30131135,0,-0.0010084849782288074,-0.000664290739223361,-0.0005941117997281253,0.5258039832115173,-0.4954548478126526,-9.847061157226562,0,0,45.84400177001953,1,1,1262,1262
30.13326500,30133265,0,-0.0006911646923981607,-0.0009137067827396095,-0.0005950985942035913,0.5239734053611755,-0.4947045147418976,-9.847671508789062,0,0,45.84400177001953,1,1,1262,1262
30.13571700,30135717,0,-0.00011061427358072251,-0.0009109857492148876,-0.000937879376579076,0.5225123763084412,-0.4906053841114044,-9.848392486572266,0,0,45.84400177001953,1,1,1262,1262
30.13832100,30138321,0,0.0002936077944468707,-0.0010088048875331879,-0.0011005762498825788,0.5236270427703857,-0.4868587553501129,-9.848603248596191,0,0,45.84400177001953,1,1,1262,1262
30.14088400,30140884,0,0.0008441943791694939,-0.0013716156827285886,-0.0009068427607417107,0.5287275314331055,-0.4827612042427063,-9.845742225646973,0,0,45.84400177001953,1,1,1262,1262
30.14322900,30143229,0,0.0009598360047675669,-0.0013993486063554883,-0.0004390320973470807,0.5324931144714355,-0.48119890689849854,-9.842022895812988,0,0,45.84400177001953,1,1,1262,1262
30.14579500,30145795,0,0.0009165030787698925,-0.001559410709887743,-0.0002647011715453118,0.5336316823959351,-0.48062145709991455,-9.840485572814941,0,0,45.84400177001953,1,1,1262,1262
30.14823600,30148236,0,0.0008359574130736291,-0.001461939187720418,-0.000144173827720806,0.5326850414276123,-0.4782623052597046,-9.840699195861816,0,0,45.84400177001953,1,1,1262,1262
30.15098800,30150988,0,0.0007825624197721481,-0.0016925763338804245,-0.00016438776219729334,0.5313177108764648,-0.47561341524124146,-9.840216636657715,0,0,45.84400177001953,1,1,1262,1262
30.15326400,30153264,0,0.00042421993566676974,-0.0011862622341141105,5.454976417240687e-05,0.529852569103241,-0.4727064371109009,-9.838976860046387,0,0,45.84400177001953,1,1,1262,1262
30.15571300,30155713,0,7.994261250132695e-05,-0.0006554796127602458,0.0005811158334836364,0.529364287853241,-0.4714067280292511,-9.839457511901855,0,0,45.84400177001953,1,1,1262,1262
30.15829900,30158299,0,-0.00021523777104448527,-0.0005836057243868709,0.0007249550544656813,0.5302541255950928,-0.4728708863258362,-9.841657638549805,0,0,45.84400177001953,1,1,1262,1262
30.16088600,30160886,0,-0.0005683206836692989,-0.0005950377089902759,0.0006691954913549125,0.5333821773529053,-0.4744303524494171,-9.84791088104248,0,0,45.84400177001953,1,1,1262,1262
30.16329100,30163291,0,-0.00042210446554236114,-0.0007901265053078532,0.0004542925162240863,0.5352462530136108,-0.473802387714386,-9.851452827453613,0,0,45.84400177001953,1,1,1262,1262
30.16575000,30165750,0,0.0002343844826100394,-0.0009144433424808085,-8.13987135188654e-05,0.534183144569397,-0.47251754999160767,-9.854353904724121,0,0,45.84400177001953,1,1,1262,1262
30.16828300,30168283,0,0.0011387390550225973,-0.0006978808669373393,-0.0003743177803698927,0.5333764553070068,-0.4716014862060547,-9.852917671203613,0,0,45.84400177001953,1,1,1262,1262
30.17095500,30170955,0,0.001520973164588213,-0.0004444195074029267,-0.0005680437316186726,0.5345847010612488,-0.4732116460800171,-9.850144386291504,0,0,45.84400177001953,1,1,1262,1262
30.17323200,30173232,0,0.0015829006442800164,-0.0005285887746140361,-0.0006100465543568134,0.5343317985534668,-0.47759750485420227,-9.850813865661621,0,0,45.84400177001953,1,1,1262,1262
30.17578200,30175782,0,0.001117435866035521,-0.0007288039778359234,-0.00026793047436513007,0.5338714718818665,-0.47930189967155457,-9.855378150939941,0,0,45.84400177001953,1,1,1262,1262
30.17822100,30178221,0,0.0007468053954653442,-0.0008281797636300325,4.389570312923752e-05,0.5330600738525391,-0.47925886511802673,-9.858311653137207,0,0,45.842002868652344,1,1,1262,1262
30.18095500,30180955,0,0.00012124583008699119,-0.0006028069765307009,5.597288327408023e-05,0.5309078693389893,-0.47870364785194397,-9.857518196105957,0,0,45.842002868652344,1,1,1262,1262
30.18330000,30183300,0,-5.042376142228022e-05,-0.0004050846619065851,0.00010620682587614283,0.5282160043716431,-0.47779542207717896,-9.854813575744629,0,0,45.842002868652344,1,1,1262,1262
30.18571300,30185713,0,3.187152469763532e-05,4.663045547204092e-05,0.00028281399863772094,0.5244622230529785,-0.47716259956359863,-9.84951114654541,0,0,45.842002868652344,1,1,1262,1262
30.18832600,30188326,0,0.00025801497395150363,0.0002708242100197822,0.00033969536889344454,0.5232385993003845,-0.4779532849788666,-9.846665382385254,0,0,45.842002868652344,1,1,1262,1262
30.19101200,30191012,0,0.0002587814233265817,9.43293434829684e-06,0.00012377211533021182,0.5213531255722046,-0.47857922315597534,-9.844921112060547,0,0,45.842002868652344,1,1,1262,1262
30.19328500,30193285,0,0.0004503032541833818,5.786009205621667e-05,-0.00020093793864361942,0.5205063819885254,-0.47933056950569153,-9.844572067260742,0,0,45.842002868652344,1,1,1262,1262
30.19574600,30195746,0,0.0006670758011750877,0.0005136759718880057,-0.00034627006971277297,0.5197290182113647,-0.4795403778553009,-9.845839500427246,0,0,45.842002868652344,1,1,1262,1262
30.19822300,30198223,0,0.0008725780062377453,0.0007430575205944479,-0.0008526238962076604,0.5189989805221558,-0.478892058134079,-9.846041679382324,0,0,45.842002868652344,1,1,1262,1262
30.20095100,30200951,0,0.0008381025982089341,0.0004128474392928183,-0.0009798486717045307,0.5206219553947449,-0.47798392176628113,-9.844278335571289,0,0,45.842002868652344,1,1,1262,1262
30.20330400,30203304,0,0.000269792479230091,4.3113966967212036e-05,-0.0009462642483413219,0.5253379940986633,-0.47580698132514954,-9.841926574707031,0,0,45.842002868652344,1,1,1262,1262
30.20579400,30205794,0,-0.00035870791180059314,0.00012929698277730495,-0.0008594750543124974,0.5276252031326294,-0.4745400846004486,-9.84285831451416,0,0,45.842002868652344,1,1,1262,1262
30.20834100,30208341,0,-0.001086013508029282,9.360533294966444e-05,-0.0007792810210958123,0.5280689597129822,-0.4716131389141083,-9.84789752960205,0,0,45.842002868652344,1,1,1262,1262
30.21097200,30210972,0,-0.0010991737945005298,-7.897619070718065e-05,-0.0010948155540972948,0.5268045663833618,-0.46984952688217163,-9.851425170898438,0,0,45.842002868652344,1,1,1262,1262
30.21328400,30213284,0,-0.0012884081806987524,2.8872102120658383e-05,-0.0012971963733434677,0.524776041507721,-0.46765679121017456,-9.85409164428711,0,0,45.842002868652344,1,1,1262,1262
30.21571900,30215719,0,-0.0007840669131837785,0.0003956891887355596,-0.00148285913746804,0.5234595537185669,-0.46687841415405273,-9.854179382324219,0,0,45.842002868652344,1,1,1262,1262
30.21829600,30218296,0,-0.0004399782046675682,0.0007051517604850233,-0.0014015608467161655,0.5240800380706787,-0.4674322307109833,-9.853731155395508,0,0,45.842002868652344,1,1,1262,1262
30.22088200,30220882,0,-0.0005382825620472431,0.0007408956298604608,-0.0010498047340661287,0.5272006392478943,-0.4672216475009918,-9.856269836425781,0,0,45.842002868652344,1,1,1262,1262
30.22331400,30223314,0,-0.0005726632080040872,0.0008519266848452389,-0.0008980472921393812,0.5299578309059143,-0.46612685918807983,-9.85800552368164,0,0,45.842002868652344,1,1,1262,1262
30.22576500,30225765,0,-0.00036506602191366255,0.0008348057745024562,-0.0009238430648110807,0.5327517986297607,-0.4647851288318634,-9.858399391174316,0,0,45.842002868652344,1,1,1262,1262
30.22823800,30228238,0,-0.00033572816755622625,0.0007657721871510148,-0.0008025405695661902,0.5352811217308044,-0.46484309434890747,-9.858821868896484,0,0,45.842002868652344,1,1,1262,1262
30.23113500,30231135,0,-0.000192232386325486,0.0009139273315668106,-0.0003579301992431283,0.5382200479507446,-0.4664295017719269,-9.857527732849121,0,0,45.842002868652344,1,1,1262,1262
30.23321000,30233210,0,-0.0005076241213828325,0.0008679296006448567,-0.00010758687858469784,0.5409685969352722,-0.4687884449958801,-9.856049537658691,0,0,45.842002868652344,1,1,1262,1262
30.23580600,30235806,0,-0.0008986374014057219,0.000736285641323775,0.0002099846606142819,0.5437795519828796,-0.471891850233078,-9.85583782196045,0,0,45.842002868652344,1,1,1262,1262
30.23823400,30238234,0,-0.0011613245587795973,0.0006065753987058997,0.00048750897985883057,0.5444799065589905,-0.47447144985198975,-9.855910301208496,0,0,45.842002868652344,1,1,1262,1262
30.24096300,30240963,0,-0.0007755237747915089,0.0003707564319483936,0.0005442864494398236,0.5424169301986694,-0.4772486388683319,-9.856531143188477,0,0,45.842002868652344,1,1,1262,1262
30.24331800,30243318,0,-0.0004719783319160342,-0.00015006147441454232,0.0002917352830991149,0.540705680847168,-0.4778781533241272,-9.855583190917969,0,0,45.842002868652344,1,1,1262,1262
30.24573000,30245730,0,-0.0002123910962836817,-0.000982730882242322,-0.0002091237111017108,0.5380390882492065,-0.4793621301651001,-9.85051441192627,0,0,45.842002868652344,1,1,1262,1262
30.24832200,30248322,0,2.1517105778912082e-05,-0.0015371059998869896,-0.0005254407878965139,0.5371508598327637,-0.48161637783050537,-9.847747802734375,0,0,45.842002868652344,1,1,1262,1262
30.25089300,30250893,0,0.00028871986432932317,-0.001696335501037538,-0.0007092381129041314,0.5368414521217346,-0.48220837116241455,-9.850079536437988,0,0,45.93199920654297,1,1,1262,1262
30.25329600,30253296,0,0.0006709074368700385,-0.0013189120218157768,-0.0008612297824583948,0.5367916822433472,-0.48058757185935974,-9.855108261108398,0,0,45.93199920654297,1,1,1262,1262
30.25578400,30255784,0,0.0010869221296161413,-0.0010971414158120751,-0.0008514437940903008,0.5373098254203796,-0.4787175953388214,-9.856846809387207,0,0,45.93199920654297,1,1,1262,1262
30.25822200,30258222,0,0.001228691777214408,-0.00033583687036298215,-0.0005820917431265116,0.5377417802810669,-0.4774143695831299,-9.855518341064453,0,0,45.93199920654297,1,1,1262,1262
30.26096100,30260961,0,0.001051758648827672,-2.5947003450710326e-05,-0.00045184747432358563,0.5366760492324829,-0.47708067297935486,-9.85420036315918,0,0,45.93199920654297,1,1,1262,1262
30.26321100,30263211,0,0.0007106474949978292,-0.0001027854232233949,-0.00027000720729120076,0.5342683792114258,-0.47939586639404297,-9.854089736938477,0,0,45.93199920654297,1,1,1262,1262
30.26576700,30265767,0,0.0006207182304933667,-0.0003306001308374107,-0.00032717580324970186,0.5319789052009583,-0.48205283284187317,-9.853874206542969,0,0,45.93199920654297,1,1,1262,1262
30.26826500,30268265,0,0.0007993354229256511,-0.0004887814866378903,-0.000618371122982353,0.5277240872383118,-0.48392319679260254,-9.85420036315918,0,0,45.93199920654297,1,1,1262,1262
30.27098800,30270988,0,0.0011657191207632422,-0.00023688316287007183,-0.0009646934922784567,0.5256033539772034,-0.48573222756385803,-9.854558944702148,0,0,45.93199920654297,1,1,1262,1262
30.27330100,30273301,0,0.0012650028802454472,-7.813033880665898e-05,-0.0014969013864174485,0.527660608291626,-0.4884759187698364,-9.851369857788086,0,0,45.93199920654297,1,1,1262,1262
30.27571100,30275711,0,0.0010061123175546527,-9.934687841450796e-05,-0.002039314014837146,0.5305437445640564,-0.49124372005462646,-9.84754753112793,0,0,45.93199920654297,1,1,1262,1262
30.27830000,30278300,0,0.0007880727062001824,-0.00017220748122781515,-0.002519863424822688,0.532250165939331,-0.4928417503833771,-9.846576690673828,0,0,45.93199920654297,1,1,1262,1262
30.28090300,30280903,0,0.0006337077356874943,-0.00036934184026904404,-0.0028179807122796774,0.5313715934753418,-0.4927150309085846,-9.846835136413574,0,0,45.93199920654297,1,1,1262,1262
30.28330400,30283304,0,0.0008434287155978382,-0.00029103364795446396,-0.0027350580785423517,0.5291978120803833,-0.49304234981536865,-9.847683906555176,0,0,45.93199920654297,1,1,1262,1262
30.28577200,30285772,0,0.0013225454604253173,-0.00020752121054101735,-0.0024512505624443293,0.5280012488365173,-0.49229201674461365,-9.84742259979248,0,0,45.93199920654297,1,1,1262,1262
30.28829500,30288295,0,0.0018943860195577145,6.106938963057473e-05,-0.0017201070440933108,0.5265342593193054,-0.4915112555027008,-9.847579002380371,0,0,45.93199920654297,1,1,1262,1262
30.29095100,30290951,0,0.0018646162934601307,0.00043314305366948247,-0.001171269454061985,0.5256792902946472,-0.4908042252063751,-9.849844932556152,0,0,45.93199920654297,1,1,1262,1262
30.29322200,30293222,0,0.0013695680536329746,0.00021683741942979395,-0.0004431975830812007,0.5253146886825562,-0.48943057656288147,-9.852275848388672,0,0,45.93199920654297,1,1,1262,1262
30.29579300,30295793,0,0.0009692077292129397,-0.00022024204372428358,-0.000301673891954124,0.5251254439353943,-0.48698633909225464,-9.85561752319336,0,0,45.93199920654297,1,1,1262,1262
30.29821600,30298216,0,0.0007776921847835183,-0.00021411727357190102,-0.0005412104655988514,0.5243614912033081,-0.4828094244003296,-9.85787296295166,0,0,45.93199920654297,1,1,1262,1262
30.30095900,30300959,0,0.0007086711702868342,0.0002653975388966501,-0.0006484382320195436,0.522609531879425,-0.47929492592811584,-9.85832691192627,0,0,45.93199920654297,1,1,1262,1262
30.30335000,30303350,0,0.0006946470821276307,0.0002926854940596968,-0.0005859738448634744,0.5216715931892395,-0.4781555235385895,-9.857669830322266,0,0,45.93199920654297,1,1,1262,1262
30.30571800,30305718,0,0.0006957103032618761,0.00012276096094865352,-0.00047201471170410514,0.523267388343811,-0.47630593180656433,-9.856721878051758,0,0,45.93199920654297,1,1,1262,1262
30.30839600,30308396,0,0.0007371481624431908,5.530994894797914e-05,-0.0004040409403387457,0.5245314240455627,-0.4757208824157715,-9.857091903686523,0,0,45.93199920654297,1,1,1262,1262
30.31087500,30310875,0,0.001000383635982871,-0.00024664480588398874,-0.0008895066566765308,0.5254936218261719,-0.4772305488586426,-9.860292434692383,0,0,45.93199920654297,1,1,1262,1262
30.31329200,30313292,0,0.0009471355588175356,-0.00031738015240989625,-0.0012196152238175273,0.525947630405426,-0.4775718152523041,-9.862001419067383,0,0,45.93199920654297,1,1,1262,1262
30.31575100,30315751,0,0.0009794265497475863,-0.00011500244727358222,-0.0011962451972067356,0.5254058241844177,-0.47746142745018005,-9.861525535583496,0,0,45.93199920654297,1,1,1262,1262
30.31821100,30318211,0,0.0013316444819793105,0.0008665354689583182,-0.0009404998272657394,0.5246233344078064,-0.4785730242729187,-9.859439849853516,0,0,45.93199920654297,1,1,1262,1262
30.32095600,30320956,0,0.0014058774104341865,0.0013121948577463627,-0.0007909726118668914,0.5264171957969666,-0.4782216548919678,-9.859014511108398,0,0,45.93199920654297,1,1,1262,1262
30.32322400,30323224,0,0.0007426581578329206,0.0013640540419146419,-0.0008309223921969533,0.5300055742263794,-0.4781740605831146,-9.859484672546387,0,0,45.93199920654297,1,1,1262,1262
30.32577100,30325771,0,0.0002965978637803346,0.0010953794699162245,-0.0008902277913875878,0.5307148098945618,-0.47834956645965576,-9.861056327819824,0,0,45.92399978637695,1,1,1262,1262
30.32826400,30328264,0,-5.228387453826144e-05,0.0007183348061516881,-0.0007644816651009023,0.5318726301193237,-0.4791673421859741,-9.862417221069336,0,0,45.92399978637695,1,1,1262,1262
30.33113300,30331133,0,-0.0002462458214722574,0.00042822264367714524,-0.0004501988005358726,0.5343782901763916,-0.4794447124004364,-9.86160659790039,0,0,45.92399978637695,1,1,1262,1262
30.33328700,30333287,0,-0.0005259932368062437,0.0002123214944731444,0.00010361056047258899,0.5365442633628845,-0.4783647060394287,-9.857982635498047,0,0,45.92399978637695,1,1,1262,1262
30.33572100,30335721,0,-0.0012963353656232357,8.776155300438404e-05,0.0005089612677693367,0.5373809933662415,-0.4757317006587982,-9.854272842407227,0,0,45.92399978637695,1,1,1262,1262
30.33829000,30338290,0,-0.001840849407017231,-0.00010047639807453379,0.0006820460548624396,0.538476288318634,-0.47340092062950134,-9.851835250854492,0,0,45.92399978637695,1,1,1262,1262
30.34103200,30341032,0,-0.0018115200800821185,-0.00011161479778820649,0.0007286072359420359,0.5373648405075073,-0.4706287086009979,-9.850802421569824,0,0,45.92399978637695,1,1,1262,1262
30.34329600,30343296,0,-0.0013618464581668377,2.9331849873415194e-05,0.0008170903893187642,0.5330952405929565,-0.4691753685474396,-9.849939346313477,0,0,45.92399978637695,1,1,1262,1262
30.34577800,30345778,0,-0.000815990031696856,-4.3145315430592746e-05,0.0006492421380244195,0.5299751162528992,-0.46949145197868347,-9.848222732543945,0,0,45.92399978637695,1,1,1262,1262
30.34826700,30348267,0,-3.204663153155707e-05,0.00020219211000949144,0.0003935397253371775,0.5285763740539551,-0.47059887647628784,-9.843578338623047,0,0,45.92399978637695,1,1,1262,1262
30.35099400,30350994,0,0.0002353640884393826,0.0003071440733037889,0.00028210357413627207,0.528697669506073,-0.4709947407245636,-9.841459274291992,0,0,45.92399978637695,1,1,1262,1262
30.35345400,30353454,0,0.0004165850405115634,0.00031343798036687076,-0.00018361397087574005,0.5310470461845398,-0.4724912643432617,-9.841451644897461,0,0,45.92399978637695,1,1,1262,1262
30.35580200,30355802,0,0.0004553735489025712,0.0005756265018135309,-0.00011299078323645517,0.5335792899131775,-0.473915159702301,-9.842521667480469,0,0,45.92399978637695,1,1,1262,1262
30.35824200,30358242,0,-1.6650405086693354e-05,0.0011149693746119738,0.00034373169182799757,0.5349604487419128,-0.47330576181411743,-9.843676567077637,0,0,45.92399978637695,1,1,1262,1262
30.36096200,30360962,0,-0.00021482403099071234,0.0019256755476817489,0.0006506243371404707,0.5370391607284546,-0.47198912501335144,-9.846033096313477,0,0,45.92399978637695,1,1,1262,1262
30.36328000,30363280,0,-0.00015441876894328743,0.0023936007637530565,0.0006303938571363688,0.5380092859268188,-0.47244149446487427,-9.846762657165527,0,0,45.92399978637695,1,1,1262,1262
30.36572500,30365725,0,0.00017368479166179895,0.0023133852519094944,0.0006200792267918587,0.5405915379524231,-0.47284889221191406,-9.848592758178711,0,0,45.92399978637695,1,1,1262,1262
30.36831600,30368316,0,0.0002642787294462323,0.0019187908619642258,0.0006730756140314043,0.5415131449699402,-0.47389429807662964,-9.850439071655273,0,0,45.92399978637695,1,1,1262,1262
30.37088500,30370885,0,0.00044715552940033376,0.001166612608358264,0.0004934417665936053,0.5432528257369995,-0.47661441564559937,-9.853196144104004,0,0,45.92399978637695,1,1,1262,1262
30.37322800,30373228,0,0.0007294638198800385,0.0007300357101485133,0.00023075786884874105,0.5436716675758362,-0.4778093993663788,-9.855109214782715,0,0,45.92399978637695,1,1,1262,1262
30.37578200,30375782,0,0.0011457439977675676,0.00021289361757226288,-2.2352589439833537e-05,0.5441427826881409,-0.4779340326786041,-9.857784271240234,0,0,45.92399978637695,1,1,1262,1262
30.37821300,30378213,0,0.0017251402605324984,-0.00015478658315259963,-0.00030671179411001503,0.5438752770423889,-0.48003628849983215,-9.85675048828125,0,0,45.92399978637695,1,1,1262,1262
30.38096300,30380963,0,0.002028079004958272,-0.00048545803292654455,-0.0006374983349815011,0.5422484278678894,-0.48182928562164307,-9.855175971984863,0,0,45.92399978637695,1,1,1262,1262
30.38327800,30383278,0,0.0021523325704038143,-0.0006938370643183589,-0.0008939625695347786,0.5409972667694092,-0.4821515381336212,-9.855555534362793,0,0,45.92399978637695,1,1,1262,1262
30.38571600,30385716,0,0.0017741143237799406,-0.0005907339509576559,-0.0008264632779173553,0.5417627692222595,-0.4784621596336365,-9.860053062438965,0,0,45.92399978637695,1,1,1262,1262
30.38831600,30388316,0,0.0015331956092268229,-0.0004524074902292341,-0.0011299594771116972,0.5421119928359985,-0.47391191124916077,-9.865382194519043,0,0,45.92399978637695,1,1,1262,1262
30.39088800,30390888,0,0.0015670491848140955,-0.0001599600655026734,-0.0018095230916514993,0.5401483774185181,-0.47222599387168884,-9.868043899536133,0,0,45.92399978637695,1,1,1262,1262
30.39329900,30393299,0,0.0015646982938051224,-3.460862717474811e-05,-0.0024048832710832357,0.5381110310554504,-0.47274935245513916,-9.869098663330078,0,0,45.92399978637695,1,1,1262,1262
30.39577600,30395776,0,0.0013285247841849923,2.7788777515525e-05,-0.0025503409560769796,0.5368159413337708,-0.4730968475341797,-9.86931324005127,0,0,45.92399978637695,1,1,1262,1262
30.39824400,30398244,0,0.0009099111193791032,-1.470680672355229e-05,-0.0018952793907374144,0.5348013043403625,-0.47365760803222656,-9.868496894836426,0,0,45.92399978637695,1,1,1262,1262
30.40097400,30400974,0,0.0008412948227487504,-0.0004951389273628592,-0.0014581368304789066,0.5334748029708862,-0.47429358959198,-9.867353439331055,0,0,45.900001525878906,1,1,1262,1262
30.40329500,30403295,0,0.0006822363939136267,-0.0010143278632313013,-0.0007970476872287691,0.5302822589874268,-0.47455212473869324,-9.863685607910156,0,0,45.900001525878906,1,1,1262,1262
30.40579400,30405794,0,0.0006862900336273015,-0.000827261945232749,-0.0004358570440672338,0.5276595950126648,-0.475238174200058,-9.857762336730957,0,0,45.900001525878906,1,1,1262,1262
30.40833200,30408332,0,0.0008599098073318601,-0.0004166123690083623,-2.422173201921396e-05,0.52597576379776,-0.47634685039520264,-9.85242748260498,0,0,45.900001525878906,1,1,1262,1262
30.41096100,30410961,0,0.0008154825191013515,3.2700379961170256e-05,0.0002202652976848185,0.5249543786048889,-0.4777734875679016,-9.849467277526855,0,0,45.900001525878906,1,1,1262,1262
30.41327700,30413277,0,0.0007231291383504868,0.00012291930033825338,0.0003182512300554663,0.524951159954071,-0.4786973297595978,-9.848755836486816,0,0,45.900001525878906,1,1,1262,1262
30.41570700,30415707,0,0.0007022038334980607,-0.0002647549845278263,-1.1246235771977808e-05,0.5262588858604431,-0.4800368547439575,-9.847823143005371,0,0,45.900001525878906,1,1,1262,1262
30.41828600,30418286,0,0.0005468209856189787,-9.990376565838233e-05,-0.00010604810086078942,0.527787446975708,-0.4784356355667114,-9.845541000366211,0,0,45.900001525878906,1,1,1262,1262
30.42087900,30420879,0,0.00036878633545711637,0.00033432396594434977,-2.161731754313223e-05,0.528570830821991,-0.4752037823200226,-9.840312957763672,0,0,45.900001525878906,1,1,1262,1262
30.42333100,30423331,0,0.00037254265043884516,0.0005156663246452808,-4.7232773795258254e-05,0.5286365151405334,-0.47593170404434204,-9.837414741516113,0,0,45.900001525878906,1,1,1262,1262
30.42574600,30425746,0,0.00014644603652413934,0.00031359834247268736,-0.0004123556718695909,0.5302204489707947,-0.47801968455314636,-9.835504531860352,0,0,45.900001525878906,1,1,1262,1262
30.42824300,30428243,0,-0.00033092795638367534,4.587971852743067e-05,-0.0014301104238256812,0.5334171652793884,-0.4800824224948883,-9.834176063537598,0,0,45.900001525878906,1,1,1262,1262
30.43112900,30431129,0,-0.0004667986067943275,-9.371175110572949e-05,-0.002033230382949114,0.5350220203399658,-0.47910404205322266,-9.835702896118164,0,0,45.900001525878906,1,1,1262,1262
30.43320600,30433206,0,-7.947465928737074e-05,-0.00046307221055030823,-0.0023777401074767113,0.5342403650283813,-0.47653064131736755,-9.840052604675293,0,0,45.900001525878906,1,1,1262,1262
30.43578900,30435789,0,0.00020509886962827295,-0.0007302010781131685,-0.002562617650255561,0.5328101515769958,-0.47543102502822876,-9.839980125427246,0,0,45.900001525878906,1,1,1262,1262
30.43823100,30438231,0,0.0005302214995026588,-0.00088497280376032,-0.0022342747543007135,0.5325208306312561,-0.4749429225921631,-9.836798667907715,0,0,45.900001525878906,1,1,1262,1262
30.44096900,30440969,0,0.0005010494496673346,-0.0009843169245868921,-0.0017256042920053005,0.5334877371788025,-0.47493770718574524,-9.83537483215332,0,0,45.900001525878906,1,1,1262,1262
30.44328500,30443285,0,0.00042803632095456123,-0.0011397278867661953,-0.000941043603233993,0.533047616481781,-0.4750652611255646,-9.834815979003906,0,0,45.900001525878906,1,1,1262,1262
30.44572400,30445724,0,0.00036249059485271573,-0.0012321941321715713,-0.000598955259192735,0.5318865776062012,-0.4742312431335449,-9.836526870727539,0,0,45.900001525878906,1,1,1262,1262
30.44831100,30448311,0,0.00014973682118579745,-0.0009004613966681063,-0.00047896854812279344,0.52964186668396,-0.473167359828949,-9.840489387512207,0,0,45.900001525878906,1,1,1262,1262
30.45088700,30450887,0,-0.00011464950512163341,-5.729826079914346e-05,4.353227268438786e-05,0.5259337425231934,-0.4724498391151428,-9.843354225158691,0,0,45.900001525878906,1,1,1262,1262
30.45329800,30453298,0,-0.00030701709329150617,0.0007073410088196397,0.0004987561842426658,0.5235716104507446,-0.47087836265563965,-9.84349250793457,0,0,45.900001525878906,1,1,1262,1262
30.45575700,30455757,0,-0.0004998818039894104,0.0010707017499953508,0.0009995969012379646,0.5232555866241455,-0.470104455947876,-9.842074394226074,0,0,45.900001525878906,1,1,1262,1262
30.45822800,30458228,0,-0.0007427940145134926,0.000890079652890563,0.0014009730657562613,0.5242236852645874,-0.47184836864471436,-9.841711044311523,0,0,45.900001525878906,1,1,1262,1262
30.46099400,30460994,0,-0.0005804540705867112,0.0006951397517696023,0.0010972523596137762,0.5256323218345642,-0.4731840193271637,-9.843749046325684,0,0,45.900001525878906,1,1,1262,1262
30.46322300,30463223,0,-5.2195533498888835e-05,0.0009730788297019899,0.0008094726945273578,0.5292127132415771,-0.4739697575569153,-9.847970962524414,0,0,45.900001525878906,1,1,1262,1262
30.46578600,30465786,0,0.0005394829786382616,0.0014324600342661142,0.0007377232541330159,0.5317042469978333,-0.4748826026916504,-9.849626541137695,0,0,45.900001525878906,1,1,1262,1262
30.46824000,30468240,0,0.001180551596917212,0.0015247685369104147,0.0008557927212677896,0.5336208343505859,-0.4762420356273651,-9.851551055908203,0,0,45.900001525878906,1,1,1262,1262
30.47096600,30470966,0,0.0011050495086237788,0.001643285620957613,0.001042433432303369,0.5345083475112915,-0.4777285158634186,-9.853604316711426,0,0,45.900001525878906,1,1,1262,1262
30.47327800,30473278,0,0.0007363017066381872,0.0018448274349793792,0.0010734929237514734,0.5352008938789368,-0.4793241322040558,-9.85398006439209,0,0,45.90399932861328,1,1,1262,1262
30.47570700,30475707,0,0.0005556732648983598,0.002388936234638095,0.0009844277519732714,0.534015953540802,-0.4837803542613983,-9.855901718139648,0,0,45.90399932861328,1,1,1262,1262
30.47829300,30478293,0,0.0007284171879291534,0.0024655121378600597,0.0007706370670348406,0.531495988368988,-0.48545610904693604,-9.85773754119873,0,0,45.90399932861328,1,1,1262,1262
30.48099600,30480996,0,0.0012969712261110544,0.002002695808187127,0.0004023048677481711,0.527686595916748,-0.48662543296813965,-9.857218742370605,0,0,45.90399932861328,1,1,1262,1262
30.48322800,30483228,0,0.0012829178012907505,0.0015484021278098226,0.00028147894772700965,0.5273446440696716,-0.4866982102394104,-9.854915618896484,0,0,45.90399932861328,1,1,1262,1262
30.48577900,30485779,0,0.0007829973474144936,0.0007886509993113577,0.000470389990368858,0.5290616154670715,-0.48457321524620056,-9.852100372314453,0,0,45.90399932861328,1,1,1262,1262
30.48825200,30488252,0,0.0003477955178823322,-0.00014307326637208462,0.0005612673121504486,0.530533492565155,-0.4804421365261078,-9.85144329071045,0,0,45.90399932861328,1,1,1262,1262
30.49105900,30491059,0,0.0003709526208695024,-0.0004717170668300241,0.000174457993125543,0.5297967195510864,-0.4787425696849823,-9.852109909057617,0,0,45.90399932861328,1,1,1262,1262
30.49329100,30493291,0,0.0002861846296582371,-0.0007447291864082217,-0.00051716691814363,0.5263866186141968,-0.47658395767211914,-9.853074073791504,0,0,45.90399932861328,1,1,1262,1262
30.49571000,30495710,0,9.038633288582787e-05,-0.0007927403203211725,-0.0008143441518768668,0.5226535201072693,-0.47382640838623047,-9.854082107543945,0,0,45.90399932861328,1,1,1262,1262
30.49829800,30498298,0,-0.000258815533015877,-0.0008927977760322392,-0.0008660228340886533,0.5216352939605713,-0.47296980023384094,-9.853507041931152,0,0,45.90399932861328,1,1,1262,1262
30.50087600,30500876,0,-0.0003927595098502934,-0.0010063698282465339,-0.0007990949670784175,0.5232574939727783,-0.4721302092075348,-9.853446006774902,0,0,45.90399932861328,1,1,1262,1262
30.50340300,30503403,0,-0.00011964190343860537,-0.0009531045216135681,-0.000882294902112335,0.5244771838188171,-0.47151851654052734,-9.856990814208984,0,0,45.90399932861328,1,1,1262,1262
30.50577300,30505773,0,5.126090400153771e-05,-0.0011706915684044361,-0.0008769822889007628,0.5238077640533447,-0.4722954034805298,-9.860595703125,0,0,45.90399932861328,1,1,1262,1262
30.50840600,30508406,0,0.00012668172712437809,-0.0006891078664921224,-0.0005141838337294757,0.520889401435852,-0.4744378328323364,-9.864340782165527,0,0,45.90399932861328,1,1,1262,1262
30.51097800,30510978,0,0.00017936147924046963,-0.0003138026222586632,-0.00017596258840058,0.5198038220405579,-0.47611185908317566,-9.864483833312988,0,0,45.90399932861328,1,1,1262,1262
30.51323200,30513232,0,5.5463038734160364e-05,4.871843702858314e-05,0.00016123740351758897,0.5214294195175171,-0.480356901884079,-9.865823745727539,0,0,45.90399932861328,1,1,1262,1262
30.51576000,30515760,0,-3.35669465130195e-05,4.3407115299487486e-05,0.0004737549170386046,0.5230226516723633,-0.4853857159614563,-9.865927696228027,0,0,45.90399932861328,1,1,1262,1262
30.51822800,30518228,0,0.00015695474576205015,-0.00023292536207009107,0.00046967080561444163,0.524686872959137,-0.4887620806694031,-9.866432189941406,0,0,45.90399932861328,1,1,1262,1262
30.52095200,30520952,0,0.00034096837043762207,-0.00033458854886703193,4.986650310456753e-05,0.5253027081489563,-0.48869651556015015,-9.866103172302246,0,0,45.90399932861328,1,1,1262,1262
30.52329200,30523292,0,0.0005068277241662145,-0.0003295628703199327,-2.4020031560212374e-05,0.5255200862884521,-0.48690080642700195,-9.864897727966309,0,0,45.90399932861328,1,1,1262,1262
30.52570900,30525709,0,0.00035102383117191494,9.244280954590067e-05,-0.00016386032802984118,0.528663158416748,-0.481934517621994,-9.861473083496094,0,0,45.90399932861328,1,1,1262,1262
30.52833000,30528330,0,1.8378905224381015e-05,0.00031970400596037507,-0.0002228248631581664,0.5308983325958252,-0.478622168302536,-9.858183860778809,0,0,45.90399932861328,1,1,1262,1262
30.53113600,30531136,0,-0.0008465263526886702,0.0006758999661542475,-0.0002557628904469311,0.5346438884735107,-0.47695302963256836,-9.852764129638672,0,0,45.90399932861328,1,1,1262,1262
30.53329100,30533291,0,-0.001322816126048565,0.0007279629353433847,0.00023612254881300032,0.5366654396057129,-0.477098673582077,-9.851469039916992,0,0,45.90399932861328,1,1,1262,1262
30.53574700,30535747,0,-0.0018394842045381665,0.0007078874041326344,0.00082275370368734,0.5394678711891174,-0.47678080201148987,-9.850679397583008,0,0,45.90399932861328,1,1,1262,1262
30.53822000,30538220,0,-0.0019849047530442476,0.000929423316847533,0.0009242825908586383,0.5407202839851379,-0.4771919548511505,-9.849266052246094,0,0,45.90399932861328,1,1,1262,1262
30.54095000,30540950,0,-0.001776135410182178,0.001073156134225428,0.000733377761207521,0.5392714738845825,-0.47732245922088623,-9.844889640808105,0,0,45.90399932861328,1,1,1262,1262
30.54323800,30543238,0,-0.00128176249563694,0.0011616743868216872,0.0008366337278857827,0.5381398797035217,-0.4780541956424713,-9.84089183807373,0,0,45.90399932861328,1,1,1262,1262
30.54578600,30545786,0,-0.0007060625939629972,0.0011265118373557925,0.0009591092821210623,0.5378054976463318,-0.47788098454475403,-9.841170310974121,0,0,45.90399932861328,1,1,1262,1262
30.54825700,30548257,0,0.0003241751983296126,0.0010607134317979217,0.0008252934785559773,0.535342812538147,-0.47665950655937195,-9.844820976257324,0,0,45.928001403808594,1,1,1262,1262
30.55096400,30550964,0,0.000871376832947135,0.0007409791578538716,0.00030414824141189456,0.5329091548919678,-0.4763142764568329,-9.849081039428711,0,0,45.928001403808594,1,1,1262,1262
30.55327000,30553270,0,0.0013826024951413274,0.0005195868434384465,-0.00025093526346608996,0.5334208011627197,-0.4781094193458557,-9.851167678833008,0,0,45.928001403808594,1,1,1262,1262
30.55572100,30555721,0,0.0015812194906175137,0.00023389497073367238,-0.0006142880883999169,0.5367146134376526,-0.4797855317592621,-9.850007057189941,0,0,45.928001403808594,1,1,1262,1262
30.55830000,30558300,0,0.0013119708746671677,0.00014857279893476516,-0.0006440258002839983,0.5402435660362244,-0.47927501797676086,-9.846288681030273,0,0,45.928001403808594,1,1,1262,1262
30.56091200,30560912,0,0.0005798998172394931,0.00025149088469333947,-0.0002575534745119512,0.542855441570282,-0.4770502746105194,-9.846063613891602,0,0,45.928001403808594,1,1,1262,1262
30.56329300,30563293,0,-2.3026279450277798e-05,4.001547131338157e-05,-8.467075531370938e-06,0.5440711975097656,-0.4750555753707886,-9.850085258483887,0,0,45.928001403808594,1,1,1262,1262
30.56573400,30565734,0,-0.0004912866279482841,-0.0002932280476670712,2.740743730100803e-05,0.5412693023681641,-0.4724942147731781,-9.854921340942383,0,0,45.928001403808594,1,1,1262,1262
30.56831900,30568319,0,-0.0006995853036642075,-4.450711639947258e-05,2.0348496036604047e-05,0.537844181060791,-0.4698329567909241,-9.858287811279297,0,0,45.928001403808594,1,1,1262,1262
30.57097000,30570970,0,-0.0007533496245741844,0.00019725997117348015,0.00015234251623041928,0.5375388860702515,-0.4695289134979248,-9.859952926635742,0,0,45.928001403808594,1,1,1262,1262
30.57322100,30573221,0,-0.0006371836643666029,0.000689371139742434,0.0002667828812263906,0.5375705361366272,-0.47256577014923096,-9.860381126403809,0,0,45.928001403808594,1,1,1262,1262
30.57581300,30575813,0,-0.0008124361629597843,0.0008738712058402598,0.00024832645431160927,0.5366917848587036,-0.47448140382766724,-9.861345291137695,0,0,45.928001403808594,1,1,1262,1262
30.57820900,30578209,0,-0.0014179475838318467,0.0010687453905120492,0.00018940090376418084,0.5366718173027039,-0.4768793284893036,-9.862027168273926,0,0,45.928001403808594,1,1,1262,1262
30.58096000,30580960,0,-0.0018192889401689172,0.0011916066287085414,-4.0894745325203985e-05,0.5368956327438354,-0.47817176580429077,-9.86120891571045,0,0,45.928001403808594,1,1,1262,1262
30.58325900,30583259,0,-0.001928758923895657,0.0011517103994265199,-0.00023859983775764704,0.5364261269569397,-0.4785473346710205,-9.860280990600586,0,0,45.928001403808594,1,1,1262,1262
30.58572000,30585720,0,-0.0016473419964313507,0.0010238467948511243,-0.0004863794019911438,0.536224901676178,-0.4811762571334839,-9.856332778930664,0,0,45.928001403808594,1,1,1262,1262
30.58832300,30588323,0,-0.0014680305030196905,0.0010314383544027805,-0.0007036616443656385,0.5370892882347107,-0.4845225214958191,-9.853202819824219,0,0,45.928001403808594,1,1,1262,1262
30.59089100,30590891,0,-0.0006828526966273785,0.0004600400279741734,-0.0008640303276479244,0.5366090536117554,-0.4904494285583496,-9.849756240844727,0,0,45.928001403808594,1,1,1262,1262
30.59321400,30593214,0,-0.00040606563561595976,0.000302131287753582,-0.0009833924705162644,0.5350759029388428,-0.4933016896247864,-9.84863567352295,0,0,45.928001403808594,1,1,1262,1262
30.59579300,30595793,0,0.00021799323440063745,0.0004456421884242445,-0.0009535373537801206,0.5323154330253601,-0.4944099187850952,-9.845332145690918,0,0,45.928001403808594,1,1,1262,1262
30.59820700,30598207,0,0.0005217274883762002,0.000621985993348062,-0.00098873907700181,0.5297924280166626,-0.4942306876182556,-9.84144115447998,0,0,45.928001403808594,1,1,1262,1262
30.60096100,30600961,0,0.0002842304529622197,0.0006784601137042046,-0.0011363206431269646,0.5302780866622925,-0.4966232180595398,-9.839157104492188,0,0,45.928001403808594,1,1,1262,1262
30.60356600,30603566,0,-3.8547168514924124e-05,0.0005955787491984665,-0.0014644642360508442,0.5312508344650269,-0.5009239315986633,-9.836033821105957,0,0,45.928001403808594,1,1,1262,1262
30.60578500,30605785,0,-0.0008053371566347778,0.0004528310673777014,-0.0014355367748066783,0.5316866040229797,-0.5036896467208862,-9.835437774658203,0,0,45.928001403808594,1,1,1262,1262
30.60840800,30608408,0,-0.0013283331645652652,0.0002919705293606967,-0.0011749730911105871,0.5308493375778198,-0.5042824149131775,-9.839292526245117,0,0,45.928001403808594,1,1,1262,1262
30.61091400,30610914,0,-0.001389073091559112,0.0001596137590240687,-0.0009177080937661231,0.5286054015159607,-0.5026174783706665,-9.846893310546875,0,0,45.928001403808594,1,1,1262,1262
30.61330200,30613302,0,-0.0010228506289422512,0.00015645052189938724,-0.0006773117347620428,0.5261156558990479,-0.500315248966217,-9.852599143981934,0,0,45.928001403808594,1,1,1262,1262
30.61571100,30615711,0,-0.0006188047700561583,0.00015225719835143536,-0.0006930097588337958,0.527116060256958,-0.4964727759361267,-9.853649139404297,0,0,45.928001403808594,1,1,1262,1262
30.61829200,30618292,0,-0.00012796300870832056,-0.0001071619990398176,-0.0011643263278529048,0.5301880240440369,-0.4911971390247345,-9.853211402893066,0,0,45.928001403808594,1,1,1262,1262
30.62093600,30620936,0,0.0001335110719082877,-0.0002063738356810063,-0.0015384848229587078,0.5310174226760864,-0.4879561960697174,-9.854655265808105,0,0,45.922000885009766,1,1,1262,1262
30.62323800,30623238,0,0.0004104015533812344,-0.0002087133179884404,-0.0013437727466225624,0.5309475064277649,-0.48348352313041687,-9.857890129089355,0,0,45.922000885009766,1,1,1262,1262
30.62581300,30625813,0,0.0005003474652767181,0.00024047803890425712,-0.00096267054323107,0.5316307544708252,-0.48227784037590027,-9.858642578125,0,0,45.922000885009766,1,1,1262,1262
30.62824300,30628243,0,0.0003901691234204918,0.0007546246633864939,-0.0006367718451656401,0.5335776805877686,-0.48072975873947144,-9.858548164367676,0,0,45.922000885009766,1,1,1262,1262
30.63115300,30631153,0,4.416495357872918e-05,0.0010710713686421514,-0.00032952462788671255,0.5354189276695251,-0.47878560423851013,-9.85667610168457,0,0,45.922000885009766,1,1,1262,1262
30.63325400,30633254,0,-0.0002577735867816955,0.001049540820531547,-3.917779395123944e-05,0.5358763933181763,-0.47697344422340393,-9.854535102844238,0,0,45.922000885009766,1,1,1262,1262
30.63571200,30635712,0,-0.00022870360407978296,0.001031728577800095,0.0002826992131303996,0.5364099144935608,-0.47488468885421753,-9.853248596191406,0,0,45.922000885009766,1,1,1262,1262
30.63829600,30638296,0,-3.0415725632337853e-05,0.001051642349921167,0.00023335822334047407,0.5375611782073975,-0.47362595796585083,-9.852781295776367,0,0,45.922000885009766,1,1,1262,1262
30.64105400,30641054,0,0.0005099952104501426,0.0008610737277194858,0.000244481663685292,0.5372475385665894,-0.4691656231880188,-9.850483894348145,0,0,45.922000885009766,1,1,1262,1262
30.64330500,30643305,0,0.0008719569887034595,0.000778883695602417,-5.036955917603336e-05,0.5375694632530212,-0.46691256761550903,-9.847870826721191,0,0,45.922000885009766,1,1,1262,1262
30.64572400,30645724,0,0.0008978634141385555,0.0006454233662225306,-0.0005162673187442124,0.5389402508735657,-0.46532347798347473,-9.843291282653809,0,0,45.922000885009766,1,1,1262,1262
30.64830200,30648302,0,0.0005674275453202426,0.0006270891171880066,-0.00046376846148632467,0.5395119786262512,-0.4654223918914795,-9.841846466064453,0,0,45.922000885009766,1,1,1262,1262
30.65094800,30650948,0,7.769382500555366e-05,0.0006472907261922956,-0.0005067040910944343,0.5399280786514282,-0.4679374396800995,-9.841564178466797,0,0,45.922000885009766,1,1,1262,1262
30.65321700,30653217,0,-0.0005386377451941371,0.0009986856020987034,-0.0002541053690947592,0.5392679572105408,-0.47192731499671936,-9.843435287475586,0,0,45.922000885009766,1,1,1262,1262
30.65578900,30655789,0,-0.0009161015623249114,0.0014008897123858333,0.00016737157420720905,0.537802517414093,-0.4762820601463318,-9.846700668334961,0,0,45.922000885009766,1,1,1262,1262
30.65821800,30658218,0,-0.0008568913326598704,0.001433128141798079,0.0007003610371612012,0.5338098406791687,-0.48116806149482727,-9.845927238464355,0,0,45.922000885009766,1,1,1262,1262
30.66097200,30660972,0,-0.0010377587750554085,0.0015884781023487449,0.000901147024706006,0.5301406979560852,-0.4841536283493042,-9.84440803527832,0,0,45.922000885009766,1,1,1262,1262
30.66327300,30663273,0,-0.0011667979415506124,0.0016686988528817892,0.0009744941489771008,0.5272912979125977,-0.48680710792541504,-9.844377517700195,0,0,45.922000885009766,1,1,1262,1262
30.66575100,30665751,0,-0.001184924622066319,0.0011553114745765924,0.0006095911958254874,0.5259661674499512,-0.48657557368278503,-9.847654342651367,0,0,45.922000885009766,1,1,1262,1262
30.66831200,30668312,0,-0.0007870730478316545,0.0004917774349451065,-5.677230001310818e-05,0.5240360498428345,-0.48437950015068054,-9.851091384887695,0,0,45.922000885009766,1,1,1262,1262
30.67096500,30670965,0,-0.0007335214177146554,-0.00015156573499552906,-0.0005470043397508562,0.5232089161872864,-0.4823519289493561,-9.854172706604004,0,0,45.922000885009766,1,1,1262,1262
30.67329600,30673296,0,-0.000502630602568388,-0.0006737320800311863,-0.0006011571967974305,0.5260958075523376,-0.4815675914287567,-9.856437683105469,0,0,45.922000885009766,1,1,1262,1262
30.67572700,30675727,0,-6.74601542414166e-05,-0.0009503906476311386,-0.0004777518333867192,0.5308522582054138,-0.48111602663993835,-9.85616397857666,0,0,45.922000885009766,1,1,1262,1262
30.67822500,30678225,0,9.510917880106717e-05,-0.0007381677278317511,-0.00045286526437848806,0.5350502729415894,-0.4784742295742035,-9.857415199279785,0,0,45.922000885009766,1,1,1262,1262
30.68096700,30680967,0,0.0002939495025202632,-0.0007083931704983115,-0.00038703338941559196,0.5381592512130737,-0.4758318364620209,-9.86019229888916,0,0,45.922000885009766,1,1,1262,1262
30.68323200,30683232,0,0.00021614617435261607,-0.0006021864828653634,-0.0005173578392714262,0.539286732673645,-0.4742101728916168,-9.861737251281738,0,0,45.922000885009766,1,1,1262,1262
30.68576100,30685761,0,0.00018379678658675402,-0.0004798707668669522,-0.0009126798831857741,0.5380210876464844,-0.47340014576911926,-9.862576484680176,0,0,45.922000885009766,1,1,1262,1262
30.68849500,30688495,0,0.0002149975043721497,-0.0002597514248918742,-0.0010961978696286678,0.5367011427879333,-0.4729207158088684,-9.862565040588379,0,0,45.922000885009766,1,1,1262,1262
30.69089700,30690897,0,0.00010772077803267166,0.0003242530219722539,-0.0011663178447633982,0.5366500020027161,-0.47095760703086853,-9.859564781188965,0,0,45.922000885009766,1,1,1262,1262
30.69321400,30693214,0,-0.0002632651594467461,0.0005431309109553695,-0.001267199986614287,0.5383560657501221,-0.4698350429534912,-9.856834411621094,0,0,45.922000885009766,1,1,1262,1262
30.69580000,30695800,0,-0.0003987500967923552,0.0005781868821941316,-0.0012210978893563151,0.5384463667869568,-0.46861979365348816,-9.856733322143555,0,0,45.89800262451172,1,1,1262,1262
30.69821300,30698213,0,-0.000491408456582576,0.0005738111794926226,-0.001330208731815219,0.5356574058532715,-0.4653741717338562,-9.856837272644043,0,0,45.89800262451172,1,1,1262,1262
30.70096200,30700962,0,-0.0005048024468123913,0.0006722583202645183,-0.0011144558666273952,0.5329321622848511,-0.4642025828361511,-9.855510711669922,0,0,45.89800262451172,1,1,1262,1262
30.70330600,30703306,0,-0.00023899515508674085,0.0010946110123768449,-0.0005721878842450678,0.5297409892082214,-0.4642735421657562,-9.854031562805176,0,0,45.89800262451172,1,1,1262,1262
30.70572400,30705724,0,-0.00010982494859490544,0.0014918730594217777,-0.00027693426818586886,0.5280934572219849,-0.4655754864215851,-9.85404109954834,0,0,45.89800262451172,1,1,1262,1262
30.70839300,30708393,0,-0.000312047399347648,0.0016114528989419341,6.527046934934333e-05,0.5282081961631775,-0.4668515622615814,-9.854198455810547,0,0,45.89800262451172,1,1,1262,1262
30.71092400,30710924,0,-0.0006401865975931287,0.0015556949656456709,0.00033725149114616215,0.528456449508667,-0.4693306088447571,-9.855250358581543,0,0,45.89800262451172,1,1,1262,1262
30.71325300,30713253,0,-0.0005869633168913424,0.0013385431375354528,0.00042932259384542704,0.5286195874214172,-0.4712623059749603,-9.855469703674316,0,0,45.89800262451172,1,1,1262,1262
30.71579400,30715794,0,-0.000502818962559104,0.0011750234989449382,7.171495235525072e-05,0.52957683801651,-0.473580926656723,-9.855280876159668,0,0,45.89800262451172,1,1,1262,1262
30.71821700,30718217,0,-0.00027933844830840826,0.0010151852620765567,-0.00010521060175960883,0.5293208956718445,-0.4754616618156433,-9.85634994506836,0,0,45.89800262451172,1,1,1262,1262
30.72096200,30720962,0,-0.00012075010454282165,0.0011260369792580605,-0.00024391197075601667,0.5292237997055054,-0.4784073531627655,-9.854410171508789,0,0,45.89800262451172,1,1,1262,1262
30.72324000,30723240,0,-0.00011437164357630536,0.000770753133110702,-0.0002529400517232716,0.5288301706314087,-0.4831799864768982,-9.852649688720703,0,0,45.89800262451172,1,1,1262,1262
30.72571900,30725719,0,-0.0001715317484922707,1.674895429459866e-05,-0.00018393729988019913,0.5269358158111572,-0.4879107177257538,-9.8510103225708,0,0,45.89800262451172,1,1,1262,1262
30.72831900,30728319,0,-0.0004864874645136297,-0.0002467825834173709,5.330815474735573e-05,0.5255576968193054,-0.48873162269592285,-9.849786758422852,0,0,45.89800262451172,1,1,1262,1262
30.73114900,30731149,0,-0.0007492128061130643,-0.000119049618660938,8.588843775214627e-05,0.5277040004730225,-0.48807820677757263,-9.850272178649902,0,0,45.89800262451172,1,1,1262,1262
30.73330200,30733302,0,-0.0004565689596347511,0.000337595003657043,-2.171679625462275e-05,0.5301119685173035,-0.48879310488700867,-9.848315238952637,0,0,45.89800262451172,1,1,1262,1262
30.73577500,30735775,0,-0.000137902723508887,0.0006339011015370488,-0.00022681817063130438,0.532345175743103,-0.4894273579120636,-9.84600830078125,0,0,45.89800262451172,1,1,1262,1262
30.73822000,30738220,0,7.889794346738199e-07,0.0005297340103425086,-0.00027304620016366243,0.5364549160003662,-0.4890245199203491,-9.84511661529541,0,0,45.89800262451172,1,1,1262,1262
30.74098300,30740983,0,0.00012673223682213575,6.718096847180277e-05,-0.0004806161450687796,0.5379593968391418,-0.48733237385749817,-9.846705436706543,0,0,45.89800262451172,1,1,1262,1262
30.74322300,30743223,0,0.00013434264110401273,-0.0003320070100016892,-0.00047122707474045455,0.5395761132240295,-0.4858848452568054,-9.851038932800293,0,0,45.89800262451172,1,1,1262,1262
30.74579000,30745790,0,0.0001440743508283049,-0.0003607385733630508,-0.0004020937776658684,0.5411712527275085,-0.48536011576652527,-9.852550506591797,0,0,45.89800262451172,1,1,1262,1262
30.74829700,30748297,0,0.00020422672969289124,-0.0003106679068878293,-0.00026771286502480507,0.5412322878837585,-0.48555129766464233,-9.851460456848145,0,0,45.89800262451172,1,1,1262,1262
30.75089600,30750896,0,0.000499061425216496,-0.00025389494840055704,-0.0002915198856499046,0.5393291711807251,-0.4840192198753357,-9.849047660827637,0,0,45.89800262451172,1,1,1262,1262
30.75326500,30753265,0,0.0006595288286916912,-0.00018489018839318305,-2.4644694349262863e-05,0.5384737849235535,-0.4815634787082672,-9.847764015197754,0,0,45.89800262451172,1,1,1262,1262
30.75579500,30755795,0,0.0005315623711794615,-0.0004659945552702993,0.0005191173986531794,0.5374027490615845,-0.4786819517612457,-9.846944808959961,0,0,45.89800262451172,1,1,1262,1262
30.75822600,30758226,0,0.0006022733286954463,-0.0007720962748862803,0.001211470691487193,0.5346800684928894,-0.4769056737422943,-9.849830627441406,0,0,45.89800262451172,1,1,1262,1262
30.76095800,30760958,0,0.0006521085742861032,-0.0009721224778331816,0.0014106451999396086,0.5322665572166443,-0.4764551520347595,-9.850537300109863,0,0,45.89800262451172,1,1,1262,1262
30.76321600,30763216,0,0.0009352213237434626,-0.0009638561750762165,0.0013726303586736321,0.5324577689170837,-0.4774531126022339,-9.847685813903809,0,0,45.89800262451172,1,1,1262,1262
30.76579600,30765796,0,0.0006328153540380299,-0.000978012103587389,0.0013279005652293563,0.5343856811523438,-0.4786964952945709,-9.845549583435059,0,0,45.89800262451172,1,1,1262,1262
30.76830600,30768306,0,-0.0002525759337004274,-0.0011018963996320963,0.0011486354051157832,0.5372187495231628,-0.4803960621356964,-9.843751907348633,0,0,45.89800262451172,1,1,1262,1262
30.77097300,30770973,0,-0.0008983548614196479,-0.001054240739904344,0.001077844644896686,0.5389326214790344,-0.48171186447143555,-9.843811988830566,0,0,45.926002502441406,1,1,1262,1262
30.77329600,30773296,0,-0.0008416432538069785,-0.0007253415533341467,0.0009621937642805278,0.5380463600158691,-0.481658011674881,-9.845982551574707,0,0,45.926002502441406,1,1,1262,1262
30.77571900,30775719,0,-5.814587348140776e-05,-0.0004750315856654197,0.0007990988087840378,0.5360634922981262,-0.48081403970718384,-9.84729290008545,0,0,45.926002502441406,1,1,1262,1262
30.77822200,30778222,0,0.0005169693613424897,-0.0002406002749921754,0.0004775435954798013,0.5336787700653076,-0.4794444441795349,-9.847232818603516,0,0,45.926002502441406,1,1,1262,1262
30.78096900,30780969,0,0.00042116662370972335,0.0002192665997426957,4.74642583867535e-05,0.531063437461853,-0.4784652292728424,-9.848265647888184,0,0,45.926002502441406,1,1,1262,1262
30.78321900,30783219,0,9.040237637236714e-05,0.0005124412127770483,-0.00037504767533391714,0.5300530195236206,-0.4772404432296753,-9.849467277526855,0,0,45.926002502441406,1,1,1262,1262
30.78578200,30785782,0,-0.00022176544007379562,0.0006014113314449787,-0.0007681582355871797,0.5312615036964417,-0.47677677869796753,-9.85119342803955,0,0,45.926002502441406,1,1,1262,1262
30.78828200,30788282,0,-0.0002930938790086657,0.0007639155373908579,-0.0008988769259303808,0.5313995480537415,-0.4769006073474884,-9.852734565734863,0,0,45.926002502441406,1,1,1262,1262
30.79107200,30791072,0,-0.0009247229318134487,0.0012733052717521787,-0.0005527277826331556,0.5289482474327087,-0.4768288731575012,-9.851747512817383,0,0,45.926002502441406,1,1,1262,1262
30.79332100,30793321,0,-0.0011426443234086037,0.0012717959471046925,-0.000161742398631759,0.5276328325271606,-0.4775269627571106,-9.8504056930542,0,0,45.926002502441406,1,1,1262,1262
30.79572300,30795723,0,-0.0006681348313577473,0.0011415178887546062,5.452300683828071e-05,0.5298300385475159,-0.4793988764286041,-9.849942207336426,0,0,45.926002502441406,1,1,1262,1262
30.79831100,30798311,0,-0.00024829499307088554,0.0008607498020865023,-0.00031133470474742353,0.5314520597457886,-0.4808042645454407,-9.850767135620117,0,0,45.926002502441406,1,1,1262,1262
30.80092500,30800925,0,0.00017770992417354137,0.0005141106084920466,-0.0008736008312553167,0.5327682495117188,-0.4832727015018463,-9.853764533996582,0,0,45.926002502441406,1,1,1262,1262
30.80334000,30803340,0,0.00028410437516868114,0.00033004573197104037,-0.0010507802944630384,0.5318865180015564,-0.48591485619544983,-9.857267379760742,0,0,45.926002502441406,1,1,1262,1262
30.80579700,30805797,0,0.0005859693046659231,0.00042400622623972595,-0.0009618886397220194,0.5302692651748657,-0.48591914772987366,-9.858065605163574,0,0,45.926002502441406,1,1,1262,1262
30.80832200,30808322,0,0.000999823329038918,0.0009050856460817158,-0.0007227176683954895,0.5291786789894104,-0.48485806584358215,-9.855159759521484,0,0,45.926002502441406,1,1,1262,1262
30.81096900,30810969,0,0.0012576770968735218,0.0011750363046303391,-0.00047978272777982056,0.5278550386428833,-0.4842403829097748,-9.853682518005371,0,0,45.926002502441406,1,1,1262,1262
30.81322900,30813229,0,0.0010349558433517814,0.001230343128554523,3.98457377741579e-05,0.5260488986968994,-0.48157864809036255,-9.851704597473145,0,0,45.926002502441406,1,1,1262,1262
30.81578500,30815785,0,0.0008241567411459982,0.0008827330311760306,0.00042868361924774945,0.5247722268104553,-0.47893860936164856,-9.85009765625,0,0,45.926002502441406,1,1,1262,1262
30.81827200,30818272,0,0.0005120278801769018,0.0006386374589055777,0.000553062476683408,0.5224140882492065,-0.47562453150749207,-9.847883224487305,0,0,45.926002502441406,1,1,1262,1262
30.82089500,30820895,0,0.0007509357528761029,0.0005997861153446138,0.0005720521439798176,0.5191727876663208,-0.4742143750190735,-9.846675872802734,0,0,45.926002502441406,1,1,1262,1262
30.82327100,30823271,0,0.0007111313752830029,0.0012385312002152205,0.0007150786696001887,0.5146936774253845,-0.4733699560165405,-9.84640121459961,0,0,45.926002502441406,1,1,1262,1262
30.82578400,30825784,0,0.00059598678490147,0.001600364688783884,0.0008379942155443132,0.5108211636543274,-0.47105151414871216,-9.845695495605469,0,0,45.926002502441406,1,1,1262,1262
30.82824500,30828245,0,0.0004764799668919295,0.001393748912960291,0.000912583782337606,0.5086874961853027,-0.4702704846858978,-9.84526538848877,0,0,45.926002502441406,1,1,1262,1262
30.83114200,30831142,0,0.0005572956870310009,0.0008138460689224303,0.0009128375677391887,0.5071952939033508,-0.4711485207080841,-9.847583770751953,0,0,45.926002502441406,1,1,1262,1262
30.83322600,30833226,0,0.0008001434616744518,0.0003907873760908842,0.0008817896596156061,0.5045806169509888,-0.4723827838897705,-9.851303100585938,0,0,45.926002502441406,1,1,1262,1262
30.83578000,30835780,0,0.0009639305644668639,0.00026276300195604563,0.00039264073711819947,0.5025903582572937,-0.47435176372528076,-9.853957176208496,0,0,45.926002502441406,1,1,1262,1262
30.83825300,30838253,0,0.0010185656137764454,0.00015056124539114535,3.265875875513302e-06,0.5032898187637329,-0.4760904014110565,-9.85403060913086,0,0,45.926002502441406,1,1,1262,1262
