timestamp,TimeUS,I,GyrX,GyrY,GyrZ,AccX,AccY,AccZ,EG,EA,T,GH,AH,GHz,AHz
65.09659800,65096598,0,-0.001644690753892064,0.0007989229634404182,-0.0014657985884696245,-0.34667694568634033,0.4268922507762909,-9.767373085021973,0,0,36.038002014160156,1,1,337,337
65.09887800,65098878,0,-0.0017031392781063914,0.0005876648356206715,-0.0015370022738352418,-0.34696078300476074,0.42709264159202576,-9.76722240447998,0,0,36.038002014160156,1,1,337,337
65.10134400,65101344,0,-0.0014867434510961175,0.00017415628826711327,-0.0014255217975005507,-0.3473140001296997,0.42718860507011414,-9.767083168029785,0,0,36.038002014160156,1,1,337,337
65.10402900,65104029,0,-0.0010158051736652851,-8.40739012346603e-05,-0.0013042869977653027,-0.3477342128753662,0.4272114932537079,-9.766946792602539,0,0,36.038002014160156,1,1,337,337
65.10642300,65106423,0,-0.00047383332275785506,-7.846243534004316e-05,-0.0013343493919819593,-0.34820494055747986,0.4271688759326935,-9.766798973083496,0,0,36.038002014160156,1,1,337,337
65.10889000,65108890,0,-5.976097781967837e-06,5.399794099503197e-05,-0.001335587352514267,-0.34869712591171265,0.42703989148139954,-9.766629219055176,0,0,36.038002014160156,1,1,337,337
65.11138300,65111383,0,0.0002810282167047262,0.0001896717440104112,-0.0012620351044461131,-0.3491777181625366,0.4267854392528534,-9.766427040100098,0,0,36.038002014160156,1,1,337,337
65.11404100,65114041,0,0.00028593456954695284,0.00028378708520904183,-0.0012673166347667575,-0.3496170938014984,0.4263712763786316,-9.76618766784668,0,0,36.038002014160156,1,1,337,337
65.11649500,65116495,0,8.076858648564667e-06,0.00040070261457003653,-0.0012899198336526752,-0.35000306367874146,0.42578864097595215,-9.765925407409668,0,0,36.038002014160156,1,1,337,337
65.11883800,65118838,0,-0.0004071954754181206,0.000576067017391324,-0.001262750825844705,-0.3503319323062897,0.42505159974098206,-9.765657424926758,0,0,36.038002014160156,1,1,337,337
65.12137600,65121376,0,-0.0008013624465093017,0.000709499407093972,-0.0010362836765125394,-0.3505869507789612,0.4241877794265747,-9.765393257141113,0,0,36.038002014160156,1,1,337,337
65.12404100,65124041,0,-0.0010540359653532505,0.0006885001785121858,-0.0004571356112137437,-0.350760281085968,0.4232364594936371,-9.765127182006836,0,0,36.038002014160156,1,1,337,337
65.12638700,65126387,0,-0.001195598510093987,0.0005207292269915342,0.00021067231136839837,-0.35087358951568604,0.4222404360771179,-9.764839172363281,0,0,36.038002014160156,1,1,337,337
65.12888600,65128886,0,-0.0013136421330273151,0.0003705572453327477,0.0005996462423354387,-0.3509674370288849,0.42123809456825256,-9.764512062072754,0,0,36.038002014160156,1,1,337,337
65.13132500,65131325,0,-0.0013186156284064054,0.00039100961294025183,0.0007238526595756412,-0.35108524560928345,0.4202430248260498,-9.764139175415039,0,0,36.038002014160156,1,1,337,337
65.13400000,65134000,0,-0.0011985037708655,0.0005102957948110998,0.0007066267426125705,-0.3512657880783081,0.41923224925994873,-9.763711929321289,0,0,36.038002014160156,1,1,337,337
65.13640700,65136407,0,-0.0011900612153112888,0.0004736624541692436,0.000578712671995163,-0.3515363931655884,0.4181853234767914,-9.763233184814453,0,0,36.038002014160156,1,1,337,337
65.13888700,65138887,0,-0.0013350426452234387,0.00017589326307643205,0.00039907763130031526,-0.3518999516963959,0.41710519790649414,-9.762696266174316,0,0,36.038002014160156,1,1,337,337
65.14139100,65141391,0,-0.0014112418284639716,-0.0002443295088596642,0.0001506474072812125,-0.3523446321487427,0.41600868105888367,-9.762084007263184,0,0,36.038002014160156,1,1,337,337
65.14404700,65144047,0,-0.0013520896900445223,-0.0006916382699273527,-0.00011166505282744765,-0.3528662919998169,0.4149109125137329,-9.761392593383789,0,0,36.038002014160156,1,1,337,337
65.14633700,65146337,0,-0.0012191766873002052,-0.0011354205198585987,-0.00012349270400591195,-0.3534606993198395,0.41381141543388367,-9.760647773742676,0,0,36.038002014160156,1,1,337,337
65.14884300,65148843,0,-0.0011433316394686699,-0.0015003419248387218,0.00018705704133026302,-0.3541097640991211,0.4127027988433838,-9.759902954101562,0,0,36.038002014160156,1,1,337,337
65.15143900,65151439,0,-0.0012246555415913463,-0.0018079020082950592,0.0005685663782060146,-0.354790061712265,0.4115854799747467,-9.759218215942383,0,0,36.038002014160156,1,1,337,337
65.15404500,65154045,0,-0.0013038840843364596,-0.002019447274506092,0.0008932654745876789,-0.35548025369644165,0.41048097610473633,-9.758647918701172,0,0,36.038002014160156,1,1,337,337
65.15640500,65156405,0,-0.0012581326300278306,-0.0019497082103043795,0.001149216783232987,-0.35616829991340637,0.4094293415546417,-9.758230209350586,0,0,36.038002014160156,1,1,337,337
65.15884600,65158846,0,-0.0012872801162302494,-0.0016345500480383635,0.0012216100003570318,-0.35685744881629944,0.40847304463386536,-9.757987976074219,0,0,36.038002014160156,1,1,337,337
65.16133500,65161335,0,-0.0015015985118225217,-0.0012369193136692047,0.0010622991248965263,-0.357557475566864,0.4076427221298218,-9.75792407989502,0,0,36.038002014160156,1,1,337,337
65.16422600,65164226,0,-0.0017448191065341234,-0.0008334370795637369,0.0006966150249354541,-0.35827013850212097,0.40695086121559143,-9.758028030395508,0,0,36.038002014160156,1,1,337,337
65.16646100,65166461,0,-0.0018636869499459863,-0.0005276981391943991,0.00013307758490554988,-0.35897600650787354,0.4063870310783386,-9.75827407836914,0,0,36.038002014160156,1,1,337,337
65.16914200,65169142,0,-0.0018096810672432184,-0.00042807130375877023,-0.0003715307102538645,-0.3596436679363251,0.4059199392795563,-9.758625030517578,0,0,36.038002014160156,1,1,337,337
65.17172900,65171729,0,-0.0016879304312169552,-0.0004324832116253674,-0.0005563391605392098,-0.3602522909641266,0.40551427006721497,-9.759039878845215,0,0,36.038002014160156,1,1,337,337
65.17404500,65174045,0,-0.0015680169453844428,-0.0004692373040597886,-0.00047419298789463937,-0.36079052090644836,0.40514495968818665,-9.759488105773926,0,0,36.038002014160156,1,1,337,337
65.17636800,65176368,0,-0.001375775900669396,-0.0006363443098962307,-0.00018524893675930798,-0.3612416982650757,0.4048033058643341,-9.759957313537598,0,0,36.038002014160156,1,1,337,337
65.17892200,65178922,0,-0.0011614857940003276,-0.0008337871986441314,0.00010854357242351398,-0.36158424615859985,0.4045024514198303,-9.760441780090332,0,0,36.038002014160156,1,1,337,337
65.18153800,65181538,0,-0.0010436857119202614,-0.0009702624520286918,0.00020068450248800218,-0.3617997467517853,0.4042747914791107,-9.760944366455078,0,0,36.038002014160156,1,1,337,337
65.18429300,65184293,0,-0.0009093835251405835,-0.0010558773064985871,0.00013465099618770182,-0.36185821890830994,0.4041489362716675,-9.761466026306152,0,0,36.038002014160156,1,1,337,337
65.18674600,65186746,0,-0.0006646554102189839,-0.0009869430214166641,6.846446194685996e-05,-0.3617269694805145,0.40412887930870056,-9.762003898620605,0,0,36.038002014160156,1,1,337,337
65.18934500,65189345,0,-0.0004673707881011069,-0.0008051430340856314,0.00018210279813501984,-0.3613847494125366,0.40418970584869385,-9.762566566467285,0,0,36.038002014160156,1,1,337,337
65.19133000,65191330,0,-0.0005498580285347998,-0.000547364994417876,0.00027477560797706246,-0.3608137369155884,0.40428757667541504,-9.763175964355469,0,0,36.038002014160156,1,1,337,337
65.19422900,65194229,0,-0.0009330766624771059,-9.970172686735168e-05,0.00011466690193628892,-0.36001333594322205,0.40439000725746155,-9.76384449005127,0,0,36.038002014160156,1,1,337,337
65.19657100,65196571,0,-0.0013377860886976123,0.0003544276987668127,-0.00012024426541756839,-0.3589984178543091,0.4045029878616333,-9.764568328857422,0,0,36.038002014160156,1,1,337,337
65.19912300,65199123,0,-0.0016250880435109138,0.0005041491240262985,-0.0003164702211506665,-0.35779044032096863,0.4046526253223419,-9.765339851379395,0,0,36.038002014160156,1,1,337,337
65.20173100,65201731,0,-0.0018693858291953802,0.00031344449962489307,-0.0005837450153194368,-0.3564167022705078,0.4048622250556946,-9.766139030456543,0,0,36.038002014160156,1,1,337,337
65.20451600,65204516,0,-0.0019466308876872063,-2.9451726732077077e-05,-0.0009217859478667378,-0.3549027144908905,0.4051382839679718,-9.766939163208008,0,0,36.038002014160156,1,1,337,337
65.20695300,65206953,0,-0.0018014218658208847,-0.00033902519498951733,-0.001121221692301333,-0.35326507687568665,0.4054650664329529,-9.767708778381348,0,0,36.038002014160156,1,1,337,337
65.20964500,65209645,0,-0.0016553462482988834,-0.0006529822130687535,-0.0010730462381616235,-0.35151931643486023,0.40582147240638733,-9.768423080444336,0,0,36.038002014160156,1,1,337,337
65.21163900,65211639,0,-0.0014381703222170472,-0.0009931785752996802,-0.0009410287020727992,-0.34968703985214233,0.4061882793903351,-9.769078254699707,0,0,36.038002014160156,1,1,337,337
65.21444700,65214447,0,-0.0010296081891283393,-0.0011969610350206494,-0.0008888053707778454,-0.347788006067276,0.40654823184013367,-9.769682884216309,0,0,36.038002014160156,1,1,337,337
65.21694800,65216948,0,-0.0006094634882174432,-0.0012403399450704455,-0.0008894827915355563,-0.34585437178611755,0.4068860411643982,-9.770259857177734,0,0,36.038002014160156,1,1,337,337
65.21945800,65219458,0,-0.0003430561919230968,-0.0011840368388220668,-0.0008926219888962805,-0.3439289629459381,0.4071880280971527,-9.770822525024414,0,0,36.038002014160156,1,1,337,337
65.22205100,65222051,0,-0.0002828754368238151,-0.0010172019246965647,-0.0008968795882537961,-0.34205716848373413,0.40744221210479736,-9.771364212036133,0,0,36.038002014160156,1,1,337,337
65.22480400,65224804,0,-0.00035132982884533703,-0.0007165665738284588,-0.000872545933816582,-0.34030020236968994,0.4076520800590515,-9.771866798400879,0,0,36.038002014160156,1,1,337,337
65.22725800,65227258,0,-0.0004885620437562466,-0.0003691963211167604,-0.0007763244793750346,-0.3387192487716675,0.40784212946891785,-9.77231216430664,0,0,36.038002014160156,1,1,337,337
65.22984700,65229847,0,-0.0007380681927315891,-0.00020446476992219687,-0.0006767268059775233,-0.33735391497612,0.40803423523902893,-9.772674560546875,0,0,36.038002014160156,1,1,337,337
65.23184100,65231841,0,-0.0011710552498698235,-0.0003096693835686892,-0.0006722774123772979,-0.3362245559692383,0.40824106335639954,-9.772933959960938,0,0,36.038002014160156,1,1,337,337
65.23483000,65234830,0,-0.0016946822870522738,-0.0005921512492932379,-0.0008110364433377981,-0.33533382415771484,0.4084739089012146,-9.773085594177246,0,0,36.038002014160156,1,1,337,337
65.23705500,65237055,0,-0.0020714092534035444,-0.0009490778902545571,-0.0010483961086720228,-0.3346759080886841,0.40872856974601746,-9.773138999938965,0,0,36.038002014160156,1,1,337,337
65.23996500,65239965,0,-0.0022052384447306395,-0.001311502419412136,-0.0012033127713948488,-0.33423712849617004,0.4089873731136322,-9.773104667663574,0,0,36.038002014160156,1,1,337,337
65.24240200,65242402,0,-0.0021519598085433245,-0.0015516199637204409,-0.001177484169602394,-0.3339970111846924,0.40924134850502014,-9.772997856140137,0,0,36.038002014160156,1,1,337,337
65.24501100,65245011,0,-0.002080014441162348,-0.0016069666016846895,-0.0010474093724042177,-0.3339361250400543,0.4094965159893036,-9.772836685180664,0,0,36.038002014160156,1,1,337,337
65.24744900,65247449,0,-0.002004792680963874,-0.0016044934745877981,-0.0008984556770883501,-0.3340289294719696,0.4097652733325958,-9.772632598876953,0,0,36.038002014160156,1,1,337,337
65.25004900,65250049,0,-0.0017630037618800998,-0.001654426334425807,-0.0007256320677697659,-0.3342587351799011,0.41006559133529663,-9.772419929504395,0,0,36.038002014160156,1,1,337,337
65.25204500,65252045,0,-0.001419919659383595,-0.0016724092420190573,-0.0005285640363581479,-0.3346378207206726,0.410420298576355,-9.77224349975586,0,0,36.038002014160156,1,1,337,337
65.25481500,65254815,0,-0.001140320091508329,-0.0016119405627250671,-0.0003384439623914659,-0.33519017696380615,0.4108286499977112,-9.77214241027832,0,0,36.038002014160156,1,1,337,337
65.25726700,65257267,0,-0.0008997516706585884,-0.0015979293966665864,-0.00023057976795826107,-0.33592933416366577,0.4112686216831207,-9.772137641906738,0,0,36.038002014160156,1,1,337,337
65.25985900,65259859,0,-0.0007083065574988723,-0.001641739159822464,-0.0002118829288519919,-0.33683836460113525,0.41172027587890625,-9.772211074829102,0,0,36.038002014160156,1,1,337,337
65.26245500,65262455,0,-0.0007106169941835105,-0.00157108751591295,-0.0001904264499899,-0.33787307143211365,0.41216588020324707,-9.772327423095703,0,0,36.038002014160156,1,1,337,337
65.26522300,65265223,0,-0.0009138008463196456,-0.0012963232584297657,-0.00016965543909464031,-0.33898627758026123,0.41259634494781494,-9.772457122802734,0,0,36.038002014160156,1,1,337,337
65.26766600,65267666,0,-0.001127596478909254,-0.0009591810521669686,-0.00015153597632888705,-0.34013524651527405,0.4130108952522278,-9.772587776184082,0,0,36.038002014160156,1,1,337,337
65.27024800,65270248,0,-0.0011230092495679855,-0.0006503412150777876,-0.00013694576045963913,-0.341281533241272,0.41340166330337524,-9.77270221710205,0,0,36.038002014160156,1,1,337,337
65.27225400,65272254,0,-0.000903210137039423,-0.0003628587583079934,-0.00015481628361158073,-0.3423977494239807,0.41374796628952026,-9.772788047790527,0,0,36.038002014160156,1,1,337,337
65.27501500,65275015,0,-0.0006948974914848804,-0.00020548506290651858,-0.00016118492931127548,-0.34347355365753174,0.4140174090862274,-9.7728271484375,0,0,36.038002014160156,1,1,337,337
65.27747500,65277475,0,-0.0005447020521387458,-0.00025735012604855,-0.00021764016128145158,-0.34451383352279663,0.4141886532306671,-9.772802352905273,0,0,36.038002014160156,1,1,337,337
65.28015400,65280154,0,-0.00038757562288083136,-0.00039872725028544664,-0.00035524004488252103,-0.3455233573913574,0.41427096724510193,-9.77270793914795,0,0,36.038002014160156,1,1,337,337
65.28275500,65282755,0,-0.0003585053200367838,-0.00046265602577477694,-0.0004396380390971899,-0.34649935364723206,0.41428717970848083,-9.772549629211426,0,0,36.038002014160156,1,1,337,337
65.28551600,65285516,0,-0.0005235868156887591,-0.0003874278627336025,-0.00045461158151738346,-0.3474397361278534,0.4142511487007141,-9.772356986999512,0,0,36.038002014160156,1,1,337,337
65.28796000,65287960,0,-0.0008145921165123582,-0.0002955097588710487,-0.00045564593165181577,-0.3483496606349945,0.4141685962677002,-9.772163391113281,0,0,36.038002014160156,1,1,337,337
65.29055500,65290555,0,-0.001206295331940055,-0.0003188185510225594,-0.00039072695653885603,-0.3492550849914551,0.41404488682746887,-9.771997451782227,0,0,36.038002014160156,1,1,337,337
65.29254800,65292548,0,-0.0015001109568402171,-0.0004366388311609626,-0.0002649752714205533,-0.3501790761947632,0.41387805342674255,-9.771879196166992,0,0,36.038002014160156,1,1,337,337
65.29534000,65295340,0,-0.0015314313350245357,-0.0005976914544589818,-0.00017438011127524078,-0.35111430287361145,0.4136526584625244,-9.771824836730957,0,0,36.038002014160156,1,1,337,337
65.29777800,65297778,0,-0.0014615007676184177,-0.0007381413597613573,-0.00011439950321801007,-0.35203316807746887,0.41334816813468933,-9.771849632263184,0,0,36.038002014160156,1,1,337,337
65.30036000,65300360,0,-0.0015407222090288997,-0.0007072390289977193,-2.1447192921186797e-05,-0.3529040217399597,0.4129677414894104,-9.771943092346191,0,0,36.038002014160156,1,1,337,337
65.30296600,65302966,0,-0.0018148807575926185,-0.0004918219055980444,0.00013856840087100863,-0.35370585322380066,0.41254952549934387,-9.77207088470459,0,0,36.038002014160156,1,1,337,337
65.30570800,65305708,0,-0.0021172554697841406,-0.0003055963898077607,0.0002058262180071324,-0.35444122552871704,0.4121488630771637,-9.77219295501709,0,0,36.038002014160156,1,1,337,337
65.30818200,65308182,0,-0.002288475865498185,-0.000271965196589008,3.812094291788526e-05,-0.35512682795524597,0.4118151366710663,-9.772290229797363,0,0,36.038002014160156,1,1,337,337
65.31074500,65310745,0,-0.002277134917676449,-0.00036113071837462485,-0.00019301328575238585,-0.35578489303588867,0.41157132387161255,-9.77236270904541,0,0,36.038002014160156,1,1,337,337
65.31275900,65312759,0,-0.0020725256763398647,-0.0004845839866902679,-0.00032154860673472285,-0.3564424216747284,0.4114023745059967,-9.772435188293457,0,0,36.038002014160156,1,1,337,337
65.31552500,65315525,0,-0.0017179962014779449,-0.0005574091337621212,-0.00031784109887667,-0.35711660981178284,0.41127341985702515,-9.772526741027832,0,0,36.038002014160156,1,1,337,337
65.31806800,65318068,0,-0.0014569790801033378,-0.0005635851994156837,-9.225276880897582e-05,-0.35780876874923706,0.41116005182266235,-9.772642135620117,0,0,36.038002014160156,1,1,337,337
65.32056700,65320567,0,-0.0012795599177479744,-0.0005872101173736155,0.00029793233261443675,-0.3584989309310913,0.4110473394393921,-9.772777557373047,0,0,36.038002014160156,1,1,337,337
65.32323100,65323231,0,-0.0009692767052911222,-0.0006762008415535092,0.0005418553482741117,-0.35914137959480286,0.41093578934669495,-9.77292537689209,0,0,36.038002014160156,1,1,337,337
65.32591800,65325918,0,-0.0006426494801416993,-0.0007654870860278606,0.0005576162948273122,-0.3596743643283844,0.4108399748802185,-9.77304458618164,0,0,36.038002014160156,1,1,337,337
65.32838200,65328382,0,-0.0004280360008124262,-0.0008165020844899118,0.0004941406659781933,-0.36005744338035583,0.41075876355171204,-9.77308464050293,0,0,36.038002014160156,1,1,337,337
65.33095800,65330958,0,-0.00027416725060902536,-0.0008393371826969087,0.0004769831139128655,-0.3602900803089142,0.41067710518836975,-9.77299690246582,0,0,36.038002014160156,1,1,337,337
65.33294700,65332947,0,-0.00023049389710649848,-0.0008430150919593871,0.0005179036525078118,-0.3603937327861786,0.4105815291404724,-9.772753715515137,0,0,36.038002014160156,1,1,337,337
65.33605600,65336056,0,-0.00040076716686598957,-0.0007773637771606445,0.00044482789235189557,-0.36040234565734863,0.41045308113098145,-9.772357940673828,0,0,36.038002014160156,1,1,337,337
65.33818600,65338186,0,-0.0007081256480887532,-0.0005625798949040473,0.00022576333140023053,-0.36035382747650146,0.41026803851127625,-9.771842956542969,0,0,36.038002014160156,1,1,337,337
65.34075400,65340754,0,-0.0009770573815330863,-0.0002826996787916869,-2.7279653295408934e-05,-0.36026841402053833,0.41000548005104065,-9.771259307861328,0,0,36.038002014160156,1,1,337,337
65.34335500,65343355,0,-0.0012229504063725471,-0.00013849434617441148,-0.0003306740545667708,-0.36012956500053406,0.40966105461120605,-9.770651817321777,0,0,36.038002014160156,1,1,337,337
65.34611300,65346113,0,-0.0014574088854715228,-0.00023419372155331075,-0.0006886724731884897,-0.35990869998931885,0.40925946831703186,-9.770054817199707,0,0,36.038002014160156,1,1,337,337
65.34855600,65348556,0,-0.001573367277160287,-0.0004904132219962776,-0.0010978898499161005,-0.35959479212760925,0.4088439643383026,-9.769505500793457,0,0,36.038002014160156,1,1,337,337
65.35117100,65351171,0,-0.0016929927514865994,-0.0007851997506804764,-0.0014356106985360384,-0.35918545722961426,0.4084673523902893,-9.769044876098633,0,0,36.02400207519531,1,1,337,337
65.35316500,65353165,0,-0.0018018565606325865,-0.001013368833810091,-0.001492925570346415,-0.3586861491203308,0.4081697165966034,-9.768699645996094,0,0,36.02400207519531,1,1,337,337
65.35593100,65355931,0,-0.0017774043371900916,-0.0010910385753959417,-0.0014067786978557706,-0.3581092059612274,0.4079585075378418,-9.768481254577637,0,0,36.02400207519531,1,1,337,337
65.35838700,65358387,0,-0.0017054383642971516,-0.0009848043555393815,-0.0012737797806039453,-0.3574731945991516,0.40782585740089417,-9.76838493347168,0,0,36.02400207519531,1,1,337,337
65.36096200,65360962,0,-0.0016419080784544349,-0.0007811462855897844,-0.000983447185717523,-0.35680896043777466,0.4077572822570801,-9.768390655517578,0,0,36.02400207519531,1,1,337,337
65.36357900,65363579,0,-0.0016766219632700086,-0.000714571273420006,-0.0006025362526997924,-0.35615137219429016,0.4077324867248535,-9.768473625183105,0,0,36.02400207519531,1,1,337,337
65.36636800,65366368,0,-0.0018233503215014935,-0.0007939619827084243,-0.00035313222906552255,-0.355524480342865,0.4077400267124176,-9.768619537353516,0,0,36.02400207519531,1,1,337,337
65.36880000,65368800,0,-0.0019341710722073913,-0.0008072449709288776,-0.00029495154740288854,-0.35493576526641846,0.40777650475502014,-9.76881217956543,0,0,36.02400207519531,1,1,337,337
65.37137000,65371370,0,-0.0020117461681365967,-0.0007223558495752513,-0.0002699249016586691,-0.3543776869773865,0.4078455865383148,-9.769033432006836,0,0,36.02400207519531,1,1,337,337
65.37337400,65373374,0,-0.0021188321989029646,-0.0006460926961153746,-0.00029603129951283336,-0.3538362383842468,0.40795043110847473,-9.769264221191406,0,0,36.02400207519531,1,1,337,337
65.37613700,65376137,0,-0.002116644289344549,-0.0006119764293543994,-0.000378389930119738,-0.353305846452713,0.4080866873264313,-9.769482612609863,0,0,36.02400207519531,1,1,337,337
65.37860300,65378603,0,-0.0019348070491105318,-0.0005777147598564625,-0.00048515736125409603,-0.352788507938385,0.4082641303539276,-9.769658088684082,0,0,36.02400207519531,1,1,337,337
65.38118400,65381184,0,-0.0016374457627534866,-0.0005470713367685676,-0.0006812168285250664,-0.352285772562027,0.40849852561950684,-9.769768714904785,0,0,36.02400207519531,1,1,337,337
65.38378700,65383787,0,-0.0012750261230394244,-0.0006082634208723903,-0.0008225790224969387,-0.3517991602420807,0.40878236293792725,-9.769797325134277,0,0,36.02400207519531,1,1,337,337
65.38654300,65386543,0,-0.0009132608538493514,-0.0007460187771357596,-0.000657126191072166,-0.3513227105140686,0.40908798575401306,-9.769754409790039,0,0,36.02400207519531,1,1,337,337
65.38907200,65389072,0,-0.0006485815392807126,-0.0009142221533693373,-0.000270276446826756,-0.35084420442581177,0.40937623381614685,-9.769661903381348,0,0,36.02400207519531,1,1,337,337
65.39168700,65391687,0,-0.0006427724729292095,-0.0010534788016229868,9.068914368981495e-05,-0.3503526747226715,0.40960532426834106,-9.769530296325684,0,0,36.02400207519531,1,1,337,337
65.39360000,65393600,0,-0.0007908963016234338,-0.0011317440075799823,0.00031092073186300695,-0.34984534978866577,0.409738153219223,-9.769359588623047,0,0,36.02400207519531,1,1,337,337
65.39646900,65396469,0,-0.0010141660459339619,-0.001194221549667418,0.00039520522113889456,-0.34934085607528687,0.4097561836242676,-9.769131660461426,0,0,36.02400207519531,1,1,337,337
65.39883000,65398830,0,-0.0014017656212672591,-0.0012118013110011816,0.0005338350892998278,-0.34887683391571045,0.4096713066101074,-9.768827438354492,0,0,36.02400207519531,1,1,337,337
65.40141500,65401415,0,-0.0016432246193289757,-0.001143305329605937,0.0006896608974784613,-0.34848660230636597,0.4095158278942108,-9.768441200256348,0,0,36.02400207519531,1,1,337,337
65.40402300,65404023,0,-0.0015992734115570784,-0.0009448599885217845,0.0007236501551233232,-0.34817877411842346,0.40932607650756836,-9.767999649047852,0,0,36.02400207519531,1,1,337,337
65.40685000,65406850,0,-0.0015638115582987666,-0.0006621191860176623,0.0006242255331017077,-0.347946435213089,0.40912771224975586,-9.767538070678711,0,0,36.02400207519531,1,1,337,337
65.40930500,65409305,0,-0.0015947978245094419,-0.0005039925454184413,0.0003413683734834194,-0.34779003262519836,0.4089297652244568,-9.767087936401367,0,0,36.02400207519531,1,1,337,337
65.41190800,65411908,0,-0.0015466117765754461,-0.0005807256093248725,-1.953818900801707e-05,-0.34771642088890076,0.40873339772224426,-9.766674995422363,0,0,36.02400207519531,1,1,337,337
65.41380900,65413809,0,-0.0014567490434274077,-0.0007306616753339767,-0.0002436806244077161,-0.34771737456321716,0.4085465669631958,-9.766316413879395,0,0,36.02400207519531,1,1,337,337
65.41668800,65416688,0,-0.001438300241716206,-0.0008213589899241924,-0.0003050109080504626,-0.3477640748023987,0.4083763062953949,-9.76603889465332,0,0,36.02400207519531,1,1,337,337
65.41922900,65419229,0,-0.0014065513387322426,-0.0009823422878980637,-0.0002920853439718485,-0.3478234112262726,0.4082149565219879,-9.765847206115723,0,0,36.02400207519531,1,1,337,337
65.42169900,65421699,0,-0.001312771812081337,-0.0012251315638422966,-0.0002941689745057374,-0.34786587953567505,0.4080554246902466,-9.765740394592285,0,0,36.02400207519531,1,1,337,337
65.42432400,65424324,0,-0.0012499828590080142,-0.0013749448116868734,-0.0003912957909051329,-0.347871869802475,0.40791255235671997,-9.765725135803223,0,0,36.02400207519531,1,1,337,337
65.42700300,65427003,0,-0.0012699216604232788,-0.0014247068902477622,-0.0004766205092892051,-0.34784525632858276,0.40781328082084656,-9.765790939331055,0,0,36.02400207519531,1,1,337,337
65.42953000,65429530,0,-0.0013366966741159558,-0.0013810446253046393,-0.0004881445784121752,-0.34780359268188477,0.407781720161438,-9.76591682434082,0,0,36.02400207519531,1,1,337,337
65.43203400,65432034,0,-0.0013664026046171784,-0.0012579829199239612,-0.00045471740304492414,-0.34776270389556885,0.4078247845172882,-9.76608657836914,0,0,36.02400207519531,1,1,337,337
65.43404800,65434048,0,-0.0014285310171544552,-0.0011299983598291874,-0.00039828376611694694,-0.3477437198162079,0.4079275131225586,-9.766288757324219,0,0,36.02400207519531,1,1,337,337
65.43709100,65437091,0,-0.0015031432267278433,-0.0009553487179800868,-0.00042070666677318513,-0.3477584719657898,0.4080689549446106,-9.76648998260498,0,0,36.02400207519531,1,1,337,337
65.43934100,65439341,0,-0.0015194951556622982,-0.0007431524572893977,-0.0004874047008343041,-0.34779632091522217,0.4082232713699341,-9.766654014587402,0,0,36.02400207519531,1,1,337,337
65.44190400,65441904,0,-0.0015283705433830619,-0.000704422069247812,-0.00048673199489712715,-0.3478405773639679,0.40837422013282776,-9.766770362854004,0,0,36.02400207519531,1,1,337,337
65.44454000,65444540,0,-0.0015318585792556405,-0.0008301931666210294,-0.0005326144746504724,-0.3478763699531555,0.40852126479148865,-9.766844749450684,0,0,36.02400207519531,1,1,337,337
65.44721200,65447212,0,-0.0016181591199710965,-0.0009246124536730349,-0.0007450732518918812,-0.34789735078811646,0.4086570143699646,-9.766885757446289,0,0,36.02400207519531,1,1,337,337
65.44975300,65449753,0,-0.001801758073270321,-0.0009902568999677896,-0.0009756233193911612,-0.3479050099849701,0.40878182649612427,-9.766911506652832,0,0,36.02400207519531,1,1,337,337
65.45226100,65452261,0,-0.002051921561360359,-0.0009453837992623448,-0.001134374993853271,-0.3479076325893402,0.4089171290397644,-9.766932487487793,0,0,36.02400207519531,1,1,337,337
65.45425300,65454253,0,-0.002372045535594225,-0.0007823260966688395,-0.0012334438506513834,-0.34792670607566833,0.40908193588256836,-9.766947746276855,0,0,36.02400207519531,1,1,337,337
65.45711900,65457119,0,-0.0025838175788521767,-0.0006244941032491624,-0.0013152508763596416,-0.3479744493961334,0.4092652201652527,-9.766949653625488,0,0,36.02400207519531,1,1,337,337
65.45948500,65459485,0,-0.0025357676204293966,-0.00048682058695703745,-0.0015507504576817155,-0.34804052114486694,0.409415066242218,-9.76693344116211,0,0,36.02400207519531,1,1,337,337
65.46213100,65462131,0,-0.0022238707169890404,-0.00043355615343898535,-0.0018230137648060918,-0.3481086790561676,0.4094781279563904,-9.766915321350098,0,0,36.02400207519531,1,1,337,337
65.46475100,65464751,0,-0.0017606490291655064,-0.00037845131009817123,-0.0018572671106085181,-0.34816423058509827,0.409428209066391,-9.766916275024414,0,0,36.02400207519531,1,1,337,337
65.46742400,65467424,0,-0.0013730652863159776,-0.00027062755543738604,-0.0016892794519662857,-0.3482012450695038,0.4092635214328766,-9.76694107055664,0,0,36.02400207519531,1,1,337,337
65.46996200,65469962,0,-0.0011009714799001813,-0.0002584137546364218,-0.001506064785644412,-0.34823542833328247,0.4090180993080139,-9.76698112487793,0,0,36.02400207519531,1,1,337,337
65.47247600,65472476,0,-0.0009266887209378183,-0.0003329346072860062,-0.0013912272406741977,-0.34830185770988464,0.40874379873275757,-9.76700496673584,0,0,36.02400207519531,1,1,337,337
65.47508200,65475082,0,-0.0009155526640824974,-0.0004219702968839556,-0.0013868851820006967,-0.34844568371772766,0.40849417448043823,-9.76698112487793,0,0,36.02400207519531,1,1,337,337
65.47739800,65477398,0,-0.001031030435115099,-0.00042359589133411646,-0.0014772420981898904,-0.3486998677253723,0.4083240330219269,-9.766899108886719,0,0,36.02400207519531,1,1,337,337
65.47976300,65479763,0,-0.0011226254282519221,-0.00031569425482302904,-0.0015275318874046206,-0.3490583896636963,0.4082679748535156,-9.766766548156738,0,0,36.02400207519531,1,1,337,337
65.48233100,65482331,0,-0.0011325873201712966,-0.00015459550195373595,-0.001519863260909915,-0.3494940996170044,0.40833526849746704,-9.76658821105957,0,0,36.02400207519531,1,1,337,337
65.48497400,65484974,0,-0.0011795085156336427,2.0589999621734023e-05,-0.0014499069657176733,-0.3499753773212433,0.40851956605911255,-9.766377449035645,0,0,36.02400207519531,1,1,337,337
65.48764900,65487649,0,-0.0011280712205916643,4.121127858525142e-05,-0.0012354535283520818,-0.35046669840812683,0.40879353880882263,-9.766144752502441,0,0,36.02400207519531,1,1,337,337
65.49019900,65490199,0,-0.0009087732760235667,-0.00011831078154500574,-0.0009010265930555761,-0.3509361147880554,0.4091181755065918,-9.765889167785645,0,0,36.02400207519531,1,1,337,337
65.49270900,65492709,0,-0.0007577425567433238,-0.00028088860563002527,-0.0006468798965215683,-0.3513622581958771,0.40945830941200256,-9.765606880187988,0,0,36.02400207519531,1,1,337,337
65.49531400,65495314,0,-0.0006058820872567594,-0.0003989058022852987,-0.0006405122694559395,-0.3517471253871918,0.409782350063324,-9.765301704406738,0,0,36.02400207519531,1,1,337,337
65.49750900,65497509,0,-0.0002683953498490155,-0.0005641545285470784,-0.0007527763373218477,-0.35211387276649475,0.41006913781166077,-9.764979362487793,0,0,36.02400207519531,1,1,337,337
65.49994800,65499948,0,-3.0226257877075113e-05,-0.0007683017756789923,-0.0008655709680169821,-0.3524971902370453,0.41031381487846375,-9.764641761779785,0,0,36.02400207519531,1,1,337,337
65.50252300,65502523,0,-0.00013576277706306428,-0.0009158272296190262,-0.000966485240496695,-0.3529420495033264,0.41053345799446106,-9.764293670654297,0,0,36.02400207519531,1,1,337,337
65.50513600,65505136,0,-0.0002894677745644003,-0.001013871398754418,-0.000905487104319036,-0.35348132252693176,0.41076427698135376,-9.763944625854492,0,0,36.02400207519531,1,1,337,337
65.50789000,65507890,0,-0.0003111143596470356,-0.0011295989388599992,-0.0007839913596399128,-0.35411596298217773,0.4110387861728668,-9.763618469238281,0,0,36.02400207519531,1,1,337,337
65.51041000,65510410,0,-0.0003385945747140795,-0.0012432871153578162,-0.0008701502811163664,-0.3548251986503601,0.4113716781139374,-9.763335227966309,0,0,36.02400207519531,1,1,337,337
65.51291500,65512915,0,-0.00045293846051208675,-0.0012570963008329272,-0.0010699687991291285,-0.3555831015110016,0.4117479622364044,-9.76309871673584,0,0,36.02400207519531,1,1,337,337
65.51553000,65515530,0,-0.0007503279484808445,-0.0010950904106721282,-0.0011427343124523759,-0.3563590943813324,0.4121258854866028,-9.76290512084961,0,0,36.02400207519531,1,1,337,337
65.51770900,65517709,0,-0.0012103462358936667,-0.0007601006072945893,-0.0010460114572197199,-0.3571188449859619,0.4124681353569031,-9.7627534866333,0,0,36.02400207519531,1,1,337,337
65.52023700,65520237,0,-0.001601767260581255,-0.0004740587610285729,-0.0008881664834916592,-0.35783854126930237,0.41274845600128174,-9.762651443481445,0,0,36.02400207519531,1,1,337,337
65.52272600,65522726,0,-0.0018526595085859299,-0.0005358622875064611,-0.0007687765755690634,-0.35849729180336,0.412950724363327,-9.76262378692627,0,0,36.02400207519531,1,1,337,337
65.52534100,65525341,0,-0.002050791634246707,-0.0007681872230023146,-0.0007138609071262181,-0.3590696156024933,0.413068026304245,-9.762678146362305,0,0,36.02400207519531,1,1,337,337
65.52811300,65528113,0,-0.0021962577011436224,-0.000788445642683655,-0.0006454779068008065,-0.35954034328460693,0.4130946397781372,-9.762802124023438,0,0,36.02400207519531,1,1,337,337
65.53055300,65530553,0,-0.002150841522961855,-0.0007097197812981904,-0.0005477193626575172,-0.35990336537361145,0.41303297877311707,-9.762982368469238,0,0,36.02400207519531,1,1,337,337
65.53314600,65533146,0,-0.00185332668479532,-0.0006960593746043742,-0.0005295132868923247,-0.36014696955680847,0.4128996431827545,-9.763191223144531,0,0,36.02400207519531,1,1,337,337
65.53577300,65535773,0,-0.0014674764825031161,-0.0006360281258821487,-0.0005603870959021151,-0.36026129126548767,0.41270995140075684,-9.763402938842773,0,0,36.02400207519531,1,1,337,337
65.53815100,65538151,0,-0.0011574086965993047,-0.0004974393523298204,-0.000501815346069634,-0.36023828387260437,0.41247090697288513,-9.763609886169434,0,0,36.02400207519531,1,1,337,337
65.54041200,65540412,0,-0.0009833292569965124,-0.0003561048652045429,-0.00033901905408129096,-0.360057532787323,0.4121960997581482,-9.763810157775879,0,0,36.02400207519531,1,1,337,337
65.54295200,65542952,0,-0.0008510166662745178,-0.0002572178782429546,-0.0001896873873192817,-0.3596947193145752,0.41189783811569214,-9.763997077941895,0,0,36.02400207519531,1,1,337,337
65.54559500,65545595,0,-0.0006425704923458397,-0.0001941596419783309,-0.00032361410558223724,-0.3591361343860626,0.4115943908691406,-9.76416301727295,0,0,36.02400207519531,1,1,337,337
65.54831700,65548317,0,-0.00046915991697460413,-0.000274310092208907,-0.0008123621228151023,-0.3583846688270569,0.41131600737571716,-9.76431655883789,0,0,36.02400207519531,1,1,337,337
65.55076000,65550760,0,-0.0004216256202198565,-0.0005169843207113445,-0.0012568444944918156,-0.3574649691581726,0.4110756516456604,-9.76446533203125,0,0,36.02400207519531,1,1,337,337
65.55336600,65553366,0,-0.00045377525384537876,-0.0006281166570261121,-0.001396711217239499,-0.35642802715301514,0.4108637571334839,-9.764609336853027,0,0,36.02400207519531,1,1,337,337
65.55598300,65555983,0,-0.000558431725949049,-0.0004765742924064398,-0.0013122676173225045,-0.3553272783756256,0.4106575846672058,-9.764748573303223,0,0,36.02400207519531,1,1,337,337
65.55814800,65558148,0,-0.0006659191567450762,-0.00024344447592739016,-0.0011041153920814395,-0.3542037606239319,0.4104367196559906,-9.76488208770752,0,0,36.02400207519531,1,1,337,337
65.56061800,65560618,0,-0.0006770824547857046,-0.00010237577953375876,-0.0009027927881106734,-0.3530803918838501,0.41019704937934875,-9.765007972717285,0,0,36.02400207519531,1,1,337,337
65.56317800,65563178,0,-0.0006587880779989064,-0.00011745769734261557,-0.000784867035690695,-0.3519498109817505,0.40993499755859375,-9.765135765075684,0,0,36.02400207519531,1,1,337,337
65.56583100,65565831,0,-0.000740199931897223,-0.00022338255075737834,-0.0007578723016194999,-0.3507983088493347,0.4096403419971466,-9.765276908874512,0,0,36.02400207519531,1,1,337,337
65.56856200,65568562,0,-0.000900649989489466,-0.0002564800961408764,-0.0007876459276303649,-0.34962788224220276,0.40931129455566406,-9.765437126159668,0,0,36.02400207519531,1,1,337,337
65.57098600,65570986,0,-0.0011769401608034968,-7.011069101281464e-05,-0.0007902327342890203,-0.3484613299369812,0.4089534282684326,-9.765620231628418,0,0,36.02400207519531,1,1,337,337
65.57368500,65573685,0,-0.001722307177260518,0.0002548727497924119,-0.0007188530289568007,-0.34734004735946655,0.4085788130760193,-9.765851020812988,0,0,36.02400207519531,1,1,337,337
65.57622300,65576223,0,-0.0021953019313514233,0.00042525611934252083,-0.0006401801947504282,-0.34630081057548523,0.40820541977882385,-9.766157150268555,0,0,36.02400207519531,1,1,337,337
65.57843600,65578436,0,-0.0021999874152243137,0.0003704903065226972,-0.0006808672333136201,-0.34537601470947266,0.407856285572052,-9.7665433883667,0,0,36.02400207519531,1,1,337,337
65.58082600,65580826,0,-0.0018692431040108204,0.00021710374858230352,-0.0009030143264681101,-0.34459397196769714,0.4075588285923004,-9.766986846923828,0,0,36.02400207519531,1,1,337,337
65.58338000,65583380,0,-0.0013756135012954473,-6.896817012602696e-06,-0.0012373996432870626,-0.3439582288265228,0.40732336044311523,-9.767441749572754,0,0,36.02400207519531,1,1,337,337
65.58601800,65586018,0,-0.0009252699092030525,-0.00021970461239106953,-0.0014581349678337574,-0.343450129032135,0.40714478492736816,-9.76786994934082,0,0,36.02400207519531,1,1,337,337
65.58879400,65588794,0,-0.0007220088737085462,-0.00037408326170407236,-0.0015301149105653167,-0.34303122758865356,0.40701812505722046,-9.768258094787598,0,0,36.02400207519531,1,1,337,337
65.59128600,65591286,0,-0.0006870469660498202,-0.000448375940322876,-0.0014486321015283465,-0.34265267848968506,0.40693870186805725,-9.768621444702148,0,0,36.02400207519531,1,1,337,337
65.59384200,65593842,0,-0.0006691531743854284,-0.00043841582373715937,-0.0011411105515435338,-0.342277467250824,0.4069019854068756,-9.768996238708496,0,0,36.02400207519531,1,1,337,337
65.59647800,65596478,0,-0.0006920949090272188,-0.0004660173144657165,-0.0008481477270834148,-0.3418864905834198,0.4068966507911682,-9.76942253112793,0,0,36.02400207519531,1,1,337,337
65.59853300,65598533,0,-0.0007367394864559174,-0.0005992588121443987,-0.0007394464337266982,-0.34148362278938293,0.4068984389305115,-9.769909858703613,0,0,36.02400207519531,1,1,337,337
65.60107100,65601071,0,-0.0007030300912447274,-0.0008094492368400097,-0.0006364451255649328,-0.3410934805870056,0.40688571333885193,-9.770438194274902,0,0,36.02400207519531,1,1,337,337
65.60363400,65603634,0,-0.0006841498543508351,-0.0009561049519106746,-0.0004327820206526667,-0.3407519459724426,0.40685996413230896,-9.770962715148926,0,0,36.02400207519531,1,1,337,337
65.60623900,65606239,0,-0.0007624728605151176,-0.0009341062395833433,-0.00022031836851965636,-0.34050485491752625,0.4068368077278137,-9.77143383026123,0,0,36.10200119018555,1,1,337,337
65.60900200,65609002,0,-0.0008610989898443222,-0.0007570209563709795,-5.440651148092002e-05,-0.34039270877838135,0.40684399008750916,-9.771811485290527,0,0,36.10200119018555,1,1,337,337
65.61142300,65611423,0,-0.000989879365079105,-0.0004784444463439286,3.7206376873655245e-05,-0.3404299318790436,0.4069342613220215,-9.772095680236816,0,0,36.10200119018555,1,1,337,337
65.61403600,65614036,0,-0.0013241474516689777,-0.000227468553930521,0.00013250087795313448,-0.34060758352279663,0.40715426206588745,-9.772316932678223,0,0,36.10200119018555,1,1,337,337
65.61663900,65616639,0,-0.0018015545792877674,-0.00013514512102119625,0.0002484662982169539,-0.3408959209918976,0.4075240194797516,-9.772507667541504,0,0,36.10200119018555,1,1,337,337
65.61895500,65618955,0,-0.0020529753528535366,-0.0001179649043479003,0.00022016922594048083,-0.34126055240631104,0.4080536961555481,-9.772697448730469,0,0,36.10200119018555,1,1,337,337
65.62137000,65621370,0,-0.0020282105542719364,2.561733163020108e-05,-5.675000011251541e-06,-0.34169140458106995,0.40873730182647705,-9.77289867401123,0,0,36.10200119018555,1,1,337,337
65.62388800,65623888,0,-0.0019577371422201395,0.00031491240952163935,-0.0003240912046749145,-0.34219294786453247,0.40954071283340454,-9.773103713989258,0,0,36.10200119018555,1,1,337,337
65.62650700,65626507,0,-0.00192540034186095,0.0006016363040544093,-0.0005477307713590562,-0.3427688181400299,0.41041165590286255,-9.773294448852539,0,0,36.10200119018555,1,1,337,337
65.62919000,65629190,0,-0.0018615580629557371,0.0007406655349768698,-0.0005758912302553654,-0.3434218168258667,0.411296010017395,-9.77346134185791,0,0,36.10200119018555,1,1,337,337
65.63161500,65631615,0,-0.0016419935273006558,0.0006908180075697601,-0.0004276564286556095,-0.3441470265388489,0.4121522009372711,-9.773582458496094,0,0,36.10200119018555,1,1,337,337
65.63431400,65634314,0,-0.001353947096504271,0.0004769190272781998,-0.0002485719742253423,-0.3449116349220276,0.41295722126960754,-9.77363395690918,0,0,36.10200119018555,1,1,337,337
65.63684100,65636841,0,-0.0011716604931280017,0.00030416619847528636,-0.00024333945475518703,-0.34567204117774963,0.4137117564678192,-9.773603439331055,0,0,36.10200119018555,1,1,337,337
65.63984300,65639843,0,-0.0010141264647245407,0.000347217166563496,-0.00031283567659556866,-0.34641033411026,0.4144306778907776,-9.773482322692871,0,0,36.10200119018555,1,1,337,337
65.64147100,65641471,0,-0.0007443163194693625,0.0004558276850730181,-0.00036148668732494116,-0.34712445735931396,0.41512057185173035,-9.773275375366211,0,0,36.10200119018555,1,1,337,337
65.64403700,65644037,0,-0.000609945273026824,0.0005051408079452813,-0.0005364996613934636,-0.34781283140182495,0.4157874584197998,-9.772994041442871,0,0,36.10200119018555,1,1,337,337
65.64662800,65646628,0,-0.0008294493309222162,0.0005140062421560287,-0.0006234572501853108,-0.3484741747379303,0.4164368212223053,-9.772652626037598,0,0,36.10200119018555,1,1,337,337
65.64941400,65649414,0,-0.0012059961445629597,0.0005267529631964862,-0.0003321402473375201,-0.3491143584251404,0.4170527458190918,-9.772274017333984,0,0,36.10200119018555,1,1,337,337
65.65185700,65651857,0,-0.0015772482147440314,0.00059800676535815,0.00018049159552901983,-0.34974586963653564,0.4176071584224701,-9.771885871887207,0,0,36.10200119018555,1,1,337,337
65.65454200,65654542,0,-0.001818847144022584,0.0006098254816606641,0.0005960052949376404,-0.350380003452301,0.4180752635002136,-9.77153491973877,0,0,36.10200119018555,1,1,337,337
65.65706800,65657068,0,-0.0019575445912778378,0.0004124086699448526,0.0007651156629435718,-0.35103365778923035,0.4184354841709137,-9.771260261535645,0,0,36.10200119018555,1,1,337,337
65.65990300,65659903,0,-0.0020778945181518793,8.363135566469282e-05,0.0008851942257024348,-0.35172197222709656,0.4186760485172272,-9.771068572998047,0,0,36.10200119018555,1,1,337,337
65.66175400,65661754,0,-0.002059194492176175,-0.00017222003953065723,0.0010208403691649437,-0.352437287569046,0.41881516575813293,-9.770944595336914,0,0,36.10200119018555,1,1,337,337
65.66434600,65664346,0,-0.001816202886402607,-0.00024204992223531008,0.001007074024528265,-0.3531515896320343,0.41889065504074097,-9.770870208740234,0,0,36.10200119018555,1,1,337,337
65.66695600,65666956,0,-0.0014090687036514282,-0.0001653736544540152,0.0008487263112328947,-0.353832870721817,0.41892969608306885,-9.770824432373047,0,0,36.10200119018555,1,1,337,337
65.66976600,65669766,0,-0.0010351246455684304,-6.781179399695247e-05,0.0006506692734546959,-0.3544456660747528,0.4189428985118866,-9.770785331726074,0,0,36.10200119018555,1,1,337,337
65.67216800,65672168,0,-0.000836437800899148,-8.3602310041897e-05,0.00045050884364172816,-0.3549656271934509,0.4189259111881256,-9.770735740661621,0,0,36.10200119018555,1,1,337,337
65.67474400,65674744,0,-0.0007342269527725875,-0.00016481374041177332,6.918969302205369e-05,-0.3553994596004486,0.4188750088214874,-9.77068042755127,0,0,36.10200119018555,1,1,337,337
65.67737900,65677379,0,-0.0007002002093940973,-0.00021840122644789517,-0.00040698033990338445,-0.3557676374912262,0.41879409551620483,-9.770618438720703,0,0,36.10200119018555,1,1,337,337
65.67943700,65679437,0,-0.0007102313684299588,-0.00033621597685851157,-0.0007150814635679126,-0.35609593987464905,0.4186728596687317,-9.770552635192871,0,0,36.10200119018555,1,1,337,337
65.68196700,65681967,0,-0.00063009635778144,-0.000536915787961334,-0.0008615476544946432,-0.3564146161079407,0.4184812605381012,-9.770476341247559,0,0,36.10200119018555,1,1,337,337
65.68453800,65684538,0,-0.000476434564916417,-0.000649829104077071,-0.0007812842959538102,-0.35673677921295166,0.4181928336620331,-9.770383834838867,0,0,36.10200119018555,1,1,337,337
65.68714400,65687144,0,-0.0002670493850018829,-0.0005833739996887743,-0.0004890477866865695,-0.3570461869239807,0.4178055226802826,-9.770277976989746,0,0,36.10200119018555,1,1,337,337
65.68993500,65689935,0,-4.730182627099566e-05,-0.00038908692658878863,-0.0001604606513865292,-0.35732144117355347,0.41734588146209717,-9.77015209197998,0,0,36.10200119018555,1,1,337,337
65.69237700,65692377,0,1.085817984858295e-05,-0.00016889534890651703,3.8955597119638696e-05,-0.3575434684753418,0.416852205991745,-9.770003318786621,0,0,36.10200119018555,1,1,337,337
65.69499600,65694996,0,-3.296299837529659e-05,-0.00015872174117248505,-9.003012382891029e-05,-0.35768166184425354,0.416351854801178,-9.769842147827148,0,0,36.10200119018555,1,1,337,337
65.69760500,65697605,0,-0.00013244048750493675,-0.0005043685669079423,-0.0004283459566067904,-0.3577020764350891,0.4158555269241333,-9.76969051361084,0,0,36.10200119018555,1,1,337,337
65.69966200,65699662,0,-0.0003980896435678005,-0.0008793991291895509,-0.0006237055640667677,-0.3575819432735443,0.41535869240760803,-9.769582748413086,0,0,36.10200119018555,1,1,337,337
65.70218900,65702189,0,-0.0007046332466416061,-0.0010297319386154413,-0.0006269044824875891,-0.3573228418827057,0.4148363471031189,-9.769551277160645,0,0,36.10200119018555,1,1,337,337
65.70478000,65704780,0,-0.0009734599152579904,-0.0010883306385949254,-0.0006023385794833302,-0.3569408357143402,0.4142591953277588,-9.769594192504883,0,0,36.10200119018555,1,1,337,337
65.70736200,65707362,0,-0.0012196798343211412,-0.0011150616919621825,-0.0005351927247829735,-0.35645806789398193,0.4136084020137787,-9.769683837890625,0,0,36.10200119018555,1,1,337,337
65.71021000,65710210,0,-0.0013683054130524397,-0.0011200305307283998,-0.0003061236930079758,-0.3559019863605499,0.41286757588386536,-9.769784927368164,0,0,36.10200119018555,1,1,337,337
65.71253000,65712530,0,-0.0013854799326509237,-0.0011691610561683774,5.165855691302568e-05,-0.3553045094013214,0.4120365083217621,-9.769862174987793,0,0,36.10200119018555,1,1,337,337
65.71521000,65715210,0,-0.0012365712318569422,-0.0011815460165962577,0.00041819113539531827,-0.354701429605484,0.41112956404685974,-9.769896507263184,0,0,36.10200119018555,1,1,337,337
65.71773200,65717732,0,-0.0010341996094211936,-0.001055658096447587,0.0006063120090402663,-0.35411787033081055,0.41016003489494324,-9.769898414611816,0,0,36.10200119018555,1,1,337,337
65.72051000,65720510,0,-0.0009084257762879133,-0.0009190805139951408,0.0005532645736820996,-0.3535621166229248,0.4091401696205139,-9.769886016845703,0,0,36.10200119018555,1,1,337,337
65.72252000,65722520,0,-0.0007552317110821605,-0.00096369837410748,0.0003055441193282604,-0.353020578622818,0.4080951511859894,-9.769883155822754,0,0,36.10200119018555,1,1,337,337
65.72503100,65725031,0,-0.0006311549805104733,-0.0011107975151389837,-8.826771227177233e-05,-0.3524739146232605,0.40706172585487366,-9.769906997680664,0,0,36.10200119018555,1,1,337,337
65.72761800,65727618,0,-0.0007680823910050094,-0.001072336919605732,-0.0003532595874276012,-0.35192587971687317,0.4060656726360321,-9.769964218139648,0,0,36.10200119018555,1,1,337,337
65.73045300,65730453,0,-0.0010447746608406305,-0.0008129716734401882,-0.0003117609885521233,-0.351400762796402,0.40512287616729736,-9.77004337310791,0,0,36.10200119018555,1,1,337,337
65.73277200,65732772,0,-0.001316735753789544,-0.0005659991293214262,-0.0001796230353647843,-0.35091325640678406,0.4042472243309021,-9.770119667053223,0,0,36.10200119018555,1,1,337,337
65.73538100,65735381,0,-0.0015276990598067641,-0.0004682400031015277,-0.00015206026728264987,-0.3504551947116852,0.40345072746276855,-9.77016544342041,0,0,36.10200119018555,1,1,337,337
65.73830200,65738302,0,-0.001564557896926999,-0.00044062186498194933,-0.00030458078254014254,-0.3500191867351532,0.40273675322532654,-9.770161628723145,0,0,36.10200119018555,1,1,337,337
65.74116000,65741160,0,-0.0015807055169716477,-0.0003711477911565453,-0.0006336382357403636,-0.3496054708957672,0.4020867943763733,-9.770122528076172,0,0,36.10200119018555,1,1,337,337
65.74258800,65742588,0,-0.0016692221397534013,-0.00019801748567260802,-0.0009164932416751981,-0.3492211401462555,0.40146303176879883,-9.770085334777832,0,0,36.10200119018555,1,1,337,337
65.74517100,65745171,0,-0.0017622328596189618,-1.1012310096703004e-05,-0.001055026426911354,-0.34889328479766846,0.4008452594280243,-9.7700777053833,0,0,36.10200119018555,1,1,337,337
65.74777700,65747777,0,-0.0018190559931099415,-6.635459430981427e-05,-0.0011794938473030925,-0.34865984320640564,0.40025052428245544,-9.77009105682373,0,0,36.10200119018555,1,1,337,337
65.75053200,65750532,0,-0.0018770985770970583,-0.0002880267857108265,-0.001253381371498108,-0.3485472500324249,0.3997287154197693,-9.770088195800781,0,0,36.10200119018555,1,1,337,337
65.75297900,65752979,0,-0.0019295881502330303,-0.0003538884920999408,-0.001231740228831768,-0.34855738282203674,0.39935219287872314,-9.770049095153809,0,0,36.10200119018555,1,1,337,337
65.75564800,65755648,0,-0.0018291478045284748,-0.0001763910986483097,-0.001242246013134718,-0.3486703932285309,0.39918482303619385,-9.76998519897461,0,0,36.10200119018555,1,1,337,337
65.75819200,65758192,0,-0.0016490003326907754,6.8448789534159e-05,-0.0012994467979297042,-0.3488536477088928,0.3992615044116974,-9.769920349121094,0,0,36.10200119018555,1,1,337,337
65.76112100,65761121,0,-0.0015850926283746958,0.00018273229943588376,-0.0013493233127519488,-0.3490639328956604,0.39957016706466675,-9.7698974609375,0,0,36.10200119018555,1,1,337,337
65.76287400,65762874,0,-0.0015681388322263956,0.00017855050100479275,-0.0013030901318416,-0.3492550253868103,0.4000566303730011,-9.769952774047852,0,0,36.10200119018555,1,1,337,337
65.76548000,65765480,0,-0.0014656513230875134,0.00010466480307513848,-0.0010897653410211205,-0.3493860363960266,0.4006504416465759,-9.770092964172363,0,0,36.10200119018555,1,1,337,337
65.76806400,65768064,0,-0.0013235905207693577,-2.5119652491412126e-06,-0.0007717577973380685,-0.3494204878807068,0.4012948274612427,-9.770293235778809,0,0,36.10200119018555,1,1,337,337
65.77086100,65770861,0,-0.0012310394085943699,-0.0001466099638491869,-0.00039734403253532946,-0.34934037923812866,0.40196678042411804,-9.770519256591797,0,0,36.10200119018555,1,1,337,337
65.77329500,65773295,0,-0.001149020972661674,-0.0004697538388427347,2.7581230824580416e-05,-0.3491651713848114,0.40266644954681396,-9.770745277404785,0,0,36.10200119018555,1,1,337,337
65.77586800,65775868,0,-0.001082107424736023,-0.000863993598613888,0.0003788929316215217,-0.3489408493041992,0.4034007787704468,-9.770950317382812,0,0,36.10200119018555,1,1,337,337
65.77849000,65778490,0,-0.0011465466814115644,-0.0010561610106378794,0.0005334552261047065,-0.3487159311771393,0.40417584776878357,-9.771098136901855,0,0,36.10200119018555,1,1,337,337
65.78121700,65781217,0,-0.001310600433498621,-0.0011078837560489774,0.0005835841875523329,-0.3485266864299774,0.40501078963279724,-9.77115249633789,0,0,36.10200119018555,1,1,337,337
65.78303200,65783032,0,-0.001458323560655117,-0.001157222199253738,0.0005376539775170386,-0.34838443994522095,0.40593647956848145,-9.771096229553223,0,0,36.10200119018555,1,1,337,337
65.78569200,65785692,0,-0.0015228178817778826,-0.001228607608936727,0.00041100935777649283,-0.34827813506126404,0.40697288513183594,-9.770947456359863,0,0,36.10200119018555,1,1,337,337
65.78829100,65788291,0,-0.0014734644209966063,-0.0012765385909006,0.00027905034949071705,-0.3481975793838501,0.40812328457832336,-9.770766258239746,0,0,36.10200119018555,1,1,337,337
65.79103000,65791030,0,-0.0012756453361362219,-0.001161431078799069,4.30375657742843e-05,-0.34814754128456116,0.40937596559524536,-9.770620346069336,0,0,36.10200119018555,1,1,337,337
65.79350600,65793506,0,-0.001068877405487001,-0.0009046290651895106,-0.0003154603182338178,-0.34813910722732544,0.4107128381729126,-9.770547866821289,0,0,36.10200119018555,1,1,337,337
65.79605700,65796057,0,-0.0010807174257934093,-0.0006780583644285798,-0.0005637696594931185,-0.34818193316459656,0.41211724281311035,-9.770563125610352,0,0,36.10200119018555,1,1,337,337
65.79870500,65798705,0,-0.0012495318660512567,-0.0006090594106353819,-0.0005760124186053872,-0.34827736020088196,0.413566917181015,-9.770648956298828,0,0,36.10200119018555,1,1,337,337
65.80151900,65801519,0,-0.0013490900164470077,-0.0006696286727674305,-0.0005623045144602656,-0.3484053313732147,0.4150346517562866,-9.770763397216797,0,0,36.10200119018555,1,1,337,337
65.80326300,65803263,0,-0.0012529040686786175,-0.000886760710272938,-0.0006210903520695865,-0.34854069352149963,0.416488915681839,-9.770868301391602,0,0,36.10200119018555,1,1,337,337
65.80586100,65805861,0,-0.0010511958971619606,-0.0012595151783898473,-0.0006300719687715173,-0.3486679196357727,0.41789475083351135,-9.77093505859375,0,0,36.10200119018555,1,1,337,337
65.80844000,65808440,0,-0.0008951842319220304,-0.0015689573483541608,-0.0004934149328619242,-0.3487730920314789,0.4192280173301697,-9.770954132080078,0,0,36.10200119018555,1,1,337,337
65.81121000,65811210,0,-0.0008982744184322655,-0.0017786574317142367,-0.00022769761562813073,-0.34885093569755554,0.4204676151275635,-9.770942687988281,0,0,36.10200119018555,1,1,337,337
65.81375300,65813753,0,-0.0011104251025244594,-0.0018778244266286492,8.572245133109391e-05,-0.3489108383655548,0.42159512639045715,-9.770927429199219,0,0,36.10200119018555,1,1,337,337
65.81624700,65816247,0,-0.0013082731747999787,-0.0018144319765269756,0.00042230068356730044,-0.34896835684776306,0.4226018488407135,-9.770920753479004,0,0,36.10200119018555,1,1,337,337
65.81886500,65818865,0,-0.0013610878959298134,-0.0016904175281524658,0.0007074112654663622,-0.34903040528297424,0.4234805703163147,-9.770936965942383,0,0,36.10200119018555,1,1,337,337
65.82177500,65821775,0,-0.0014662693720310926,-0.001543909776955843,0.0007584582199342549,-0.3490961492061615,0.4242396056652069,-9.770973205566406,0,0,36.10200119018555,1,1,337,337
65.82364700,65823647,0,-0.0017350575653836131,-0.0013423346681520343,0.0006653721211478114,-0.34915778040885925,0.4248940646648407,-9.77100658416748,0,0,36.10200119018555,1,1,337,337
65.82614800,65826148,0,-0.002071675378829241,-0.0011011477326974273,0.0006985464133322239,-0.34920138120651245,0.4254511594772339,-9.77100944519043,0,0,36.10200119018555,1,1,337,337
65.82875300,65828753,0,-0.0022105162497609854,-0.000920164748094976,0.0007741130539216101,-0.3492216467857361,0.425931841135025,-9.770963668823242,0,0,36.10200119018555,1,1,337,337
65.83144000,65831440,0,-0.0019580814987421036,-0.0008231948013417423,0.0007226484012790024,-0.34922081232070923,0.4263623356819153,-9.770866394042969,0,0,36.10200119018555,1,1,337,337
65.83395800,65833958,0,-0.0014148427871987224,-0.0007576686330139637,0.0005727258394472301,-0.3492082357406616,0.42675232887268066,-9.770730972290039,0,0,36.10200119018555,1,1,337,337
65.83655500,65836555,0,-0.0008157058618962765,-0.0008330209529958665,0.00035191100323572755,-0.34919214248657227,0.4270968735218048,-9.770585060119629,0,0,36.10200119018555,1,1,337,337
65.83916600,65839166,0,-0.0004785869678016752,-0.001098829205147922,0.00011298652680125087,-0.34916603565216064,0.42737072706222534,-9.770448684692383,0,0,36.10200119018555,1,1,337,337
65.84208500,65842085,0,-0.00044825748773291707,-0.0013335160911083221,-0.0001108316209865734,-0.34912413358688354,0.42753082513809204,-9.77033805847168,0,0,36.10200119018555,1,1,337,337
65.84370600,65843706,0,-0.00043013005051761866,-0.0014956063823774457,-0.00038788578240200877,-0.3490753173828125,0.427539199590683,-9.77025032043457,0,0,36.10200119018555,1,1,337,337
65.84628200,65846282,0,-0.0003348087484482676,-0.0015683870296925306,-0.0006377199897542596,-0.34904155135154724,0.42738378047943115,-9.770170211791992,0,0,36.10200119018555,1,1,337,337
65.84888300,65848883,0,-0.0002616648271214217,-0.0013788563665002584,-0.0007004574290476739,-0.34904247522354126,0.42708271741867065,-9.770095825195312,0,0,36.10200119018555,1,1,337,337
65.85164400,65851644,0,-0.00020956233493052423,-0.0011120602721348405,-0.0006456119008362293,-0.3490813970565796,0.4266670346260071,-9.770034790039062,0,0,36.10200119018555,1,1,337,337
65.85410200,65854102,0,-0.00023314038116950542,-0.0009147315286099911,-0.0005558558623306453,-0.3491540849208832,0.42615821957588196,-9.76999282836914,0,0,36.10200119018555,1,1,337,337
65.85667700,65856677,0,-0.00044295433326624334,-0.0007798757287673652,-0.0004263361042831093,-0.34924963116645813,0.4255760908126831,-9.76998233795166,0,0,36.10200119018555,1,1,337,337
65.85930500,65859305,0,-0.0008267546654678881,-0.0008693564450368285,-0.00037365074967965484,-0.3493509888648987,0.4249386489391327,-9.77000617980957,0,0,36.10200119018555,1,1,337,337
65.86219400,65862194,0,-0.001243303413502872,-0.0010532233864068985,-0.0004873365396633744,-0.3494500517845154,0.42424851655960083,-9.770054817199707,0,0,36.077999114990234,1,1,337,337
65.86392000,65863920,0,-0.0015190382255241275,-0.0009851750219240785,-0.0006008775089867413,-0.34953948855400085,0.4235152006149292,-9.770110130310059,0,0,36.077999114990234,1,1,337,337
65.86648000,65866480,0,-0.0016815714770928025,-0.0007465042290277779,-0.0005292976857163012,-0.3496057689189911,0.4227615296840668,-9.770158767700195,0,0,36.077999114990234,1,1,337,337
65.86909600,65869096,0,-0.0018458734266459942,-0.0006629396812058985,-0.0004134132759645581,-0.3496439754962921,0.42201507091522217,-9.770179748535156,0,0,36.077999114990234,1,1,337,337
65.87186000,65871860,0,-0.0020510463509708643,-0.0007378511945717037,-0.0004277866391930729,-0.34966376423835754,0.4213213622570038,-9.770147323608398,0,0,36.077999114990234,1,1,337,337
65.87432100,65874321,0,-0.0022582414094358683,-0.000840927823446691,-0.00040257241926155984,-0.34968799352645874,0.42072081565856934,-9.770039558410645,0,0,36.077999114990234,1,1,337,337
65.87688600,65876886,0,-0.002271473640576005,-0.0009495400590822101,-0.0002126736508216709,-0.3497370481491089,0.4202072322368622,-9.769850730895996,0,0,36.077999114990234,1,1,337,337
65.87950200,65879502,0,-0.0019380624871701002,-0.0009633080917410553,-3.215808101231232e-05,-0.3498149812221527,0.4197324514389038,-9.769598960876465,0,0,36.077999114990234,1,1,337,337
65.88239000,65882390,0,-0.001435413141734898,-0.0008042469853535295,9.449115896131843e-05,-0.34991830587387085,0.41923925280570984,-9.769296646118164,0,0,36.077999114990234,1,1,337,337
65.88412400,65884124,0,-0.0009732627077028155,-0.0005888252053409815,0.0002619277802295983,-0.35004374384880066,0.4186834990978241,-9.768960952758789,0,0,36.077999114990234,1,1,337,337
65.88669100,65886691,0,-0.0006138543831184506,-0.00047848952817730606,0.00037783014704473317,-0.3501812815666199,0.4180470108985901,-9.768610000610352,0,0,36.077999114990234,1,1,337,337
65.88939400,65889394,0,-0.0004981140373274684,-0.0005574885872192681,0.00033550974330864847,-0.35031479597091675,0.41733497381210327,-9.768253326416016,0,0,36.077999114990234,1,1,337,337
65.89219500,65892195,0,-0.000539188738912344,-0.0007688654004596174,0.00014647749776486307,-0.3504369556903839,0.41655251383781433,-9.767887115478516,0,0,36.077999114990234,1,1,337,337
65.89452000,65894520,0,-0.0004671365604735911,-0.0010069913696497679,-0.00010900155757553875,-0.35054129362106323,0.4156906306743622,-9.767495155334473,0,0,36.077999114990234,1,1,337,337
65.89718400,65897184,0,-0.0003934662672691047,-0.0012064201291650534,-0.00026103685377165675,-0.3506150543689728,0.41474175453186035,-9.767045974731445,0,0,36.077999114990234,1,1,337,337
65.89981200,65899812,0,-0.0006147355306893587,-0.0011598181445151567,-0.00027778834919445217,-0.3506540060043335,0.41371360421180725,-9.766499519348145,0,0,36.077999114990234,1,1,337,337
65.90264100,65902641,0,-0.0011019209632650018,-0.0008573802188038826,-0.00024140601453837007,-0.35066860914230347,0.4126344919204712,-9.76584243774414,0,0,36.077999114990234,1,1,337,337
65.90497700,65904977,0,-0.0015499460278078914,-0.0005225118366070092,-0.0002062842104351148,-0.3506753146648407,0.4115510582923889,-9.76510238647461,0,0,36.077999114990234,1,1,337,337
65.90692800,65906928,0,-0.0018687555566430092,-0.00023343530483543873,-0.00023329263785853982,-0.3506888747215271,0.4105120003223419,-9.764320373535156,0,0,36.077999114990234,1,1,337,337
65.90959000,65909590,0,-0.002191748470067978,-3.152336284983903e-05,-0.0002941750572063029,-0.35072949528694153,0.4095536768436432,-9.763547897338867,0,0,36.077999114990234,1,1,337,337
65.91231800,65912318,0,-0.0024247118271887302,3.935298082069494e-05,-0.0003973289567511529,-0.35080811381340027,0.40869423747062683,-9.762824058532715,0,0,36.077999114990234,1,1,337,337
65.91475700,65914757,0,-0.0024927931372076273,-3.262017708038911e-05,-0.0005719506298191845,-0.35091325640678406,0.4079352021217346,-9.762147903442383,0,0,36.077999114990234,1,1,337,337
65.91734100,65917341,0,-0.002484662691131234,-0.00018140854081138968,-0.0007412236300297081,-0.3510205149650574,0.40726351737976074,-9.761510848999023,0,0,36.077999114990234,1,1,337,337
65.91996300,65919963,0,-0.0024322778917849064,-0.00027322143432684243,-0.0007162685506045818,-0.3511011004447937,0.40666693449020386,-9.76091194152832,0,0,36.077999114990234,1,1,337,337
65.92271700,65922717,0,-0.002388142282143235,-0.0003213668242096901,-0.0003774351498577744,-0.3511293828487396,0.4061410129070282,-9.760346412658691,0,0,36.077999114990234,1,1,337,337
65.92534000,65925340,0,-0.002296077087521553,-0.00045362007222138345,-4.526600150711602e-06,-0.3510897159576416,0.40568143129348755,-9.759803771972656,0,0,36.077999114990234,1,1,337,337
65.92714000,65927140,0,-0.0020992010831832886,-0.0005637975409626961,0.00017548521282151341,-0.3509894609451294,0.4052908420562744,-9.759285926818848,0,0,36.077999114990234,1,1,337,337
65.92975900,65929759,0,-0.0018903339514508843,-0.0005050234030932188,0.00027938702260144055,-0.35084256529808044,0.40498533844947815,-9.75878620147705,0,0,36.077999114990234,1,1,337,337
65.93249400,65932494,0,-0.0017833267338573933,-0.0003525491920299828,0.00038456934271380305,-0.3506617546081543,0.404785692691803,-9.758313179016113,0,0,36.077999114990234,1,1,337,337
65.93495700,65934957,0,-0.0017770039848983288,-0.0002474496141076088,0.00042155172559432685,-0.35047268867492676,0.40469592809677124,-9.757894515991211,0,0,36.077999114990234,1,1,337,337
65.93753400,65937534,0,-0.0017734040739014745,-0.00023935492208693177,0.00027018084074370563,-0.3503052592277527,0.4046980142593384,-9.757555961608887,0,0,36.077999114990234,1,1,337,337
65.94015100,65940151,0,-0.0017142194556072354,-0.0002607890928629786,-6.27487970632501e-05,-0.35017213225364685,0.4047683775424957,-9.757318496704102,0,0,36.077999114990234,1,1,337,337
65.94315800,65943158,0,-0.0016285157762467861,-0.00023980648256838322,-0.00043841125443577766,-0.3500635623931885,0.40488532185554504,-9.75717830657959,0,0,36.077999114990234,1,1,337,337
65.94540500,65945405,0,-0.0016803398029878736,-0.00019597291247919202,-0.0007411794504150748,-0.3499705493450165,0.4050433337688446,-9.757113456726074,0,0,36.077999114990234,1,1,337,337
65.94734100,65947341,0,-0.001779212267138064,-0.00020093240891583264,-0.0009392525535076857,-0.3498989939689636,0.4052511155605316,-9.757101058959961,0,0,36.077999114990234,1,1,337,337
65.94997000,65949970,0,-0.0016649113968014717,-0.00026304463972337544,-0.0009387367172166705,-0.3498680889606476,0.4055161774158478,-9.757122993469238,0,0,36.077999114990234,1,1,337,337
65.95272000,65952720,0,-0.0014079317916184664,-0.00032349463435821235,-0.0006191178690642118,-0.34990862011909485,0.405845046043396,-9.75716781616211,0,0,36.077999114990234,1,1,337,337
65.95517700,65955177,0,-0.0011518265819177032,-0.0003476314595900476,-0.00011628583160927519,-0.35004088282585144,0.4062429964542389,-9.757233619689941,0,0,36.077999114990234,1,1,337,337
65.95776500,65957765,0,-0.0009527209331281483,-0.00037644716212525964,0.00032551007461734116,-0.35025444626808167,0.40671443939208984,-9.757308959960938,0,0,36.077999114990234,1,1,337,337
65.96039300,65960393,0,-0.0008664834313094616,-0.0004337116261012852,0.0005970158381387591,-0.35052549839019775,0.40725594758987427,-9.757380485534668,0,0,36.077999114990234,1,1,337,337
65.96327000,65963270,0,-0.0008276175940409303,-0.0005304259248077869,0.0006519411108456552,-0.3508255183696747,0.40784990787506104,-9.757431983947754,0,0,36.077999114990234,1,1,337,337
65.96562100,65965621,0,-0.0007058342453092337,-0.0006400465499609709,0.00045749457785859704,-0.35112857818603516,0.4084734618663788,-9.757460594177246,0,0,36.077999114990234,1,1,337,337
65.96755800,65967558,0,-0.0005769062554463744,-0.000659078941680491,5.0010698032565415e-05,-0.35142576694488525,0.40911272168159485,-9.75748062133789,0,0,36.077999114990234,1,1,337,337
65.97026900,65970269,0,-0.0005728593678213656,-0.0005360268405638635,-0.0004107874701730907,-0.3517228662967682,0.4097624123096466,-9.757522583007812,0,0,36.077999114990234,1,1,337,337
65.97294500,65972945,0,-0.000643205305095762,-0.0003997214662376791,-0.0006517870351672173,-0.3520321547985077,0.4104175865650177,-9.757603645324707,0,0,36.077999114990234,1,1,337,337
65.97547400,65975474,0,-0.0006924153422005475,-0.00038547712028957903,-0.0006213917513377964,-0.35235750675201416,0.41106685996055603,-9.757733345031738,0,0,36.077999114990234,1,1,337,337
65.97798000,65977980,0,-0.0006949949893169105,-0.00038747157668694854,-0.00043356051901355386,-0.35269537568092346,0.41167905926704407,-9.757925987243652,0,0,36.077999114990234,1,1,337,337
65.98066600,65980666,0,-0.0006696808850392699,-0.0003988671232946217,-2.883538581954781e-05,-0.35304245352745056,0.4122195243835449,-9.758196830749512,0,0,36.077999114990234,1,1,337,337
65.98346700,65983467,0,-0.0006881713052280247,-0.000472184648970142,0.0004029929405078292,-0.3533887267112732,0.4126787483692169,-9.75854206085205,0,0,36.077999114990234,1,1,337,337
65.98592300,65985923,0,-0.0008169839275069535,-0.0005454529309645295,0.0004586658033076674,-0.35371828079223633,0.4130764901638031,-9.75893783569336,0,0,36.077999114990234,1,1,337,337
65.98781700,65987817,0,-0.0010259971022605896,-0.0006971505936235189,0.0001991777535295114,-0.3540239632129669,0.41345885396003723,-9.759342193603516,0,0,36.077999114990234,1,1,337,337
65.99047300,65990473,0,-0.0012311149621382356,-0.0008501008269377053,-0.0001325166376773268,-0.3543134927749634,0.4138602614402771,-9.759716987609863,0,0,36.077999114990234,1,1,337,337
65.99328900,65993289,0,-0.0014405432157218456,-0.0007857037126086652,-0.00044231812353245914,-0.35460788011550903,0.41427624225616455,-9.760041236877441,0,0,36.077999114990234,1,1,337,337
65.99560000,65995600,0,-0.0016586753772571683,-0.0005707608652301133,-0.0006192807923071086,-0.35493284463882446,0.41468191146850586,-9.760320663452148,0,0,36.077999114990234,1,1,337,337
65.99828000,65998280,0,-0.001743205590173602,-0.000433868495747447,-0.0006120633333921432,-0.3552972674369812,0.4150480628013611,-9.760576248168945,0,0,36.077999114990234,1,1,337,337
66.00089900,66000899,0,-0.0017394771566614509,-0.0003579981566872448,-0.00041017355397343636,-0.35569486021995544,0.415362685918808,-9.760830879211426,0,0,36.077999114990234,1,1,337,337
66.00371600,66003716,0,-0.0017702642362564802,-0.00024008819309528917,3.4872704191002413e-07,-0.3561128079891205,0.41562938690185547,-9.761090278625488,0,0,36.077999114990234,1,1,337,337
66.00606100,66006061,0,-0.001818163087591529,-0.00016761638107709587,0.0005188348586671054,-0.35652559995651245,0.4158586263656616,-9.761359214782715,0,0,36.077999114990234,1,1,337,337
66.00802100,66008021,0,-0.0018422239227220416,-0.00015868186892475933,0.0008724426734261215,-0.3569173216819763,0.4160599708557129,-9.761655807495117,0,0,36.077999114990234,1,1,337,337
66.01062000,66010620,0,-0.0017631864175200462,-0.00021713382739108056,0.0008598320418968797,-0.3572809398174286,0.41622820496559143,-9.76199722290039,0,0,36.077999114990234,1,1,337,337
66.01340000,66013400,0,-0.001545258448459208,-0.00030917307594791055,0.00048774125752970576,-0.3576102554798126,0.4163588583469391,-9.76239013671875,0,0,36.077999114990234,1,1,337,337
66.01582600,66015826,0,-0.0011822597589343786,-0.00023839242930989712,5.816499106003903e-05,-0.3579070568084717,0.41644808650016785,-9.762826919555664,0,0,36.077999114990234,1,1,337,337
66.01841800,66018418,0,-0.0008301808265969157,-7.884106889832765e-05,-0.0001286650076508522,-0.3581659197807312,0.4164857268333435,-9.763274192810059,0,0,36.077999114990234,1,1,337,337
66.02104100,66021041,0,-0.0006378066027536988,-5.67285533179529e-05,-0.00018033335800282657,-0.3583753705024719,0.4164700210094452,-9.763691902160645,0,0,36.077999114990234,1,1,337,337
66.02378800,66023788,0,-0.00047442896175198257,-0.00017598556587472558,-0.0002039585669990629,-0.3585324287414551,0.4163856506347656,-9.76405143737793,0,0,36.077999114990234,1,1,337,337
66.02645400,66026454,0,-0.0004898532060906291,-0.0003084826748818159,-0.00020842223602812737,-0.3586556017398834,0.4161984920501709,-9.764331817626953,0,0,36.077999114990234,1,1,337,337
66.02825200,66028252,0,-0.0008398440550081432,-0.0003769093018490821,-0.0002010557072935626,-0.3587687909603119,0.4158993065357208,-9.764516830444336,0,0,36.077999114990234,1,1,337,337
66.03087400,66030874,0,-0.0011773689184337854,-0.0005151682998985052,-0.00012989307288080454,-0.3588863015174866,0.4155086874961853,-9.764609336853027,0,0,36.077999114990234,1,1,337,337
66.03363300,66033633,0,-0.0012982605258002877,-0.0007374213309958577,-8.623023313703015e-05,-0.35902100801467896,0.4150734841823578,-9.764631271362305,0,0,36.077999114990234,1,1,337,337
66.03609000,66036090,0,-0.0013065835228189826,-0.0008990078349597752,-0.000149953382788226,-0.3591703176498413,0.4146638810634613,-9.764627456665039,0,0,36.077999114990234,1,1,337,337
66.03867300,66038673,0,-0.0012761361431330442,-0.0010071973083540797,-0.00018400205590296537,-0.3593108355998993,0.4143354892730713,-9.764639854431152,0,0,36.077999114990234,1,1,337,337
66.04126900,66041269,0,-0.001197227044031024,-0.0009856881806626916,-8.162292942870408e-05,-0.359414666891098,0.41411668062210083,-9.76470947265625,0,0,36.077999114990234,1,1,337,337
66.04435400,66044354,0,-0.0011269431561231613,-0.0007745227194391191,9.0481094957795e-05,-0.3594571650028229,0.4140111804008484,-9.764850616455078,0,0,36.077999114990234,1,1,337,337
66.04649100,66046491,0,-0.0010981591185554862,-0.0006178379408083856,0.0002852698671631515,-0.3594234883785248,0.4139936864376068,-9.765042304992676,0,0,36.077999114990234,1,1,337,337
66.04906100,66049061,0,-0.001010683597996831,-0.0006543232011608779,0.0005300199845805764,-0.359314888715744,0.4140270948410034,-9.76525592803955,0,0,36.077999114990234,1,1,337,337
66.05108200,66051082,0,-0.0009554944117553532,-0.0007724673487246037,0.0007491034339182079,-0.3591328263282776,0.41407090425491333,-9.765474319458008,0,0,36.077999114990234,1,1,337,337
66.05383000,66053830,0,-0.0010693587828427553,-0.0008686108631081879,0.0008717143209651113,-0.3588721454143524,0.41408881545066833,-9.765682220458984,0,0,36.077999114990234,1,1,337,337
66.05628800,66056288,0,-0.0012422340223565698,-0.0009413309744559228,0.0008663509506732225,-0.35852861404418945,0.4140763580799103,-9.765878677368164,0,0,36.077999114990234,1,1,337,337
66.05887600,66058876,0,-0.0013449861435219646,-0.0010786975035443902,0.0006994002615101635,-0.3580990433692932,0.4140578508377075,-9.766077995300293,0,0,36.077999114990234,1,1,337,337
66.06147700,66061477,0,-0.0013951016589999199,-0.0012682900996878743,0.00048359946231357753,-0.35758793354034424,0.4140620529651642,-9.7662992477417,0,0,36.077999114990234,1,1,337,337
66.06424800,66064248,0,-0.0014374206075444818,-0.0013819338055327535,0.0002334069722564891,-0.35699284076690674,0.41410043835639954,-9.76657485961914,0,0,36.077999114990234,1,1,337,337
66.06670900,66066709,0,-0.001441753818653524,-0.001207967521622777,-3.8896592741366476e-05,-0.3563121259212494,0.4141553044319153,-9.766939163208008,0,0,36.077999114990234,1,1,337,337
66.06933300,66069333,0,-0.0014231231762096286,-0.000853691075462848,-0.00017968150496017188,-0.35556575655937195,0.4141896069049835,-9.767415046691895,0,0,36.077999114990234,1,1,337,337
66.07136100,66071361,0,-0.0015080805169418454,-0.0006900756270624697,-0.0002561526489444077,-0.3547719717025757,0.41415634751319885,-9.76799488067627,0,0,36.077999114990234,1,1,337,337
66.07426100,66074261,0,-0.0016739917919039726,-0.0007146467687562108,-0.0004014423757325858,-0.35395434498786926,0.4140208661556244,-9.768636703491211,0,0,36.077999114990234,1,1,337,337
66.07659000,66076590,0,-0.0016971472650766373,-0.0007616268121637404,-0.0004853992140851915,-0.3531481921672821,0.41380172967910767,-9.769280433654785,0,0,36.077999114990234,1,1,337,337
66.07910000,66079100,0,-0.001604465302079916,-0.0006728320149704814,-0.0004375774587970227,-0.3523779809474945,0.41355788707733154,-9.769867897033691,0,0,36.077999114990234,1,1,337,337
66.08169900,66081699,0,-0.0015683767851442099,-0.0004268503107596189,-0.0004896455211564898,-0.3516514003276825,0.4133423864841461,-9.770358085632324,0,0,36.077999114990234,1,1,337,337
66.08447100,66084471,0,-0.001540911616757512,-0.00022954864834900945,-0.0006816196837462485,-0.3509750962257385,0.4131814241409302,-9.770737648010254,0,0,36.077999114990234,1,1,337,337
66.08703400,66087034,0,-0.0014639361761510372,-0.000168786573340185,-0.0008493122295476496,-0.3503687083721161,0.4130631983280182,-9.771007537841797,0,0,36.077999114990234,1,1,337,337
66.08892900,66088929,0,-0.0014235490234568715,-8.028023148654029e-05,-0.000898115336894989,-0.349856436252594,0.41296300292015076,-9.771186828613281,0,0,36.077999114990234,1,1,337,337
66.09157700,66091577,0,-0.0014667826471850276,4.388101297081448e-05,-0.000784854986704886,-0.34944531321525574,0.4128654897212982,-9.771297454833984,0,0,36.077999114990234,1,1,337,337
66.09438200,66094382,0,-0.0014684831257909536,2.9739974252152024e-06,-0.000703037716448307,-0.349120169878006,0.41276395320892334,-9.771358489990234,0,0,36.077999114990234,1,1,337,337
66.09680400,66096804,0,-0.0013878169702365994,-0.00016005829093046486,-0.000735066772904247,-0.34885284304618835,0.4126734137535095,-9.771390914916992,0,0,36.077999114990234,1,1,337,337
66.09938700,66099387,0,-0.0013246804010123014,-0.00023382151266559958,-0.0006870871293358505,-0.34861087799072266,0.4126212000846863,-9.771402359008789,0,0,36.077999114990234,1,1,337,337
66.10199900,66101999,0,-0.001278750947676599,-0.00018915749387815595,-0.000596912985201925,-0.34837207198143005,0.4126315712928772,-9.771389961242676,0,0,36.077999114990234,1,1,337,337
66.10477200,66104772,0,-0.0012479773722589016,-7.918885967228562e-05,-0.0005202934262342751,-0.3481234312057495,0.412718802690506,-9.771347999572754,0,0,36.077999114990234,1,1,337,337
66.10724600,66107246,0,-0.0014022658579051495,8.635781705379486e-05,-0.0004023979709018022,-0.34786051511764526,0.41287440061569214,-9.771273612976074,0,0,36.077999114990234,1,1,337,337
66.10914300,66109143,0,-0.0017070554895326495,9.41605176194571e-05,-0.0003015980764757842,-0.3475933372974396,0.413062185049057,-9.771156311035156,0,0,36.077999114990234,1,1,337,337
66.11177100,66111771,0,-0.0018376742955297232,-0.00013626394502352923,-0.0002506134333088994,-0.34734484553337097,0.4132358133792877,-9.770995140075684,0,0,36.077999114990234,1,1,337,337
66.11456700,66114567,0,-0.0017934399656951427,-0.0003388896584510803,-0.00029222850571386516,-0.3471425473690033,0.4133537709712982,-9.770801544189453,0,0,36.077999114990234,1,1,337,337
66.11701300,66117013,0,-0.0018807848682627082,-0.0004167662700638175,-0.00044176916708238423,-0.3470037281513214,0.4133862555027008,-9.770601272583008,0,0,36.10200119018555,1,1,337,337
66.11963200,66119632,0,-0.002007815521210432,-0.0005563125014305115,-0.0005238835583440959,-0.34692955017089844,0.4133351147174835,-9.770410537719727,0,0,36.10200119018555,1,1,337,337
66.12226600,66122266,0,-0.0019430613610893488,-0.0007748796488158405,-0.0004132234025746584,-0.34691354632377625,0.41323038935661316,-9.77022933959961,0,0,36.10200119018555,1,1,337,337
66.12492700,66124927,0,-0.0018581115873530507,-0.0009302336256951094,-0.00020036469504702836,-0.34694281220436096,0.4131062626838684,-9.770072937011719,0,0,36.10200119018555,1,1,337,337
66.12757800,66127578,0,-0.0018279728246852756,-0.00097376958001405,0.00013638363452628255,-0.3469913601875305,0.41299355030059814,-9.769959449768066,0,0,36.10200119018555,1,1,337,337
66.12939000,66129390,0,-0.0018623452633619308,-0.0009175862069241703,0.0004812998522538692,-0.3470359444618225,0.41292667388916016,-9.769898414611816,0,0,36.10200119018555,1,1,337,337
66.13204300,66132043,0,-0.0019599986262619495,-0.0008948022732511163,0.0005922098644077778,-0.3470696806907654,0.4129501283168793,-9.769906997680664,0,0,36.10200119018555,1,1,337,337
66.13483000,66134830,0,-0.001969396835193038,-0.0009518477017991245,0.0005525488522835076,-0.34710055589675903,0.41309621930122375,-9.769991874694824,0,0,36.10200119018555,1,1,337,337
66.13725800,66137258,0,-0.0018103403272107244,-0.0010500012431293726,0.000428006547736004,-0.34714967012405396,0.4133652150630951,-9.77012825012207,0,0,36.10200119018555,1,1,337,337
66.13982900,66139829,0,-0.001597513211891055,-0.0011043008416891098,0.0002378682984272018,-0.347235769033432,0.4137285351753235,-9.770291328430176,0,0,36.10200119018555,1,1,337,337
66.14246000,66142460,0,-0.001491025323048234,-0.0010691728675737977,-2.8146325348643586e-05,-0.3473474383354187,0.414132297039032,-9.770463943481445,0,0,36.10200119018555,1,1,337,337
66.14545100,66145451,0,-0.001343852374702692,-0.0011000559898093343,-0.0004255088570062071,-0.3474464416503906,0.41451385617256165,-9.770627975463867,0,0,36.10200119018555,1,1,337,337
66.14772600,66147726,0,-0.0010445299558341503,-0.001166692702099681,-0.0007425229996442795,-0.3474985361099243,0.4148244261741638,-9.770776748657227,0,0,36.10200119018555,1,1,337,337
66.14966100,66149661,0,-0.0006874646642245352,-0.0011321253841742873,-0.000747334270272404,-0.3474873900413513,0.41504165530204773,-9.770913124084473,0,0,36.10200119018555,1,1,337,337
66.15226600,66152266,0,-0.00036360049853101373,-0.0010413613636046648,-0.0005667366203851998,-0.34741267561912537,0.4151671230792999,-9.771028518676758,0,0,36.10200119018555,1,1,337,337
66.15506900,66155069,0,-0.00023837895423639566,-0.0009559234604239464,-0.00041103671537712216,-0.347288578748703,0.41520971059799194,-9.771116256713867,0,0,36.10200119018555,1,1,337,337
66.15747500,66157475,0,-0.0003882996388711035,-0.0008252902189269662,-0.00031570810824632645,-0.34714895486831665,0.4151779115200043,-9.77118968963623,0,0,36.10200119018555,1,1,337,337
66.16005700,66160057,0,-0.0007137462962418795,-0.0006820152048021555,-0.0002664381463546306,-0.3470311760902405,0.415079802274704,-9.77125358581543,0,0,36.10200119018555,1,1,337,337
66.16270000,66162700,0,-0.0010791622335091233,-0.0006043303292244673,-0.00024977116845548153,-0.34695470333099365,0.414922833442688,-9.771309852600098,0,0,36.10200119018555,1,1,337,337
66.16543100,66165431,0,-0.0013999482616782188,-0.0005163004971109331,-0.00025421383907087147,-0.34692952036857605,0.41471415758132935,-9.77135181427002,0,0,36.10200119018555,1,1,337,337
66.16791700,66167917,0,-0.0017460029339417815,-0.00046045484486967325,-0.00021309089788701385,-0.3469504415988922,0.4144534468650818,-9.771358489990234,0,0,36.10200119018555,1,1,337,337
66.17048000,66170480,0,-0.0021559882443398237,-0.0006024664035066962,-0.0001494296157034114,-0.3469984829425812,0.4141336977481842,-9.77131462097168,0,0,36.10200119018555,1,1,337,337
66.17248200,66172482,0,-0.002473129192367196,-0.0008175037219189107,-7.930364517960697e-05,-0.3470495343208313,0.4137699604034424,-9.771224021911621,0,0,36.10200119018555,1,1,337,337
66.17524200,66175242,0,-0.002557032508775592,-0.0009949522791430354,1.5862471627769992e-05,-0.34706106781959534,0.4133969843387604,-9.771105766296387,0,0,36.10200119018555,1,1,337,337
66.17768000,66177680,0,-0.002378566889092326,-0.0011885424610227346,-5.719100226997398e-05,-0.34699517488479614,0.41304585337638855,-9.770980834960938,0,0,36.10200119018555,1,1,337,337
66.18025600,66180256,0,-0.0021216056775301695,-0.0011692089028656483,-0.0001931739243445918,-0.34684646129608154,0.4127512276172638,-9.770854949951172,0,0,36.10200119018555,1,1,337,337
66.18290200,66182902,0,-0.0020186996553093195,-0.0007955243927426636,-6.378949183272198e-05,-0.34663841128349304,0.4125369191169739,-9.770722389221191,0,0,36.10200119018555,1,1,337,337
66.18577900,66185779,0,-0.0021045319736003876,-0.00016601118841208518,0.00017996583483181894,-0.3464275002479553,0.4124096930027008,-9.770591735839844,0,0,36.10200119018555,1,1,337,337
66.18813500,66188135,0,-0.0023216495756059885,0.0005757398321293294,0.00026354598230682313,-0.3462781012058258,0.41237515211105347,-9.77048397064209,0,0,36.10200119018555,1,1,337,337
66.19008900,66190089,0,-0.002506662392988801,0.0011597989359870553,0.0003008197236340493,-0.3462196886539459,0.4124447703361511,-9.77039909362793,0,0,36.10200119018555,1,1,337,337
66.19268700,66192687,0,-0.002537486841902137,0.0013569805305451155,0.0003642272495198995,-0.3462429344654083,0.41263505816459656,-9.770319938659668,0,0,36.10200119018555,1,1,337,337
66.19547000,66195470,0,-0.0023297006264328957,0.0012173526920378208,0.00032108297455124557,-0.34631821513175964,0.4129462242126465,-9.770217895507812,0,0,36.10200119018555,1,1,337,337
66.19788300,66197883,0,-0.0019742788281291723,0.0009797393577173352,0.00021950245718471706,-0.3464116156101227,0.41334980726242065,-9.770062446594238,0,0,36.10200119018555,1,1,337,337
66.20046900,66200469,0,-0.001800198690034449,0.0007097875932231545,0.00020947105076629668,-0.3464927077293396,0.41380569338798523,-9.769837379455566,0,0,36.10200119018555,1,1,337,337
66.20310900,66203109,0,-0.001809917390346527,0.00042107701301574707,0.0003123267670162022,-0.3465483486652374,0.4142848253250122,-9.769545555114746,0,0,36.10200119018555,1,1,337,337
66.20584200,66205842,0,-0.001754672615788877,0.00021005753660574555,0.000470914994366467,-0.3465878665447235,0.41477492451667786,-9.769208908081055,0,0,36.10200119018555,1,1,337,337
66.20840300,66208403,0,-0.0016381354071199894,0.00012544795754365623,0.0006165694212540984,-0.34662675857543945,0.41529297828674316,-9.768863677978516,0,0,36.10200119018555,1,1,337,337
66.21030700,66210307,0,-0.001526692882180214,0.00015363996499218047,0.0006236440385691822,-0.3466927707195282,0.4158749282360077,-9.768538475036621,0,0,36.10200119018555,1,1,337,337
66.21289900,66212899,0,-0.0013727294281125069,0.00015920604346320033,0.0004615058423951268,-0.34682464599609375,0.41653868556022644,-9.768255233764648,0,0,36.10200119018555,1,1,337,337
66.21564100,66215641,0,-0.0012102302862331271,0.00015077111311256886,0.0003606545797083527,-0.34705665707588196,0.4172787368297577,-9.768024444580078,0,0,36.10200119018555,1,1,337,337
66.21809200,66218092,0,-0.0010602446272969246,0.0002501298440620303,0.000450967694632709,-0.3474048972129822,0.4180687665939331,-9.76785659790039,0,0,36.10200119018555,1,1,337,337
66.22067600,66220676,0,-0.0009050917578861117,0.00022982283553574234,0.00050075922627002,-0.3478550612926483,0.4188639521598816,-9.767752647399902,0,0,36.10200119018555,1,1,337,337
66.22330200,66223302,0,-0.0007636529626324773,-0.00017588186892680824,0.00031961724744178355,-0.3483728766441345,0.41963109374046326,-9.767701148986816,0,0,36.10200119018555,1,1,337,337
66.22608200,66226082,0,-0.0006168339168652892,-0.0007371662650257349,5.009209053241648e-05,-0.3489062190055847,0.4203546941280365,-9.76767349243164,0,0,36.10200119018555,1,1,337,337
66.22861200,66228612,0,-0.0005114951054565609,-0.0011283502681180835,-0.000156254944158718,-0.34940141439437866,0.4210141897201538,-9.767647743225098,0,0,36.10200119018555,1,1,337,337
66.23112400,66231124,0,-0.0005572830559685826,-0.0012613341677933931,-0.0004468449915293604,-0.34982457756996155,0.42158445715904236,-9.767610549926758,0,0,36.10200119018555,1,1,337,337
66.23315500,66233155,0,-0.0008027920848689973,-0.0010830661049112678,-0.0008422874961979687,-0.3501668870449066,0.4220435619354248,-9.767555236816406,0,0,36.10200119018555,1,1,337,337
66.23589000,66235890,0,-0.0011112411739304662,-0.0007109525613486767,-0.0011994849191978574,-0.3504488170146942,0.4223725497722626,-9.767498016357422,0,0,36.10200119018555,1,1,337,337
66.23870300,66238703,0,-0.0011932700872421265,-0.000465825927676633,-0.001524208695627749,-0.3507100045681,0.4225691854953766,-9.767461776733398,0,0,36.10200119018555,1,1,337,337
66.24107100,66241071,0,-0.001103549380786717,-0.0004663699655793607,-0.001737007638439536,-0.3509930670261383,0.422660231590271,-9.767457008361816,0,0,36.10200119018555,1,1,337,337
66.24354500,66243545,0,-0.001008197315968573,-0.0005259632016532123,-0.001831723959185183,-0.3513220250606537,0.4226842224597931,-9.767487525939941,0,0,36.10200119018555,1,1,337,337
66.24654300,66246543,0,-0.0008046460570767522,-0.0006140829063951969,-0.0018462709849700332,-0.35169708728790283,0.4226830303668976,-9.767542839050293,0,0,36.10200119018555,1,1,337,337
66.24879700,66248797,0,-0.0006741983233951032,-0.0006807759637013078,-0.0016390085220336914,-0.3521042466163635,0.42269426584243774,-9.767605781555176,0,0,36.10200119018555,1,1,337,337
66.25137100,66251371,0,-0.0008314925944432616,-0.0004972231690771878,-0.0012364170979708433,-0.3525238037109375,0.42271652817726135,-9.767662048339844,0,0,36.10200119018555,1,1,337,337
66.25334500,66253345,0,-0.0009406309109181166,-0.0001565242127981037,-0.0008480559336021543,-0.3529379665851593,0.42271357774734497,-9.767704010009766,0,0,36.10200119018555,1,1,337,337
66.25631300,66256313,0,-0.0008366918191313744,3.8850386772537604e-05,-0.0006828689947724342,-0.35331693291664124,0.422646164894104,-9.767732620239258,0,0,36.10200119018555,1,1,337,337
66.25875800,66258758,0,-0.0008769436390139163,1.1867013199662324e-05,-0.0006389131885953248,-0.3536202311515808,0.4224794805049896,-9.767757415771484,0,0,36.10200119018555,1,1,337,337
66.26134100,66261341,0,-0.0010846145451068878,-0.00011508775787660852,-0.00038357049925252795,-0.353826105594635,0.42220398783683777,-9.767784118652344,0,0,36.10200119018555,1,1,337,337
66.26396900,66263969,0,-0.0011098402319476008,-0.0002875207574106753,-1.8557860812506988e-06,-0.3539435565471649,0.4218536615371704,-9.767812728881836,0,0,36.10200119018555,1,1,337,337
66.26611200,66266112,0,-0.0008803271921351552,-0.0004970371373929083,0.0002694622380658984,-0.3540022373199463,0.4214733839035034,-9.767843246459961,0,0,36.10200119018555,1,1,337,337
66.26858400,66268584,0,-0.0005247693625278771,-0.0007346563506871462,0.00044606937444768846,-0.354035884141922,0.4210895299911499,-9.767862319946289,0,0,36.10200119018555,1,1,337,337
66.27113900,66271139,0,-0.00016180095553863794,-0.0009056417038664222,0.00046111445408314466,-0.35406792163848877,0.4207186698913574,-9.767842292785645,0,0,36.10200119018555,1,1,337,337
66.27377300,66273773,0,0.00013752083759754896,-0.0009610935812816024,0.00029247484053485096,-0.3541053533554077,0.42036163806915283,-9.7677583694458,0,0,36.10200119018555,1,1,337,337
66.27652600,66276526,0,0.00033799660741351545,-0.0010285103926435113,0.00011966806778218597,-0.35414034128189087,0.41999804973602295,-9.767598152160645,0,0,36.10200119018555,1,1,337,337
66.27896800,66278968,0,0.00028550109709613025,-0.0009805511217564344,-9.451036748941988e-05,-0.35415202379226685,0.41961678862571716,-9.767377853393555,0,0,36.10200119018555,1,1,337,337
66.28154700,66281547,0,-2.6303539925720543e-05,-0.0006966905784793198,-0.0003964136412832886,-0.3541148006916046,0.4192219078540802,-9.767138481140137,0,0,36.10200119018555,1,1,337,337
66.28416100,66284161,0,-0.0002852027246262878,-0.00041899000643752515,-0.0006312484038062394,-0.3540060520172119,0.4188171923160553,-9.766926765441895,0,0,36.10200119018555,1,1,337,337
66.28634500,66286345,0,-0.0003696071507874876,-0.00023254737607203424,-0.0007145958952605724,-0.3538059592247009,0.4184129536151886,-9.7667818069458,0,0,36.10200119018555,1,1,337,337
66.28881400,66288814,0,-0.0003991358680650592,-3.392537837498821e-05,-0.0006992206326685846,-0.3535043001174927,0.4180115759372711,-9.766719818115234,0,0,36.10200119018555,1,1,337,337
66.29136600,66291366,0,-0.0004505609394982457,0.00015043554594740272,-0.0006270433077588677,-0.3531135618686676,0.4175941050052643,-9.766725540161133,0,0,36.10200119018555,1,1,337,337
66.29395900,66293959,0,-0.000653359922580421,0.0002776256878860295,-0.00044265080941841006,-0.35266634821891785,0.41713663935661316,-9.766769409179688,0,0,36.10200119018555,1,1,337,337
66.29670800,66296708,0,-0.0010390514507889748,0.00027082799351774156,-0.00018294580513611436,-0.35219916701316833,0.4166181981563568,-9.766820907592773,0,0,36.10200119018555,1,1,337,337
66.29921900,66299219,0,-0.001376181491650641,9.90367989288643e-05,9.328212036052719e-05,-0.35174477100372314,0.4160202145576477,-9.766855239868164,0,0,36.10200119018555,1,1,337,337
66.30184300,66301843,0,-0.0015617250464856625,-0.0001230984489666298,0.00029184436425566673,-0.35133251547813416,0.4153265058994293,-9.766868591308594,0,0,36.10200119018555,1,1,337,337
66.30447700,66304477,0,-0.0017238176660612226,-0.00035103189293295145,0.0003365652810316533,-0.35097435116767883,0.41453027725219727,-9.766876220703125,0,0,36.10200119018555,1,1,337,337
66.30653200,66306532,0,-0.0018544982885941863,-0.0006153429858386517,0.00037172515294514596,-0.35065263509750366,0.4136538803577423,-9.766901969909668,0,0,36.10200119018555,1,1,337,337
66.30902700,66309027,0,-0.0018660682253539562,-0.0009014147217385471,0.0003398351254872978,-0.35034456849098206,0.4127458333969116,-9.766940116882324,0,0,36.10200119018555,1,1,337,337
66.31155900,66311559,0,-0.0017770555568858981,-0.001140651642344892,0.0001277188421227038,-0.350043386220932,0.4118567109107971,-9.76697063446045,0,0,36.10200119018555,1,1,337,337
66.31419500,66314195,0,-0.0016956875333562493,-0.0012974945129826665,-0.00011060936230933294,-0.34975019097328186,0.41103172302246094,-9.766966819763184,0,0,36.10200119018555,1,1,337,337
66.31708500,66317085,0,-0.0017428166465833783,-0.001417379593476653,-0.000309900613501668,-0.34947285056114197,0.4102898836135864,-9.766902923583984,0,0,36.10200119018555,1,1,337,337
66.31940500,66319405,0,-0.0018897410482168198,-0.0014736235607415438,-0.0005221143364906311,-0.3492322564125061,0.409626841545105,-9.766758918762207,0,0,36.10200119018555,1,1,337,337
66.32208500,66322085,0,-0.001935913460329175,-0.0013421314070001245,-0.0007766243070363998,-0.34906092286109924,0.4090381860733032,-9.766522407531738,0,0,36.10200119018555,1,1,337,337
66.32467900,66324679,0,-0.0017446684651076794,-0.0011136769317090511,-0.0011150462087243795,-0.3489946126937866,0.40851250290870667,-9.76619815826416,0,0,36.10200119018555,1,1,337,337
66.32683900,66326839,0,-0.0014047060394659638,-0.0009676726767793298,-0.0014377799816429615,-0.34905749559402466,0.40803930163383484,-9.765795707702637,0,0,36.10200119018555,1,1,337,337
66.32930300,66329303,0,-0.0010710132773965597,-0.0007999013760127127,-0.0014859847724437714,-0.3492497205734253,0.4076158106327057,-9.765318870544434,0,0,36.10200119018555,1,1,337,337
66.33177500,66331775,0,-0.0007195235812105238,-0.0004934112657792866,-0.001337606692686677,-0.3495495021343231,0.40723225474357605,-9.764771461486816,0,0,36.10200119018555,1,1,337,337
66.33439700,66334397,0,-0.0003667020355351269,-0.00022428666125051677,-0.0011752323480322957,-0.34992286562919617,0.4068727493286133,-9.764163970947266,0,0,36.10200119018555,1,1,337,337
66.33716500,66337165,0,-0.0003103762574028224,-0.00015035270189400762,-0.0008781577926129103,-0.3503318727016449,0.4065367579460144,-9.763514518737793,0,0,36.10200119018555,1,1,337,337
66.33960000,66339600,0,-0.0004933136515319347,-0.00022879861353430897,-0.0005622238968499005,-0.3507494032382965,0.40624484419822693,-9.762857437133789,0,0,36.10200119018555,1,1,337,337
66.34223500,66342235,0,-0.0005966130993328989,-0.0004177971859462559,-0.00047083140816539526,-0.35116520524024963,0.40602195262908936,-9.762248992919922,0,0,36.10200119018555,1,1,337,337
66.34486300,66344863,0,-0.0006703757680952549,-0.0005366593250073493,-0.00046470804954878986,-0.35158398747444153,0.40589016675949097,-9.761740684509277,0,0,36.10200119018555,1,1,337,337
66.34785600,66347856,0,-0.0008050516480579972,-0.0003419957647565752,-0.00042336375918239355,-0.35200297832489014,0.40586861968040466,-9.761368751525879,0,0,36.10200119018555,1,1,337,337
66.34949600,66349496,0,-0.0008748605032451451,4.6087374357739463e-05,-0.0004520112124737352,-0.35239875316619873,0.40596678853034973,-9.761140823364258,0,0,36.10200119018555,1,1,337,337
66.35205500,66352055,0,-0.0008987074252218008,0.0003339980321470648,-0.0005190110532566905,-0.35275039076805115,0.40617161989212036,-9.761037826538086,0,0,36.10200119018555,1,1,337,337
66.35465500,66354655,0,-0.0010367236100137234,0.00044507882557809353,-0.0006014798418618739,-0.35305356979370117,0.40644964575767517,-9.761009216308594,0,0,36.10200119018555,1,1,337,337
66.35742600,66357426,0,-0.0011410503648221493,0.0003530504764057696,-0.0007705733878538013,-0.35331854224205017,0.40675657987594604,-9.761008262634277,0,0,36.10200119018555,1,1,337,337
66.35985600,66359856,0,-0.0010413869749754667,6.430908251786605e-05,-0.0009726853459142148,-0.35356879234313965,0.4070596694946289,-9.760995864868164,0,0,36.10200119018555,1,1,337,337
66.36246200,66362462,0,-0.0008316942257806659,-0.0002233303530374542,-0.0011149134952574968,-0.3538393974304199,0.4073505699634552,-9.760952949523926,0,0,36.10200119018555,1,1,337,337
66.36506900,66365069,0,-0.0006658917991444468,-0.00039283951628021896,-0.0011199211003258824,-0.35416850447654724,0.4076288342475891,-9.760875701904297,0,0,36.10200119018555,1,1,337,337
66.36781400,66367814,0,-0.000630386988632381,-0.0005316513706929982,-0.0010143312392756343,-0.354576051235199,0.40790116786956787,-9.760775566101074,0,0,36.10200119018555,1,1,337,337
66.36966700,66369667,0,-0.0007334706024266779,-0.000666069972794503,-0.000854660349432379,-0.3550584316253662,0.4081805646419525,-9.760661125183105,0,0,36.10200119018555,1,1,337,337
66.37227000,66372270,0,-0.0008211024687625468,-0.0006393877556547523,-0.0006514316773973405,-0.35559797286987305,0.4084716737270355,-9.760528564453125,0,0,36.13399887084961,1,1,337,337
66.37484800,66374848,0,-0.0008037296356633306,-0.00040501204784959555,-0.00044437957694754004,-0.3561784625053406,0.4087645709514618,-9.76036548614502,0,0,36.13399887084961,1,1,337,337
66.37762900,66377629,0,-0.0007836371660232544,-4.418475509737618e-05,-0.0002862416731659323,-0.35678529739379883,0.409050315618515,-9.760177612304688,0,0,36.13399887084961,1,1,337,337
66.38008600,66380086,0,-0.0007065196987241507,0.0003813109651673585,-0.00017416797345504165,-0.3573911190032959,0.40932798385620117,-9.759982109069824,0,0,36.13399887084961,1,1,337,337
66.38265900,66382659,0,-0.0006039691506884992,0.0006263420218601823,-4.390396497910842e-05,-0.35796454548835754,0.40959683060646057,-9.759800910949707,0,0,36.13399887084961,1,1,337,337
66.38528100,66385281,0,-0.0006126172957010567,0.0005364562966860831,5.4255844588624313e-05,-0.3584776520729065,0.40984922647476196,-9.75967025756836,0,0,36.13399887084961,1,1,337,337
66.38742300,66387423,0,-0.0006861830479465425,0.0002579484134912491,-2.1175610527279787e-05,-0.3589128255844116,0.4100784361362457,-9.759620666503906,0,0,36.13399887084961,1,1,337,337
66.38989900,66389899,0,-0.0007326534250751138,-4.4565749703906476e-05,-0.00027763377875089645,-0.359261691570282,0.4102995693683624,-9.759663581848145,0,0,36.13399887084961,1,1,337,337
66.39246500,66392465,0,-0.0006140870973467827,-0.00018462413572706282,-0.0006423638551495969,-0.35953134298324585,0.4105401337146759,-9.759804725646973,0,0,36.13399887084961,1,1,337,337
66.39507500,66395075,0,-0.00038181027048267424,-4.0573027945356444e-05,-0.0010605744319036603,-0.3597494959831238,0.4108246862888336,-9.760037422180176,0,0,36.13399887084961,1,1,337,337
66.39795700,66397957,0,-0.00033765198895707726,0.00031374243553727865,-0.001321275602094829,-0.35994821786880493,0.4111609160900116,-9.760345458984375,0,0,36.13399887084961,1,1,337,337
66.40029100,66400291,0,-0.000524846138432622,0.0006390983471646905,-0.0011725801741704345,-0.36014941334724426,0.4115344285964966,-9.76070499420166,0,0,36.13399887084961,1,1,337,337
66.40296400,66402964,0,-0.0007712239748798311,0.0006241957889869809,-0.0006823401199653745,-0.3603515923023224,0.41192513704299927,-9.761072158813477,0,0,36.13399887084961,1,1,337,337
66.40549500,66405495,0,-0.0009396340465173125,0.00020784778462257236,-0.00030197619344107807,-0.36052554845809937,0.4123079776763916,-9.761397361755371,0,0,36.13399887084961,1,1,337,337
66.40826000,66408260,0,-0.0010724570602178574,-0.0002572595840319991,-0.00020056407083757222,-0.3606312572956085,0.41265353560447693,-9.761652946472168,0,0,36.13399887084961,1,1,337,337
66.41018000,66410180,0,-0.0013138114009052515,-0.00038423179648816586,-0.0001025534511427395,-0.36064034700393677,0.412935733795166,-9.761839866638184,0,0,36.13399887084961,1,1,337,337
66.41277500,66412775,0,-0.0016221386613324285,-0.00023964389401953667,1.1639785043371376e-05,-0.3605349063873291,0.4131317138671875,-9.76197624206543,0,0,36.13399887084961,1,1,337,337
66.41537000,66415370,0,-0.0018792063929140568,-9.383464202983305e-05,-4.968915891367942e-05,-0.36030665040016174,0.413228303194046,-9.762088775634766,0,0,36.13399887084961,1,1,337,337
66.41818700,66418187,0,-0.0019629523158073425,-4.94459891342558e-05,-0.00017953978385776281,-0.3599627912044525,0.4132424592971802,-9.762186050415039,0,0,36.13399887084961,1,1,337,337
66.42059000,66420590,0,-0.0019350018119439483,-0.00015629826521035284,-0.00022075761808082461,-0.35952454805374146,0.4132246673107147,-9.76225471496582,0,0,36.13399887084961,1,1,337,337
66.42316800,66423168,0,-0.0019878922030329704,-0.00039875085349194705,-0.00034899674938060343,-0.3590182960033417,0.41324135661125183,-9.762269973754883,0,0,36.13399887084961,1,1,337,337
66.42577900,66425779,0,-0.002025352092459798,-0.0006089145317673683,-0.0006588725955225527,-0.3584612011909485,0.4133516848087311,-9.762214660644531,0,0,36.13399887084961,1,1,337,337
66.42854300,66428543,0,-0.001934451051056385,-0.0006620617932640016,-0.0009564332431182265,-0.35784783959388733,0.41359418630599976,-9.762084007263184,0,0,36.13399887084961,1,1,337,337
66.43044700,66430447,0,-0.0017485680291429162,-0.0007316500414162874,-0.0010417706798762083,-0.35715970396995544,0.4139884114265442,-9.761880874633789,0,0,36.13399887084961,1,1,337,337
66.43297500,66432975,0,-0.0015265325782820582,-0.0009186244569718838,-0.0008482350967824459,-0.35638779401779175,0.4145301282405853,-9.761619567871094,0,0,36.13399887084961,1,1,337,337
66.43557500,66435575,0,-0.0013358858413994312,-0.0010973147582262754,-0.0005392663297243416,-0.35553133487701416,0.41518664360046387,-9.761321067810059,0,0,36.13399887084961,1,1,337,337
66.43840900,66438409,0,-0.0011268527014181018,-0.0011941936099901795,-0.00042568729259073734,-0.3545973300933838,0.41589322686195374,-9.761007308959961,0,0,36.13399887084961,1,1,337,337
66.44073000,66440730,0,-0.0009007368353195488,-0.0011745627271011472,-0.0004688922199420631,-0.35360637307167053,0.41657042503356934,-9.760701179504395,0,0,36.13399887084961,1,1,337,337
66.44337800,66443378,0,-0.0007753307581879199,-0.0010880561312660575,-0.0003987215459346771,-0.3525841236114502,0.41715458035469055,-9.760438919067383,0,0,36.13399887084961,1,1,337,337
66.44601000,66446010,0,-0.0007807103684172034,-0.001028884551487863,-0.0002689954708330333,-0.35155391693115234,0.41759607195854187,-9.760252952575684,0,0,36.13399887084961,1,1,337,337
66.44900000,66449000,0,-0.000891753938049078,-0.0011074714129790664,-0.00023319861793424934,-0.3505435287952423,0.417858362197876,-9.760135650634766,0,0,36.13399887084961,1,1,337,337
66.45063200,66450632,0,-0.0011685402132570744,-0.0012303499970585108,-0.000256897445069626,-0.3495778441429138,0.4179307818412781,-9.76004409790039,0,0,36.13399887084961,1,1,337,337
66.45319600,66453196,0,-0.001427176408469677,-0.001222207210958004,-0.00025568128330633044,-0.34866470098495483,0.4178188443183899,-9.759943008422852,0,0,36.13399887084961,1,1,337,337
66.45580100,66455801,0,-0.0013591686729341745,-0.0011661462485790253,-0.0001822551857912913,-0.3478039801120758,0.41752859950065613,-9.759827613830566,0,0,36.13399887084961,1,1,337,337
66.45856800,66458568,0,-0.0011338660260662436,-0.0010589754674583673,-0.00010279750858899206,-0.34699511528015137,0.41708052158355713,-9.759718894958496,0,0,36.13399887084961,1,1,337,337
66.46100700,66461007,0,-0.0010989101137965918,-0.0008755371673032641,-0.00011473825725261122,-0.3462444841861725,0.4165147840976715,-9.75964641571045,0,0,36.13399887084961,1,1,337,337
66.46359100,66463591,0,-0.001353217987343669,-0.0007819380261935294,-0.0002658947487361729,-0.34556421637535095,0.41588208079338074,-9.759648323059082,0,0,36.13399887084961,1,1,337,337
66.46624000,66466240,0,-0.0016937492182478309,-0.0008956282399594784,-0.0005695335566997528,-0.3449719548225403,0.4152420461177826,-9.759758949279785,0,0,36.13399887084961,1,1,337,337
66.46909900,66469099,0,-0.001818179851397872,-0.0010909918928518891,-0.0007002995698712766,-0.34448981285095215,0.4146551489830017,-9.759986877441406,0,0,36.13399887084961,1,1,337,337
66.47080700,66470807,0,-0.001801181584596634,-0.0011696352157741785,-0.0003978251479566097,-0.3441300392150879,0.41415417194366455,-9.760340690612793,0,0,36.13399887084961,1,1,337,337
66.47342100,66473421,0,-0.0018174393335357308,-0.001170653267763555,4.213573265587911e-05,-0.34388890862464905,0.41373300552368164,-9.760824203491211,0,0,36.13399887084961,1,1,337,337
66.47602800,66476028,0,-0.0018516333075240254,-0.001125591341406107,0.00031439814483746886,-0.343755304813385,0.413371741771698,-9.761420249938965,0,0,36.13399887084961,1,1,337,337
66.47876000,66478760,0,-0.0019215462962165475,-0.0009717321372590959,0.0004003264766652137,-0.34372568130493164,0.413045197725296,-9.762093544006348,0,0,36.13399887084961,1,1,337,337
66.48122300,66481223,0,-0.001976259984076023,-0.0007988702272996306,0.00039540964644402266,-0.3437963128089905,0.4127306640148163,-9.76280403137207,0,0,36.13399887084961,1,1,337,337
66.48379400,66483794,0,-0.0020160574931651354,-0.0007198232924565673,0.0003084319760091603,-0.34397023916244507,0.4124218225479126,-9.763510704040527,0,0,36.13399887084961,1,1,337,337
66.48644000,66486440,0,-0.0020715121645480394,-0.0007048804545775056,3.8294259866233915e-05,-0.34426349401474,0.412126749753952,-9.764165878295898,0,0,36.13399887084961,1,1,337,337
66.48916700,66489167,0,-0.0018998972373083234,-0.000729515915736556,-0.00039748643757775426,-0.3446827828884125,0.41185280680656433,-9.76474380493164,0,0,36.13399887084961,1,1,337,337
66.49109600,66491096,0,-0.001497191027738154,-0.0006885467446409166,-0.0007402816554531455,-0.3452264964580536,0.41158533096313477,-9.765235900878906,0,0,36.13399887084961,1,1,337,337
66.49362200,66493622,0,-0.0011163419112563133,-0.0004691887297667563,-0.0008757761097513139,-0.3458783030509949,0.4112902283668518,-9.765640258789062,0,0,36.13399887084961,1,1,337,337
66.49621100,66496211,0,-0.0007320254226215184,-0.00031186972046270967,-0.0010466167004778981,-0.34660911560058594,0.41093015670776367,-9.765970230102539,0,0,36.13399887084961,1,1,337,337
66.49898000,66498980,0,-0.0004447918327059597,-0.0003522655460983515,-0.0013638857053592801,-0.34737831354141235,0.4104861617088318,-9.76624584197998,0,0,36.13399887084961,1,1,337,337
66.50152000,66501520,0,-0.0003612786531448364,-0.0005341754294931889,-0.0017335694283246994,-0.3481424152851105,0.4099835455417633,-9.766486167907715,0,0,36.13399887084961,1,1,337,337
66.50402800,66504028,0,-0.0003210590803064406,-0.0009529837989248335,-0.0020367391407489777,-0.34888356924057007,0.40948039293289185,-9.766700744628906,0,0,36.13399887084961,1,1,337,337
66.50665800,66506658,0,-0.0002532399957999587,-0.001495599513873458,-0.002152568893507123,-0.34959280490875244,0.4090355932712555,-9.766888618469238,0,0,36.13399887084961,1,1,337,337
66.50946000,66509460,0,-0.0002052017516689375,-0.0019089039415121078,-0.0021161383483558893,-0.3502693474292755,0.40870165824890137,-9.767054557800293,0,0,36.13399887084961,1,1,337,337
66.51131900,66511319,0,-0.00026045137201435864,-0.002085772342979908,-0.001964683411642909,-0.3509196639060974,0.4085107743740082,-9.767199516296387,0,0,36.13399887084961,1,1,337,337
66.51389700,66513897,0,-0.0003708955191541463,-0.0018731533782556653,-0.00167510483879596,-0.35154277086257935,0.4084700047969818,-9.767330169677734,0,0,36.13399887084961,1,1,337,337
66.51650800,66516508,0,-0.0005020857788622379,-0.0013376910937950015,-0.0013062425423413515,-0.35213780403137207,0.40856385231018066,-9.767461776733398,0,0,36.13399887084961,1,1,337,337
66.51926500,66519265,0,-0.0007753450772725046,-0.0008416892378591001,-0.0009878936689347029,-0.35269734263420105,0.4087565839290619,-9.767600059509277,0,0,36.13399887084961,1,1,337,337
66.52170700,66521707,0,-0.0011607821797952056,-0.0005378539790399373,-0.0008778434712439775,-0.3532148003578186,0.40902265906333923,-9.767744064331055,0,0,36.13399887084961,1,1,337,337
66.52428400,66524284,0,-0.0015421874122694135,-0.00038066989509388804,-0.0009894270915538073,-0.35369157791137695,0.4093458950519562,-9.767885208129883,0,0,36.13399887084961,1,1,337,337
66.52691200,66526912,0,-0.001879969728179276,-0.00029853417072445154,-0.0011338202748447657,-0.35412219166755676,0.4097113311290741,-9.76799488067627,0,0,36.13399887084961,1,1,337,337
66.52966000,66529660,0,-0.0021553996484726667,-0.00024092929379548877,-0.0011956524103879929,-0.35448798537254333,0.4101264476776123,-9.768047332763672,0,0,36.13399887084961,1,1,337,337
66.53154600,66531546,0,-0.002248952630907297,-0.00017528636089991778,-0.001288286643102765,-0.3547726571559906,0.4105975925922394,-9.768050193786621,0,0,36.13399887084961,1,1,337,337
66.53408000,66534080,0,-0.002195889363065362,-2.5600209482945502e-05,-0.0013315603137016296,-0.35496214032173157,0.4111160933971405,-9.768019676208496,0,0,36.13399887084961,1,1,337,337
66.53670500,66536705,0,-0.00229208217933774,0.00015767378499731421,-0.0010817841393873096,-0.3550303280353546,0.41166701912879944,-9.767990112304688,0,0,36.13399887084961,1,1,337,337
66.53944800,66539448,0,-0.00246626534499228,0.00016826447972562164,-0.0006278795190155506,-0.3549686074256897,0.41222962737083435,-9.767988204956055,0,0,36.13399887084961,1,1,337,337
66.54190800,66541908,0,-0.0024374572094529867,-1.0933978046523407e-05,-0.00021733502217102796,-0.35480499267578125,0.4127785563468933,-9.768025398254395,0,0,36.13399887084961,1,1,337,337
66.54449000,66544490,0,-0.002291550859808922,-0.0002831531164702028,-0.0001072006780304946,-0.3545721173286438,0.41328397393226624,-9.768111228942871,0,0,36.13399887084961,1,1,337,337
66.54712800,66547128,0,-0.0021784526761621237,-0.0006962023326195776,-0.0002732582506723702,-0.3542926013469696,0.4137336015701294,-9.768240928649902,0,0,36.13399887084961,1,1,337,337
66.55013900,66550139,0,-0.001953044324181974,-0.0012055824045091867,-0.0003833724476862699,-0.3539869785308838,0.4141305983066559,-9.768380165100098,0,0,36.13399887084961,1,1,337,337
66.55176300,66551763,0,-0.001627908437512815,-0.0016305592143908143,-0.0004772449901793152,-0.353666752576828,0.41447821259498596,-9.768479347229004,0,0,36.13399887084961,1,1,337,337
66.55433900,66554339,0,-0.001538004376925528,-0.0018444330198690295,-0.0006377301178872585,-0.35333535075187683,0.41478657722473145,-9.768506050109863,0,0,36.13399887084961,1,1,337,337
66.55695000,66556950,0,-0.0017122994177043438,-0.0019101673969998956,-0.0005899665993638337,-0.3529958724975586,0.4150650203227997,-9.768461227416992,0,0,36.13399887084961,1,1,337,337
66.55971900,66559719,0,-0.0019090381683781743,-0.0018522724276408553,-0.00025128081324510276,-0.3526441752910614,0.41532203555107117,-9.768366813659668,0,0,36.13399887084961,1,1,337,337
66.56215700,66562157,0,-0.0020977980457246304,-0.001583455945365131,0.00016548788698855788,-0.35226258635520935,0.4155793786048889,-9.76826286315918,0,0,36.13399887084961,1,1,337,337
66.56474800,66564748,0,-0.0021750451996922493,-0.0013339663855731487,0.00041067966958507895,-0.3518355190753937,0.4158564507961273,-9.768178939819336,0,0,36.13399887084961,1,1,337,337
66.56734400,66567344,0,-0.0019475561566650867,-0.0012956553837284446,0.0003837872645817697,-0.35136324167251587,0.41617053747177124,-9.768113136291504,0,0,36.13399887084961,1,1,337,337
66.57011100,66570111,0,-0.0015354014467447996,-0.0012713744072243571,0.00016987881099339575,-0.35086026787757874,0.4165368974208832,-9.768051147460938,0,0,36.13399887084961,1,1,337,337
66.57198600,66571986,0,-0.0011160325957462192,-0.0012004408054053783,-0.0001316554262302816,-0.3503607511520386,0.4169408679008484,-9.76797866821289,0,0,36.13399887084961,1,1,337,337
66.57461800,66574618,0,-0.00088169751688838,-0.0011959277326241136,-0.0003085157659370452,-0.3499021530151367,0.4173412621021271,-9.767881393432617,0,0,36.13399887084961,1,1,337,337
66.57715400,66577154,0,-0.001012622145935893,-0.0011448576115071774,-0.0002772490552160889,-0.34950387477874756,0.41768714785575867,-9.767751693725586,0,0,36.13399887084961,1,1,337,337
66.57992100,66579921,0,-0.0013169078156352043,-0.001042944029904902,-0.00027007496100850403,-0.34917590022087097,0.41792625188827515,-9.767570495605469,0,0,36.13399887084961,1,1,337,337
66.58236500,66582365,0,-0.0015182020142674446,-0.0010371122043579817,-0.0004507041012402624,-0.34891271591186523,0.4180264472961426,-9.767317771911621,0,0,36.13399887084961,1,1,337,337
66.58494200,66584942,0,-0.0015791545156389475,-0.0010024310322478414,-0.0006654366152361035,-0.34868812561035156,0.417980819940567,-9.766980171203613,0,0,36.13399887084961,1,1,337,337
66.58754900,66587549,0,-0.001665579155087471,-0.0008392415475100279,-0.0007907698745839298,-0.34846433997154236,0.4177909195423126,-9.766562461853027,0,0,36.13399887084961,1,1,337,337
66.59031000,66590310,0,-0.0019017114536836743,-0.0006175916059873998,-0.000935989897698164,-0.34820765256881714,0.41745907068252563,-9.766088485717773,0,0,36.13399887084961,1,1,337,337
66.59224700,66592247,0,-0.0022009722888469696,-0.00041407757089473307,-0.0010772867826744914,-0.3479090631008148,0.41698816418647766,-9.765603065490723,0,0,36.13399887084961,1,1,337,337
66.59475500,66594755,0,-0.0024476777762174606,-0.000358479650458321,-0.0011146041797474027,-0.34757471084594727,0.4163885712623596,-9.765144348144531,0,0,36.13399887084961,1,1,337,337
66.59744300,66597443,0,-0.002607794012874365,-0.00045407627476379275,-0.0009423433220945299,-0.34721726179122925,0.4156913757324219,-9.764739990234375,0,0,36.13399887084961,1,1,337,337
66.60012900,66600129,0,-0.0027281141374260187,-0.0005424960982054472,-0.0005782125517725945,-0.34686222672462463,0.4149318337440491,-9.764408111572266,0,0,36.13399887084961,1,1,337,337
66.60258600,66602586,0,-0.0027542717289179564,-0.0005595198017545044,-0.00019740918651223183,-0.3465394377708435,0.4141278862953186,-9.764150619506836,0,0,36.13399887084961,1,1,337,337
66.60525300,66605253,0,-0.0026354575529694557,-0.0005036284564994276,0.00018089103105012327,-0.34626832604408264,0.4132889211177826,-9.76395320892334,0,0,36.13399887084961,1,1,337,337
66.60788200,66607882,0,-0.0025300157722085714,-0.0004393921699374914,0.0005456026992760599,-0.34605205059051514,0.41243043541908264,-9.76379680633545,0,0,36.13399887084961,1,1,337,337
66.61008100,66610081,0,-0.0025014791171997786,-0.0004923319793306291,0.0007188702584244311,-0.34589314460754395,0.4115735590457916,-9.763664245605469,0,0,36.13399887084961,1,1,337,337
66.61249800,66612498,0,-0.0024639852344989777,-0.0005801475490443408,0.0007024440565146506,-0.34580039978027344,0.4107300937175751,-9.763540267944336,0,0,36.13399887084961,1,1,337,337
66.61504400,66615044,0,-0.002425240119919181,-0.0005063628195784986,0.0007194222998805344,-0.34578144550323486,0.40990355610847473,-9.763423919677734,0,0,36.13399887084961,1,1,337,337
66.61766600,66617666,0,-0.0024187364615499973,-0.0002008879091590643,0.0008407271234318614,-0.3458426296710968,0.40908998250961304,-9.763335227966309,0,0,36.13399887084961,1,1,337,337
66.62033400,66620334,0,-0.002432029228657484,0.00020876951748505235,0.0009819070110097528,-0.3459821343421936,0.40827882289886475,-9.76329517364502,0,0,36.13399887084961,1,1,337,337
66.62284600,66622846,0,-0.0024844021536409855,0.0005206617643125355,0.0009468335774727166,-0.3461909592151642,0.4074675440788269,-9.763303756713867,0,0,36.13399887084961,1,1,337,337
66.62547500,66625475,0,-0.002496669301763177,0.000625763728749007,0.0006384139996953309,-0.34645354747772217,0.40666091442108154,-9.76334285736084,0,0,36.13399887084961,1,1,337,337
66.62809000,66628090,0,-0.0023686864878982306,0.0005106600583530962,0.00025904778158292174,-0.3467487692832947,0.4058631956577301,-9.763373374938965,0,0,36.14200210571289,1,1,337,337
66.63076700,66630767,0,-0.0022290695924311876,0.000248800206463784,-3.493890108074993e-05,-0.3470574915409088,0.40507808327674866,-9.763368606567383,0,0,36.14200210571289,1,1,337,337
66.63277400,66632774,0,-0.0021264508832246065,-7.165910938056186e-05,-0.00030416579102165997,-0.34734851121902466,0.40430185198783875,-9.763326644897461,0,0,36.14200210571289,1,1,337,337
66.63517800,66635178,0,-0.0019416639115661383,-0.0003345887816976756,-0.0005296226008795202,-0.3475800156593323,0.40352413058280945,-9.763256072998047,0,0,36.14200210571289,1,1,337,337
66.63779900,66637799,0,-0.0017569877672940493,-0.0004774360277224332,-0.00047443711082451046,-0.34772199392318726,0.40274959802627563,-9.763175964355469,0,0,36.14200210571289,1,1,337,337
66.64055900,66640559,0,-0.001707516610622406,-0.0005913124768994749,-0.00017263968766201288,-0.34776198863983154,0.402010440826416,-9.763086318969727,0,0,36.14200210571289,1,1,337,337
66.64307600,66643076,0,-0.0018586363876238465,-0.0007045139209367335,9.860812861006707e-05,-0.347710520029068,0.40135622024536133,-9.762975692749023,0,0,36.14200210571289,1,1,337,337
66.64569400,66645694,0,-0.0021985892672091722,-0.0007186972070485353,0.00029364533838815987,-0.34759852290153503,0.40082377195358276,-9.762826919555664,0,0,36.14200210571289,1,1,337,337
66.64820900,66648209,0,-0.0025272369384765625,-0.000643914332613349,0.00036487728357315063,-0.34746086597442627,0.4004243314266205,-9.76260757446289,0,0,36.14200210571289,1,1,337,337
66.65121000,66651210,0,-0.002727278508245945,-0.0005821168306283653,0.00029750310932286084,-0.34732910990715027,0.4001532793045044,-9.762293815612793,0,0,36.14200210571289,1,1,337,337
66.65284100,66652841,0,-0.0026855648029595613,-0.0006210704450495541,0.0002417094074189663,-0.34723135828971863,0.39999863505363464,-9.761876106262207,0,0,36.14200210571289,1,1,337,337
66.65540500,66655405,0,-0.0024476051330566406,-0.0007154781487770379,0.00019880580657627434,-0.34718552231788635,0.3999631404876709,-9.761359214782715,0,0,36.14200210571289,1,1,337,337
66.65801000,66658010,0,-0.0022631206084042788,-0.0006885528564453125,8.179436554200947e-05,-0.34718650579452515,0.40006935596466064,-9.76076602935791,0,0,36.14200210571289,1,1,337,337
66.66078300,66660783,0,-0.0021302492823451757,-0.0005926843150518835,0.00013509936979971826,-0.34720131754875183,0.40035077929496765,-9.76013469696045,0,0,36.14200210571289,1,1,337,337
66.66322400,66663224,0,-0.0021286895498633385,-0.0005527316243387759,0.0005714369472116232,-0.3471865653991699,0.4008362889289856,-9.759513854980469,0,0,36.14200210571289,1,1,337,337
66.66583000,66665830,0,-0.002291441196575761,-0.00046383231529034674,0.0010722618317231536,-0.3471173942089081,0.40152260661125183,-9.758950233459473,0,0,36.14200210571289,1,1,337,337
66.66843300,66668433,0,-0.0023611444048583508,-0.0003555577131919563,0.0012979909079149365,-0.3469929099082947,0.4023636281490326,-9.758474349975586,0,0,36.14200210571289,1,1,337,337
66.67130300,66671303,0,-0.002281827386468649,-0.00036268806434236467,0.0013651949120685458,-0.3468267321586609,0.40328919887542725,-9.758095741271973,0,0,36.14200210571289,1,1,337,337
66.67314100,66673141,0,-0.002180421492084861,-0.0005237711011432111,0.0014176336117088795,-0.3466450870037079,0.4042291045188904,-9.757797241210938,0,0,36.14200210571289,1,1,337,337
66.67572100,66675721,0,-0.002134484937414527,-0.0008737838943488896,0.0013692789943888783,-0.34647172689437866,0.4051203429698944,-9.757558822631836,0,0,36.14200210571289,1,1,337,337
66.67831300,66678313,0,-0.0022703297436237335,-0.001269047730602324,0.001237668446265161,-0.3463277518749237,0.4059279263019562,-9.757368087768555,0,0,36.14200210571289,1,1,337,337
66.68112800,66681128,0,-0.002614313969388604,-0.0014756161253899336,0.0009846020257100463,-0.3462319076061249,0.40666288137435913,-9.75722885131836,0,0,36.14200210571289,1,1,337,337
66.68352500,66683525,0,-0.002900403458625078,-0.0015193119179457426,0.0004854155413340777,-0.34617966413497925,0.40736350417137146,-9.757149696350098,0,0,36.14200210571289,1,1,337,337
66.68611700,66686117,0,-0.0029773106798529625,-0.0015770019963383675,-0.00019193605112377554,-0.34615978598594666,0.40807127952575684,-9.757132530212402,0,0,36.14200210571289,1,1,337,337
66.68872900,66688729,0,-0.0029508171137422323,-0.0016943295486271381,-0.0007576007628813386,-0.34616193175315857,0.40881630778312683,-9.757170677185059,0,0,36.14200210571289,1,1,337,337
66.69150400,66691504,0,-0.0028659538365900517,-0.0018054964020848274,-0.0009656210313551128,-0.3461768627166748,0.4095972776412964,-9.75724983215332,0,0,36.14200210571289,1,1,337,337
66.69338000,66693380,0,-0.002726904349401593,-0.0017858234932646155,-0.0009681453229859471,-0.3462100923061371,0.4103918969631195,-9.75735855102539,0,0,36.14200210571289,1,1,337,337
66.69595500,66695955,0,-0.002398039447143674,-0.0015468263300135732,-0.0009638736373744905,-0.3462735116481781,0.411187082529068,-9.757501602172852,0,0,36.14200210571289,1,1,337,337
66.69853000,66698530,0,-0.0018483520252630115,-0.001146196387708187,-0.0009272459428757429,-0.34637752175331116,0.41197115182876587,-9.75767993927002,0,0,36.14200210571289,1,1,337,337
66.70132400,66701324,0,-0.001457667676731944,-0.0007795396959409118,-0.0008754166774451733,-0.34653130173683167,0.41272664070129395,-9.757890701293945,0,0,36.14200210571289,1,1,337,337
66.70376100,66703761,0,-0.001347350887954235,-0.0005014362977817655,-0.0008489817846566439,-0.3467496335506439,0.41343122720718384,-9.758127212524414,0,0,36.14200210571289,1,1,337,337
66.70634100,66706341,0,-0.0013862029882147908,-0.00021946150809526443,-0.0008116501849144697,-0.34703847765922546,0.414058119058609,-9.758379936218262,0,0,36.14200210571289,1,1,337,337
66.70895400,66708954,0,-0.0015091936802491546,3.432051380514167e-05,-0.0006279349909164011,-0.34738171100616455,0.4145839214324951,-9.758636474609375,0,0,36.14200210571289,1,1,337,337
66.71171100,66711711,0,-0.0015535418642684817,0.00018638266192283481,-0.0002622194297146052,-0.3477506637573242,0.4149951934814453,-9.758904457092285,0,0,36.14200210571289,1,1,337,337
66.71352400,66713524,0,-0.0015753157204017043,0.00020417897030711174,2.7772657631430775e-05,-0.34810546040534973,0.4152945876121521,-9.759186744689941,0,0,36.14200210571289,1,1,337,337
66.71614300,66716143,0,-0.0017541268607601523,0.00022691798221785575,0.00012639544729609042,-0.34841057658195496,0.41549909114837646,-9.759482383728027,0,0,36.14200210571289,1,1,337,337
66.71876500,66718765,0,-0.0019490178674459457,0.0003365055890753865,0.00021619870676659048,-0.3486485183238983,0.41563141345977783,-9.759787559509277,0,0,36.14200210571289,1,1,337,337
66.72155100,66721551,0,-0.0019596011843532324,0.0002841245150193572,0.0003198632912244648,-0.3488178849220276,0.4157053828239441,-9.760098457336426,0,0,36.14200210571289,1,1,337,337
66.72400800,66724008,0,-0.001802305574528873,-6.00655548623763e-05,0.00027656261227093637,-0.3489249646663666,0.41572678089141846,-9.76041316986084,0,0,36.14200210571289,1,1,337,337
66.72655400,66726554,0,-0.0017065631691366434,-0.0004822686896659434,6.452951492974535e-05,-0.34898266196250916,0.41570091247558594,-9.760729789733887,0,0,36.14200210571289,1,1,337,337
66.72918700,66729187,0,-0.0017727972008287907,-0.0007034725858829916,-0.00019571109442040324,-0.34900975227355957,0.4156399369239807,-9.761045455932617,0,0,36.14200210571289,1,1,337,337
66.73197100,66731971,0,-0.0017838275525718927,-0.0006953483098186553,-0.0004851582634728402,-0.349016398191452,0.41556888818740845,-9.761351585388184,0,0,36.14200210571289,1,1,337,337
66.73382500,66733825,0,-0.0017033867770805955,-0.0006386724417097867,-0.0007894018199294806,-0.3490116000175476,0.4155172109603882,-9.76163387298584,0,0,36.14200210571289,1,1,337,337
66.73643200,66736432,0,-0.001635059597902,-0.0006169580155983567,-0.0010695148957893252,-0.34903159737586975,0.41549718379974365,-9.761885643005371,0,0,36.14200210571289,1,1,337,337
