timestamp,TimeUS,ACCx,TimeUS2,ACCx2
65.05975100,65059751,-0.3603562116622925
65.06235100,65062351,-0.3603562116622925
65.06495600,65064956,-0.3603562116622925
65.06755800,65067558,-0.3555678129196167
65.07016200,65070162,-0.3507794141769409
65.07214000,65072140,-0.34599095582962036
65.07473800,65074738,-0.3412025570869446
65.07734300,65077343,-0.3364141583442688
65.07994100,65079941,-0.3364141583442688
65.08254100,65082541,-0.3364141583442688
65.08514000,65085140,-0.3412025570869446
65.08774100,65087741,-0.34599095582962036
65.09034700,65090347,-0.3507794141769409
65.09232400,,,,
65.23665800,65236658,-0.3603562116622925,65236658,-0.3603562116622925
65.23924800,65239248,-0.3603562116622925,65239248,-0.3603562116622925
65.24184000,65241840,-0.3603562116622925,65241840,-0.3603562116622925
65.24444700,65244447,-0.3603562116622925,65244447,-0.3603562116622925
65.24704800,65247048,-0.3555678129196167,65247048,-0.3555678129196167
65.24965900,65249659,-0.36514461040496826,65249659,-0.36514461040496826
65.25164400,65251644,-0.36993300914764404,65251644,-0.36993300914764404
65.25424600,65254246,-0.3795098066329956,65254246,-0.3795098066329956
65.25685000,65256850,-0.3795098066329956,65256850,-0.3795098066329956
65.25946500,65259465,-0.3747214078903198,65259465,-0.3747214078903198
65.26206500,65262065,-0.36993300914764404,65262065,-0.36993300914764404
65.26467000,65264670,-0.36514461040496826,65264670,-0.36514461040496826
65.26727800,65267278,-0.3603562116622925,65267278,-0.3603562116622925
65.26988300,65269883,-0.3555678129196167,65269883,-0.3555678129196167
65.27186800,65271868,-0.3555678129196167,65271868,-0.3555678129196167
65.27447600,65274476,-0.3555678129196167,65274476,-0.3555678129196167
65.27709000,65277090,-0.3603562116622925,65277090,-0.3603562116622925
65.27970600,65279706,-0.3555678129196167,65279706,-0.3555678129196167
65.28230500,65282305,-0.3603562116622925,65282305,-0.3603562116622925
65.28491700,65284917,-0.3555678129196167,65284917,-0.3555678129196167
65.28752600,65287526,-0.36514461040496826,65287526,-0.36514461040496826
65.29013400,65290134,-0.36993300914764404,65290134,-0.36993300914764404
65.29211800,65292118,-0.36993300914764404,65292118,-0.36993300914764404
65.29471400,65294714,-0.36514461040496826,65294714,-0.36514461040496826
65.29731600,65297316,-0.3603562116622925,65297316,-0.3603562116622925
65.29992500,65299925,-0.3555678129196167,65299925,-0.3555678129196167
65.30252800,65302528,-0.3555678129196167,65302528,-0.3555678129196167
65.30513400,65305134,-0.3603562116622925,65305134,-0.3603562116622925
65.30774300,65307743,-0.3603562116622925,65307743,-0.3603562116622925
65.31035600,65310356,-0.36993300914764404,65310356,-0.36993300914764404
65.31233700,65312337,-0.36993300914764404,65312337,-0.36993300914764404
65.31494000,65314940,-0.3747214078903198,65314940,-0.3747214078903198
65.31754000,65317540,-0.36993300914764404,65317540,-0.36993300914764404
65.32014300,65320143,-0.36514461040496826,65320143,-0.36514461040496826
65.32274500,65322745,-0.3507794141769409,65322745,-0.3507794141769409
65.32535200,65325352,-0.3412025570869446,65325352,-0.3412025570869446
65.32795400,65327954,-0.3412025570869446,65327954,-0.3412025570869446
65.33058300,65330583,-0.3412025570869446,65330583,-0.3412025570869446
65.33256700,65332567,-0.34599095582962036,65332567,-0.34599095582962036
65.33516200,65335162,-0.3507794141769409,65335162,-0.3507794141769409
65.33776300,65337763,-0.3555678129196167,65337763,-0.3555678129196167
65.34037300,65340373,-0.3507794141769409,65340373,-0.3507794141769409
65.34297500,65342975,-0.3412025570869446,65342975,-0.3412025570869446
65.34558200,65345582,-0.3412025570869446,65345582,-0.3412025570869446
65.34818400,65348184,-0.3364141583442688,65348184,-0.3364141583442688
65.35079800,65350798,-0.3364141583442688,65350798,-0.3364141583442688
65.35278200,65352782,-0.3364141583442688,65352782,-0.3364141583442688
65.35538500,65355385,-0.3364141583442688,65355385,-0.3364141583442688
65.35798400,65357984,-0.3412025570869446,65357984,-0.3412025570869446
65.36059400,65360594,-0.34599095582962036,65360594,-0.34599095582962036
65.36319700,65363197,-0.3507794141769409,65363197,-0.3507794141769409
65.36580600,65365806,-0.3507794141769409,65365806,-0.3507794141769409
65.36840800,65368408,-0.3507794141769409,65368408,-0.3507794141769409
65.37101300,65371013,-0.34599095582962036,65371013,-0.34599095582962036
65.37299400,65372994,-0.34599095582962036,65372994,-0.34599095582962036
65.37560000,65375600,-0.34599095582962036,65375600,-0.34599095582962036
65.37820400,65378204,-0.34599095582962036,65378204,-0.34599095582962036
65.38081000,65380810,-0.34599095582962036,65380810,-0.34599095582962036
65.38341400,65383414,-0.34599095582962036,65383414,-0.34599095582962036
65.38601600,65386016,-0.3412025570869446,65386016,-0.3412025570869446
65.38862300,65388623,-0.3412025570869446,65388623,-0.3412025570869446
65.39124300,65391243,-0.3364141583442688,65391243,-0.3364141583442688
65.39323700,65393237,-0.3412025570869446,65393237,-0.3412025570869446
65.39583900,65395839,-0.34599095582962036,65395839,-0.34599095582962036
65.39843600,65398436,-0.3555678129196167,65398436,-0.3555678129196167
65.40103800,65401038,-0.3555678129196167,65401038,-0.3555678129196167
65.40363900,65403639,-0.3555678129196167,65403639,-0.3555678129196167
65.40626100,65406261,-0.3555678129196167,65406261,-0.3555678129196167
65.40886000,65408860,-0.3603562116622925,65408860,-0.3603562116622925
65.41146800,65411468,-0.3603562116622925,65411468,-0.3603562116622925
65.41345300,65413453,-0.3555678129196167,65413453,-0.3555678129196167
65.41605500,65416055,-0.3507794141769409,65416055,-0.3507794141769409
65.41865900,65418659,-0.34599095582962036,65418659,-0.34599095582962036
65.42126300,65421263,-0.3412025570869446,65421263,-0.3412025570869446
65.42387500,65423875,-0.3412025570869446,65423875,-0.3412025570869446
65.42647500,65426475,-0.34599095582962036,65426475,-0.34599095582962036
65.42908400,65429084,-0.34599095582962036,65429084,-0.34599095582962036
65.43168100,65431681,-0.3507794141769409,65431681,-0.3507794141769409
65.43366000,65433660,-0.3555678129196167,65433660,-0.3555678129196167
65.43626900,65436269,-0.3507794141769409,65436269,-0.3507794141769409
65.43887300,65438873,-0.3507794141769409,65438873,-0.3507794141769409
65.44148100,65441481,-0.34599095582962036,65441481,-0.34599095582962036
65.44408700,65444087,-0.34599095582962036,65444087,-0.34599095582962036
65.44669200,65446692,-0.34599095582962036,65446692,-0.34599095582962036
65.44930200,65449302,-0.34599095582962036,65449302,-0.34599095582962036
65.45190100,65451901,-0.3507794141769409,65451901,-0.3507794141769409
65.45388100,65453881,-0.3555678129196167,65453881,-0.3555678129196167
65.45648600,65456486,-0.3507794141769409,65456486,-0.3507794141769409
65.45908400,65459084,-0.3507794141769409,65459084,-0.3507794141769409
65.46169500,65461695,-0.34599095582962036,65461695,-0.34599095582962036
65.46429500,65464295,-0.34599095582962036,65464295,-0.34599095582962036
65.46690100,65466901,-0.34599095582962036,65466901,-0.34599095582962036
65.46950800,65469508,-0.3555678129196167,65469508,-0.3555678129196167
65.47211400,65472114,-0.3603562116622925,65472114,-0.3603562116622925
65.47471500,65474715,-0.3747214078903198,65474715,-0.3747214078903198
65.47669800,65476698,-0.36993300914764404,65476698,-0.36993300914764404
65.47930300,65479303,-0.36993300914764404,65479303,-0.36993300914764404
65.48191300,65481913,-0.36514461040496826,65481913,-0.36514461040496826
65.48452300,65484523,-0.3603562116622925,65484523,-0.3603562116622925
65.48712700,65487127,-0.3555678129196167,65487127,-0.3555678129196167
65.48973300,65489733,-0.3507794141769409,65489733,-0.3507794141769409
65.49233800,65492338,-0.3507794141769409,65492338,-0.3507794141769409
65.49493700,65494937,-0.3555678129196167,65494937,-0.3555678129196167
65.49691500,65496915,-0.3603562116622925,65496915,-0.3603562116622925
65.49952000,65499520,-0.36993300914764404,65499520,-0.36993300914764404
65.50213200,65502132,-0.3795098066329956,65502132,-0.3795098066329956
65.50473600,65504736,-0.3795098066329956,65504736,-0.3795098066329956
65.50734500,65507345,-0.3795098066329956,65507345,-0.3795098066329956
65.50995200,65509952,-0.3747214078903198,65509952,-0.3747214078903198
65.51255700,65512557,-0.3747214078903198,65512557,-0.3747214078903198
65.51516000,65515160,-0.36514461040496826,65515160,-0.36514461040496826
65.51713300,65517133,-0.36514461040496826,65517133,-0.36514461040496826
65.51973300,65519733,-0.3603562116622925,65519733,-0.3603562116622925
65.52233900,65522339,-0.3555678129196167,65522339,-0.3555678129196167
65.52494100,65524941,-0.3507794141769409,65524941,-0.3507794141769409
65.52754700,65527547,-0.3507794141769409,65527547,-0.3507794141769409
65.53014800,65530148,-0.34599095582962036,65530148,-0.34599095582962036
65.53276000,65532760,-0.3412025570869446,65532760,-0.3412025570869446
65.53536100,65535361,-0.3412025570869446,65535361,-0.3412025570869446
65.53734700,65537347,-0.331625759601593,65537347,-0.331625759601593
65.53994600,65539946,-0.32683736085891724,65539946,-0.32683736085891724
65.54256000,65542560,-0.3172605633735657,65542560,-0.3172605633735657
65.54516000,65545160,-0.3172605633735657,65545160,-0.3172605633735657
65.54777200,65547772,-0.3124721646308899,65547772,-0.3124721646308899
65.55037800,65550378,-0.32204896211624146,65550378,-0.32204896211624146
65.55299200,65552992,-0.32683736085891724,65552992,-0.32683736085891724
65.55560100,65555601,-0.331625759601593,65555601,-0.331625759601593
65.55757400,65557574,-0.3364141583442688,65557574,-0.3364141583442688
65.56017500,65560175,-0.331625759601593,65560175,-0.331625759601593
65.56278300,65562783,-0.32683736085891724,65562783,-0.32683736085891724
65.56538900,65565389,-0.32683736085891724,65565389,-0.32683736085891724
65.56799300,65567993,-0.32683736085891724,65567993,-0.32683736085891724
65.57059300,65570593,-0.3364141583442688,65570593,-0.3364141583442688
65.57320300,65573203,-0.3412025570869446,65573203,-0.3412025570869446
65.57581000,65575810,-0.34599095582962036,65575810,-0.34599095582962036
65.57778800,65577788,-0.3555678129196167,65577788,-0.3555678129196167
65.58038700,65580387,-0.3555678129196167,65580387,-0.3555678129196167
65.58300200,65583002,-0.3555678129196167,65583002,-0.3555678129196167
65.58560800,65585608,-0.3507794141769409,65585608,-0.3507794141769409
65.58822200,65588222,-0.3412025570869446,65588222,-0.3412025570869446
65.59082600,65590826,-0.3364141583442688,65590826,-0.3364141583442688
65.59342800,65593428,-0.331625759601593,65593428,-0.331625759601593
65.59603400,65596034,-0.331625759601593,65596034,-0.331625759601593
65.59802000,65598020,-0.3364141583442688,65598020,-0.3364141583442688
65.60062600,65600626,-0.3412025570869446,65600626,-0.3412025570869446
65.60322400,65603224,-0.3507794141769409,65603224,-0.3507794141769409
65.60583600,65605836,-0.3603562116622925,65605836,-0.3603562116622925
65.60843700,65608437,-0.36514461040496826,65608437,-0.36514461040496826
65.61103700,65611037,-0.36514461040496826,65611037,-0.36514461040496826
65.61364600,65613646,-0.36514461040496826,65613646,-0.36514461040496826
65.61625300,65616253,-0.3555678129196167,65616253,-0.3555678129196167
65.61823800,65618238,-0.3603562116622925,65618238,-0.3603562116622925
65.62084100,65620841,-0.3603562116622925,65620841,-0.3603562116622925
65.62344800,65623448,-0.36514461040496826,65623448,-0.36514461040496826
65.62605600,65626056,-0.36514461040496826,65626056,-0.36514461040496826
65.62865500,65628655,-0.36993300914764404,65628655,-0.36993300914764404
65.63125500,65631255,-0.36514461040496826,65631255,-0.36514461040496826
65.63387200,65633872,-0.3555678129196167,65633872,-0.3555678129196167
65.63647100,65636471,-0.3555678129196167,65636471,-0.3555678129196167
65.63908500,65639085,-0.3555678129196167,65639085,-0.3555678129196167
65.64106500,65641065,-0.3555678129196167,65641065,-0.3555678129196167
65.64367000,65643670,-0.3555678129196167,65643670,-0.3555678129196167
65.64627300,65646273,-0.3555678129196167,65646273,-0.3555678129196167
65.64888000,65648880,-0.3603562116622925,65648880,-0.3603562116622925
65.65148600,65651486,-0.3603562116622925,65651486,-0.3603562116622925
65.65409600,65654096,-0.36514461040496826,65654096,-0.36514461040496826
65.65669700,65656697,-0.36993300914764404,65656697,-0.36993300914764404
65.65930800,65659308,-0.36993300914764404,65659308,-0.36993300914764404
65.66130400,65661304,-0.36514461040496826,65661304,-0.36514461040496826
65.66390500,65663905,-0.3603562116622925,65663905,-0.3603562116622925
65.66651600,65666516,-0.3555678129196167,65666516,-0.3555678129196167
65.66912000,65669120,-0.34599095582962036,65669120,-0.34599095582962036
65.67172100,65671721,-0.3507794141769409,65671721,-0.3507794141769409
65.67432800,65674328,-0.3507794141769409,65674328,-0.3507794141769409
65.67693700,65676937,-0.3555678129196167,65676937,-0.3555678129196167
65.67891400,65678914,-0.3603562116622925,65678914,-0.3603562116622925
65.68152100,65681521,-0.36514461040496826,65681521,-0.36514461040496826
65.68412500,65684125,-0.3603562116622925,65684125,-0.3603562116622925
65.68673300,65686733,-0.3555678129196167,65686733,-0.3555678129196167
65.68933700,65689337,-0.3555678129196167,65689337,-0.3555678129196167
65.69194300,65691943,-0.34599095582962036,65691943,-0.34599095582962036
65.69455700,65694557,-0.3412025570869446,65694557,-0.3412025570869446
65.69716200,65697162,-0.331625759601593,65697162,-0.331625759601593
65.69913500,65699135,-0.331625759601593,65699135,-0.331625759601593
65.70173700,65701737,-0.331625759601593,65701737,-0.331625759601593
65.70434200,65704342,-0.331625759601593,65704342,-0.331625759601593
65.70695200,65706952,-0.3364141583442688,65706952,-0.3364141583442688
65.70956100,65709561,-0.3364141583442688,65709561,-0.3364141583442688
65.71215900,65712159,-0.34599095582962036,65712159,-0.34599095582962036
65.71476600,65714766,-0.34599095582962036,65714766,-0.34599095582962036
65.71736600,65717366,-0.3507794141769409,65717366,-0.3507794141769409
65.71997600,65719976,-0.34599095582962036,65719976,-0.34599095582962036
65.72197500,65721975,-0.3412025570869446,65721975,-0.3412025570869446
65.72457800,65724578,-0.3412025570869446,65724578,-0.3412025570869446
65.72719000,65727190,-0.34599095582962036,65727190,-0.34599095582962036
65.72979700,65729797,-0.3507794141769409,65729797,-0.3507794141769409
65.73239700,65732397,-0.34599095582962036,65732397,-0.34599095582962036
65.73500900,65735009,-0.34599095582962036,65735009,-0.34599095582962036
65.73760600,65737606,-0.34599095582962036,65737606,-0.34599095582962036
65.74020800,65740208,-0.34599095582962036,65740208,-0.34599095582962036
65.74219400,65742194,-0.3507794141769409,65742194,-0.3507794141769409
65.74480300,65744803,-0.3603562116622925,65744803,-0.3603562116622925
65.74740000,65747400,-0.36514461040496826,65747400,-0.36514461040496826
65.75000500,65750005,-0.36993300914764404,65750005,-0.36993300914764404
65.75260800,65752608,-0.36514461040496826,65752608,-0.36514461040496826
65.75522100,65755221,-0.36514461040496826,65755221,-0.36514461040496826
65.75781900,65757819,-0.3555678129196167,65757819,-0.3555678129196167
65.76042600,65760426,-0.3507794141769409,65760426,-0.3507794141769409
65.76241300,65762413,-0.3412025570869446,65762413,-0.3412025570869446
65.76502000,65765020,-0.3364141583442688,65765020,-0.3364141583442688
65.76762800,65767628,-0.32683736085891724,65767628,-0.32683736085891724
65.77023200,65770232,-0.331625759601593,65770232,-0.331625759601593
65.77283600,65772836,-0.3364141583442688,65772836,-0.3364141583442688
65.77544500,65775445,-0.34599095582962036,65775445,-0.34599095582962036
65.77805000,65778050,-0.3507794141769409,65778050,-0.3507794141769409
65.78065600,65780656,-0.3555678129196167,65780656,-0.3555678129196167
65.78264200,65782642,-0.3507794141769409,65782642,-0.3507794141769409
65.78524200,65785242,-0.3507794141769409,65785242,-0.3507794141769409
65.78784900,65787849,-0.3507794141769409,65787849,-0.3507794141769409
65.79045700,65790457,-0.3555678129196167,65790457,-0.3555678129196167
65.79305600,65793056,-0.3555678129196167,65793056,-0.3555678129196167
65.79566300,65795663,-0.3603562116622925,65795663,-0.3603562116622925
65.79826800,65798268,-0.3555678129196167,65798268,-0.3555678129196167
65.80088600,65800886,-0.3507794141769409,65800886,-0.3507794141769409
65.80286100,65802861,-0.3507794141769409,65802861,-0.3507794141769409
65.80546800,65805468,-0.34599095582962036,65805468,-0.34599095582962036
65.80807800,65808078,-0.34599095582962036,65808078,-0.34599095582962036
65.81068400,65810684,-0.34599095582962036,65810684,-0.34599095582962036
65.81329400,65813294,-0.3507794141769409,65813294,-0.3507794141769409
65.81589100,65815891,-0.3507794141769409,65815891,-0.3507794141769409
65.81850300,65818503,-0.3507794141769409,65818503,-0.3507794141769409
65.82110800,65821108,-0.3507794141769409,65821108,-0.3507794141769409
65.82309100,65823091,-0.34599095582962036,65823091,-0.34599095582962036
65.82569700,65825697,-0.34599095582962036,65825697,-0.34599095582962036
65.82830800,65828308,-0.34599095582962036,65828308,-0.34599095582962036
65.83090700,65830907,-0.34599095582962036,65830907,-0.34599095582962036
65.83351700,65833517,-0.3507794141769409,65833517,-0.3507794141769409
65.83611900,65836119,-0.34599095582962036,65836119,-0.34599095582962036
65.83873100,65838731,-0.34599095582962036,65838731,-0.34599095582962036
65.84133000,65841330,-0.34599095582962036,65841330,-0.34599095582962036
65.84330700,65843307,-0.3507794141769409,65843307,-0.3507794141769409
65.84590800,65845908,-0.3555678129196167,65845908,-0.3555678129196167
65.84851500,65848515,-0.3555678129196167,65848515,-0.3555678129196167
65.85111600,65851116,-0.3555678129196167,65851116,-0.3555678129196167
65.85372700,65853727,-0.3555678129196167,65853727,-0.3555678129196167
65.85632200,65856322,-0.3507794141769409,65856322,-0.3507794141769409
65.85892400,65858924,-0.3507794141769409,65858924,-0.3507794141769409
65.86153500,65861535,-0.3507794141769409,65861535,-0.3507794141769409
65.86351800,65863518,-0.34599095582962036,65863518,-0.34599095582962036
65.86611600,65866116,-0.34599095582962036,65866116,-0.34599095582962036
65.86872000,65868720,-0.34599095582962036,65868720,-0.34599095582962036
65.87132200,65871322,-0.3507794141769409,65871322,-0.3507794141769409
65.87392200,65873922,-0.3555678129196167,65873922,-0.3555678129196167
65.87652600,65876526,-0.3555678129196167,65876526,-0.3555678129196167
65.87913200,65879132,-0.3555678129196167,65879132,-0.3555678129196167
65.88174100,65881741,-0.3555678129196167,65881741,-0.3555678129196167
65.88372400,65883724,-0.3555678129196167,65883724,-0.3555678129196167
65.88632600,65886326,-0.3507794141769409,65886326,-0.3507794141769409
65.88893900,65888939,-0.3507794141769409,65888939,-0.3507794141769409
65.89154200,65891542,-0.3507794141769409,65891542,-0.3507794141769409
65.89414200,65894142,-0.34599095582962036,65894142,-0.34599095582962036
65.89675200,65896752,-0.34599095582962036,65896752,-0.34599095582962036
65.89935800,65899358,-0.34599095582962036,65899358,-0.34599095582962036
65.90196200,65901962,-0.3507794141769409,65901962,-0.3507794141769409
65.90456500,65904565,-0.3507794141769409,65904565,-0.3507794141769409
65.90654200,65906542,-0.3555678129196167,65906542,-0.3555678129196167
65.90915000,65909150,-0.3603562116622925,65909150,-0.3603562116622925
65.91175000,65911750,-0.3555678129196167,65911750,-0.3555678129196167
65.91435100,65914351,-0.3555678129196167,65914351,-0.3555678129196167
65.91696300,65916963,-0.34599095582962036,65916963,-0.34599095582962036
65.91956500,65919565,-0.34599095582962036,65919565,-0.34599095582962036
65.92217700,65922177,-0.3364141583442688,65922177,-0.3364141583442688
65.92478400,65924784,-0.3412025570869446,65924784,-0.3412025570869446
65.92675400,65926754,-0.3412025570869446,65926754,-0.3412025570869446
65.92935800,65929358,-0.3412025570869446,65929358,-0.3412025570869446
65.93197400,65931974,-0.34599095582962036,65931974,-0.34599095582962036
65.93457600,65934576,-0.3507794141769409,65934576,-0.3507794141769409
65.93718000,65937180,-0.3555678129196167,65937180,-0.3555678129196167
65.93978600,65939786,-0.3507794141769409,65939786,-0.3507794141769409
65.94240000,65942400,-0.3507794141769409,65942400,-0.3507794141769409
65.94500500,65945005,-0.3507794141769409,65945005,-0.3507794141769409
65.94698300,65946983,-0.3555678129196167,65946983,-0.3555678129196167
65.94959200,65949592,-0.3603562116622925,65949592,-0.3603562116622925
65.95219700,65952197,-0.36993300914764404,65952197,-0.36993300914764404
65.95480900,65954809,-0.36514461040496826,65954809,-0.36514461040496826
65.95741100,65957411,-0.36514461040496826,65957411,-0.36514461040496826
65.96001700,65960017,-0.3603562116622925,65960017,-0.3603562116622925
65.96262500,65962625,-0.3555678129196167,65962625,-0.3555678129196167
65.96522500,65965225,-0.3555678129196167,65965225,-0.3555678129196167
65.96720200,65967202,-0.3555678129196167,65967202,-0.3555678129196167
65.96980800,65969808,-0.3603562116622925,65969808,-0.3603562116622925
65.97241400,65972414,-0.3603562116622925,65972414,-0.3603562116622925
65.97502300,65975023,-0.3603562116622925,65975023,-0.3603562116622925
65.97762200,65977622,-0.3603562116622925,65977622,-0.3603562116622925
65.98023400,65980234,-0.3603562116622925,65980234,-0.3603562116622925
65.98284100,65982841,-0.3555678129196167,65982841,-0.3555678129196167
65.98544500,65985445,-0.3555678129196167,65985445,-0.3555678129196167
65.98741800,65987418,-0.3555678129196167,65987418,-0.3555678129196167
65.99002700,65990027,-0.3603562116622925,65990027,-0.3603562116622925
65.99263000,65992630,-0.36514461040496826,65992630,-0.36514461040496826
65.99523500,65995235,-0.36993300914764404,65995235,-0.36993300914764404
65.99784600,65997846,-0.36514461040496826,65997846,-0.36514461040496826
66.00044800,66000448,-0.36993300914764404,66000448,-0.36993300914764404
66.00306100,66003061,-0.3603562116622925,66003061,-0.3603562116622925
66.00566100,66005661,-0.3603562116622925,66005661,-0.3603562116622925
66.00763800,66007638,-0.3603562116622925,66007638,-0.3603562116622925
66.01024300,66010243,-0.3555678129196167,66010243,-0.3555678129196167
66.01284400,66012844,-0.3603562116622925,66012844,-0.3603562116622925
66.01544700,66015447,-0.3555678129196167,66015447,-0.3555678129196167
66.01805600,66018056,-0.3555678129196167,66018056,-0.3555678129196167
66.02065700,66020657,-0.3507794141769409,66020657,-0.3507794141769409
66.02326000,66023260,-0.3555678129196167,66023260,-0.3555678129196167
66.02586900,66025869,-0.3603562116622925,66025869,-0.3603562116622925
66.02784800,66027848,-0.3603562116622925,66027848,-0.3603562116622925
66.03044500,66030445,-0.36514461040496826,66030445,-0.36514461040496826
66.03306200,66033062,-0.36514461040496826,66033062,-0.36514461040496826
66.03565900,66035659,-0.3603562116622925,66035659,-0.3603562116622925
66.03827100,66038271,-0.3555678129196167,66038271,-0.3555678129196167
66.04087400,66040874,-0.3507794141769409,66040874,-0.3507794141769409
66.04348000,66043480,-0.34599095582962036,66043480,-0.34599095582962036
66.04608600,66046086,-0.34599095582962036,66046086,-0.34599095582962036
66.04869900,66048699,-0.34599095582962036,66048699,-0.34599095582962036
66.05068500,66050685,-0.3412025570869446,66050685,-0.3412025570869446
66.05328700,66053287,-0.3412025570869446,66053287,-0.3412025570869446
66.05589100,66055891,-0.3364141583442688,66055891,-0.3364141583442688
66.05849700,66058497,-0.3364141583442688,66058497,-0.3364141583442688
66.06110500,66061105,-0.3364141583442688,66061105,-0.3364141583442688
66.06370900,66063709,-0.32683736085891724,66063709,-0.32683736085891724
66.06631000,66066310,-0.3364141583442688,66066310,-0.3364141583442688
66.06892200,66068922,-0.331625759601593,66068922,-0.331625759601593
66.07092000,66070920,-0.3364141583442688,66070920,-0.3364141583442688
66.07353100,66073531,-0.3412025570869446,66073531,-0.3412025570869446
66.07613200,66076132,-0.34599095582962036,66076132,-0.34599095582962036
66.07873600,66078736,-0.34599095582962036,66078736,-0.34599095582962036
66.08134000,66081340,-0.34599095582962036,66081340,-0.34599095582962036
66.08394900,66083949,-0.3507794141769409,66083949,-0.3507794141769409
66.08655200,66086552,-0.3555678129196167,66086552,-0.3555678129196167
66.08852800,66088528,-0.3603562116622925,66088528,-0.3603562116622925
66.09113300,66091133,-0.3555678129196167,66091133,-0.3555678129196167
66.09374600,66093746,-0.3555678129196167,66093746,-0.3555678129196167
66.09635200,66096352,-0.34599095582962036,66096352,-0.34599095582962036
66.09896200,66098962,-0.34599095582962036,66098962,-0.34599095582962036
66.10157300,66101573,-0.3412025570869446,66101573,-0.3412025570869446
66.10419100,66104191,-0.3412025570869446,66104191,-0.3412025570869446
66.10679200,66106792,-0.3412025570869446,66106792,-0.3412025570869446
66.10877100,66108771,-0.34599095582962036,66108771,-0.34599095582962036
66.11137800,66111378,-0.3507794141769409,66111378,-0.3507794141769409
66.11397600,66113976,-0.3555678129196167,66113976,-0.3555678129196167
66.11658300,66116583,-0.3555678129196167,66116583,-0.3555678129196167
66.11919600,66119196,-0.3555678129196167,66119196,-0.3555678129196167
66.12180200,66121802,-0.3555678129196167,66121802,-0.3555678129196167
66.12440500,66124405,-0.3507794141769409,66124405,-0.3507794141769409
66.12701300,66127013,-0.34599095582962036,66127013,-0.34599095582962036
66.12898600,66128986,-0.34599095582962036,66128986,-0.34599095582962036
66.13159200,66131592,-0.34599095582962036,66131592,-0.34599095582962036
66.13420300,66134203,-0.3507794141769409,66134203,-0.3507794141769409
66.13680500,66136805,-0.3555678129196167,66136805,-0.3555678129196167
66.13941100,66139411,-0.3555678129196167,66139411,-0.3555678129196167
66.14201900,66142019,-0.34599095582962036,66142019,-0.34599095582962036
66.14463300,66144633,-0.3412025570869446,66144633,-0.3412025570869446
66.14723900,66147239,-0.3364141583442688,66147239,-0.3364141583442688
66.14921400,66149214,-0.3364141583442688,66149214,-0.3364141583442688
66.15181900,66151819,-0.3364141583442688,66151819,-0.3364141583442688
66.15442700,66154427,-0.3412025570869446,66154427,-0.3412025570869446
66.15702400,66157024,-0.3507794141769409,66157024,-0.3507794141769409
66.15963400,66159634,-0.3507794141769409,66159634,-0.3507794141769409
66.16223800,66162238,-0.3555678129196167,66162238,-0.3555678129196167
66.16484300,66164843,-0.3555678129196167,66164843,-0.3555678129196167
66.16745600,66167456,-0.3507794141769409,66167456,-0.3507794141769409
66.17005700,66170057,-0.3507794141769409,66170057,-0.3507794141769409
66.17203900,66172039,-0.3412025570869446,66172039,-0.3412025570869446
66.17464800,66174648,-0.331625759601593,66174648,-0.331625759601593
66.17725100,66177251,-0.331625759601593,66177251,-0.331625759601593
66.17986900,66179869,-0.331625759601593,66179869,-0.331625759601593
66.18246600,66182466,-0.3412025570869446,66182466,-0.3412025570869446
66.18508100,66185081,-0.3555678129196167,66185081,-0.3555678129196167
66.18768400,66187684,-0.3603562116622925,66187684,-0.3603562116622925
66.18966700,66189667,-0.3603562116622925,66189667,-0.3603562116622925
66.19227400,66192274,-0.3555678129196167,66192274,-0.3555678129196167
66.19488300,66194883,-0.3507794141769409,66194883,-0.3507794141769409
66.19748300,66197483,-0.34599095582962036,66197483,-0.34599095582962036
66.20009800,66200098,-0.3412025570869446,66200098,-0.3412025570869446
66.20269900,66202699,-0.34599095582962036,66202699,-0.34599095582962036
66.20531800,66205318,-0.34599095582962036,66205318,-0.34599095582962036
66.20792500,66207925,-0.3507794141769409,66207925,-0.3507794141769409
66.20990200,66209902,-0.3603562116622925,66209902,-0.3603562116622925
66.21250200,66212502,-0.36514461040496826,66212502,-0.36514461040496826
66.21510300,66215103,-0.3747214078903198,66215103,-0.3747214078903198
66.21771500,66217715,-0.36993300914764404,66217715,-0.36993300914764404
66.22031600,66220316,-0.36993300914764404,66220316,-0.36993300914764404
66.22292200,66222922,-0.3603562116622925,66222922,-0.3603562116622925
66.22552500,66225525,-0.3507794141769409,66225525,-0.3507794141769409
66.22812600,66228126,-0.34599095582962036,66228126,-0.34599095582962036
66.23073400,66230734,-0.3412025570869446,66230734,-0.3412025570869446
66.23272000,66232720,-0.34599095582962036,66232720,-0.34599095582962036
66.23533200,66235332,-0.3507794141769409,66235332,-0.3507794141769409
66.23793500,66237935,-0.3603562116622925,66237935,-0.3603562116622925
66.24053600,66240536,-0.36514461040496826,66240536,-0.36514461040496826
66.24313700,66243137,-0.36514461040496826,66243137,-0.36514461040496826
66.24574000,66245740,-0.36514461040496826,66245740,-0.36514461040496826
66.24834000,66248340,-0.3603562116622925,66248340,-0.3603562116622925
66.25095300,66250953,-0.3603562116622925,66250953,-0.3603562116622925
66.25293500,66252935,-0.3555678129196167,66252935,-0.3555678129196167
66.25574000,66255740,-0.34599095582962036,66255740,-0.34599095582962036
66.25834000,66258340,-0.3412025570869446,66258340,-0.3412025570869446
66.26095900,66260959,-0.3412025570869446,66260959,-0.3412025570869446
66.26356000,66263560,-0.34599095582962036,66263560,-0.34599095582962036
66.26553900,66265539,-0.3507794141769409,66265539,-0.3507794141769409
66.26814100,66268141,-0.3555678129196167,66268141,-0.3555678129196167
66.27075100,66270751,-0.3555678129196167,66270751,-0.3555678129196167
66.27334800,66273348,-0.3555678129196167,66273348,-0.3555678129196167
66.27596200,66275962,-0.3507794141769409,66275962,-0.3507794141769409
66.27856900,66278569,-0.34599095582962036,66278569,-0.34599095582962036
66.28118000,66281180,-0.3412025570869446,66281180,-0.3412025570869446
66.28378100,66283781,-0.3364141583442688,66283781,-0.3364141583442688
66.28576300,66285763,-0.331625759601593,66285763,-0.331625759601593
66.28836500,66288365,-0.331625759601593,66288365,-0.331625759601593
66.29097200,66290972,-0.3364141583442688,66290972,-0.3364141583442688
66.29357500,66293575,-0.3412025570869446,66293575,-0.3412025570869446
66.29618500,66296185,-0.34599095582962036,66296185,-0.34599095582962036
66.29879000,66298790,-0.3507794141769409,66298790,-0.3507794141769409
66.30140800,66301408,-0.3555678129196167,66301408,-0.3555678129196167
66.30401400,66304014,-0.3507794141769409,66304014,-0.3507794141769409
66.30599000,66305990,-0.34599095582962036,66305990,-0.34599095582962036
66.30859500,66308595,-0.34599095582962036,66308595,-0.34599095582962036
66.31120400,66311204,-0.34599095582962036,66311204,-0.34599095582962036
66.31381900,66313819,-0.34599095582962036,66313819,-0.34599095582962036
66.31642400,66316424,-0.3507794141769409,66316424,-0.3507794141769409
66.31902100,66319021,-0.3555678129196167,66319021,-0.3555678129196167
66.32163300,66321633,-0.36514461040496826,66321633,-0.36514461040496826
66.32423400,66324234,-0.36993300914764404,66324234,-0.36993300914764404
66.32621200,66326212,-0.3747214078903198,66326212,-0.3747214078903198
66.32881500,66328815,-0.36993300914764404,66328815,-0.36993300914764404
66.33142400,66331424,-0.36993300914764404,66331424,-0.36993300914764404
66.33402700,66334027,-0.3603562116622925,66334027,-0.3603562116622925
66.33662900,66336629,-0.3603562116622925,66336629,-0.3603562116622925
66.33923700,66339237,-0.3555678129196167,66339237,-0.3555678129196167
66.34184200,66341842,-0.3603562116622925,66341842,-0.3603562116622925
66.34444400,66344444,-0.3603562116622925,66344444,-0.3603562116622925
66.34706200,66347062,-0.3555678129196167,66347062,-0.3555678129196167
66.34904500,66349045,-0.3507794141769409,66349045,-0.3507794141769409
66.35164500,66351645,-0.3507794141769409,66351645,-0.3507794141769409
66.35426100,66354261,-0.3507794141769409,66354261,-0.3507794141769409
66.35686200,66356862,-0.3555678129196167,66356862,-0.3555678129196167
66.35946100,66359461,-0.3603562116622925,66359461,-0.3603562116622925
66.36207300,66362073,-0.36993300914764404,66362073,-0.36993300914764404
66.36467400,66364674,-0.3747214078903198,66364674,-0.3747214078903198
66.36728900,66367289,-0.3747214078903198,66367289,-0.3747214078903198
66.36927200,66369272,-0.3747214078903198,66369272,-0.3747214078903198
66.37188100,66371881,-0.36993300914764404,66371881,-0.36993300914764404
66.37448700,66374487,-0.3747214078903198,66374487,-0.3747214078903198
66.37709000,66377090,-0.36514461040496826,66377090,-0.36514461040496826
66.37969300,66379693,-0.36514461040496826,66379693,-0.36514461040496826
66.38230200,66382302,-0.3555678129196167,66382302,-0.3555678129196167
66.38490800,66384908,-0.3555678129196167,66384908,-0.3555678129196167
66.38688900,66386889,-0.3507794141769409,66386889,-0.3507794141769409
66.38949500,66389495,-0.3507794141769409,66389495,-0.3507794141769409
66.39209600,66392096,-0.3555678129196167,66392096,-0.3555678129196167
66.39470200,66394702,-0.3603562116622925,66394702,-0.3603562116622925
66.39731200,66397312,-0.36514461040496826,66397312,-0.36514461040496826
66.39990800,66399908,-0.36514461040496826,66399908,-0.36514461040496826
66.40252300,66402523,-0.3603562116622925,66402523,-0.3603562116622925
66.40512000,66405120,-0.3507794141769409,66405120,-0.3507794141769409
66.40772500,66407725,-0.34599095582962036,66407725,-0.34599095582962036
66.40971900,66409719,-0.3412025570869446,66409719,-0.3412025570869446
66.41232100,66412321,-0.3364141583442688,66412321,-0.3364141583442688
66.41493300,66414933,-0.3364141583442688,66414933,-0.3364141583442688
66.41753700,66417537,-0.3364141583442688,66417537,-0.3364141583442688
66.42013900,66420139,-0.3412025570869446,66420139,-0.3412025570869446
66.42275000,66422750,-0.3412025570869446,66422750,-0.3412025570869446
66.42535200,66425352,-0.3412025570869446,66425352,-0.3412025570869446
66.42796800,66427968,-0.331625759601593,66427968,-0.331625759601593
66.42995200,66429952,-0.331625759601593,66429952,-0.331625759601593
66.43254600,66432546,-0.32683736085891724,66432546,-0.32683736085891724
66.43515300,66435153,-0.32683736085891724,66435153,-0.32683736085891724
66.43776100,66437761,-0.32683736085891724,66437761,-0.32683736085891724
66.44036200,66440362,-0.331625759601593,66440362,-0.331625759601593
66.44296800,66442968,-0.331625759601593,66442968,-0.331625759601593
66.44557000,66445570,-0.3364141583442688,66445570,-0.3364141583442688
66.44818600,66448186,-0.3412025570869446,66448186,-0.3412025570869446
66.45016900,66450169,-0.3412025570869446,66450169,-0.3412025570869446
66.45277000,66452770,-0.3412025570869446,66452770,-0.3412025570869446
66.45537900,66455379,-0.3412025570869446,66455379,-0.3412025570869446
66.45798200,66457982,-0.3412025570869446,66457982,-0.3412025570869446
66.46058500,66460585,-0.34599095582962036,66460585,-0.34599095582962036
66.46320100,66463201,-0.34599095582962036,66463201,-0.34599095582962036
66.46579800,66465798,-0.3555678129196167,66465798,-0.3555678129196167
66.46841800,66468418,-0.3555678129196167,66468418,-0.3555678129196167
66.47040500,66470405,-0.3603562116622925,66470405,-0.3603562116622925
66.47300400,66473004,-0.3555678129196167,66473004,-0.3555678129196167
66.47561100,66475611,-0.3603562116622925,66475611,-0.3603562116622925
66.47821300,66478213,-0.3603562116622925,66478213,-0.3603562116622925
66.48082000,66480820,-0.3603562116622925,66480820,-0.3603562116622925
66.48342300,66483423,-0.36993300914764404,66483423,-0.36993300914764404
66.48603400,66486034,-0.36993300914764404,66486034,-0.36993300914764404
66.48864400,66488644,-0.3747214078903198,66488644,-0.3747214078903198
66.49063800,66490638,-0.3747214078903198,66490638,-0.3747214078903198
66.49324000,66493240,-0.36993300914764404,66493240,-0.36993300914764404
66.49590700,66495907,-0.36993300914764404,66495907,-0.36993300914764404
66.49845200,66498452,-0.3555678129196167,66498452,-0.3555678129196167
66.50106500,66501065,-0.3603562116622925,66501065,-0.3603562116622925
66.50366200,66503662,-0.3555678129196167,66503662,-0.3555678129196167
66.50627000,66506270,-0.3555678129196167,66506270,-0.3555678129196167
66.50887100,66508871,-0.3603562116622925,66508871,-0.3603562116622925
66.51085400,66510854,-0.3555678129196167,66510854,-0.3555678129196167
66.51345800,66513458,-0.3603562116622925,66513458,-0.3603562116622925
66.51607500,66516075,-0.3555678129196167,66516075,-0.3555678129196167
66.51867500,66518675,-0.3555678129196167,66518675,-0.3555678129196167
66.52127700,66521277,-0.3555678129196167,66521277,-0.3555678129196167
66.52388900,66523889,-0.3555678129196167,66523889,-0.3555678129196167
66.52648900,66526489,-0.3507794141769409,66526489,-0.3507794141769409
66.52909700,66529097,-0.34599095582962036,66529097,-0.34599095582962036
66.53108200,66531082,-0.34599095582962036,66531082,-0.34599095582962036
66.53368400,66533684,-0.3364141583442688,66533684,-0.3364141583442688
66.53628900,66536289,-0.331625759601593,66536289,-0.331625759601593
66.53889700,66538897,-0.3364141583442688,66538897,-0.3364141583442688
66.54149800,66541498,-0.3412025570869446,66541498,-0.3412025570869446
66.54411300,66544113,-0.3412025570869446,66544113,-0.3412025570869446
66.54671800,66546718,-0.34599095582962036,66546718,-0.34599095582962036
66.54932600,66549326,-0.34599095582962036,66549326,-0.34599095582962036
66.55131300,66551313,-0.34599095582962036,66551313,-0.34599095582962036
66.55391700,66553917,-0.34599095582962036,66553917,-0.34599095582962036
66.55653100,66556531,-0.34599095582962036,66556531,-0.34599095582962036
66.55913600,66559136,-0.3412025570869446,66559136,-0.3412025570869446
66.56173800,66561738,-0.3364141583442688,66561738,-0.3364141583442688
66.56434800,66564348,-0.3364141583442688,66564348,-0.3364141583442688
66.56695200,66566952,-0.3364141583442688,66566952,-0.3364141583442688
66.56957000,66569570,-0.3412025570869446,66569570,-0.3412025570869446
66.57154800,66571548,-0.3507794141769409,66571548,-0.3507794141769409
66.57415100,66574151,-0.3507794141769409,66574151,-0.3507794141769409
66.57676300,66576763,-0.3555678129196167,66576763,-0.3555678129196167
66.57936900,66579369,-0.3555678129196167,66579369,-0.3555678129196167
66.58196800,66581968,-0.3507794141769409,66581968,-0.3507794141769409
66.58457100,66584571,-0.34599095582962036,66584571,-0.34599095582962036
66.58717900,66587179,-0.3364141583442688,66587179,-0.3364141583442688
66.58984200,66589842,-0.3364141583442688,66589842,-0.3364141583442688
66.59178200,66591782,-0.3364141583442688,66591782,-0.3364141583442688
66.59438400,66594384,-0.3364141583442688,66594384,-0.3364141583442688
66.59699800,66596998,-0.3412025570869446,66596998,-0.3412025570869446
66.59959700,66599597,-0.34599095582962036,66599597,-0.34599095582962036
66.60220200,66602202,-0.3507794141769409,66602202,-0.3507794141769409
66.60481600,66604816,-0.3507794141769409,66604816,-0.3507794141769409
66.60741800,66607418,-0.3507794141769409,66607418,-0.3507794141769409
66.60939500,66609395,-0.3555678129196167,66609395,-0.3555678129196167
66.61200100,66612001,-0.3555678129196167,66612001,-0.3555678129196167
66.61460900,66614609,-0.3603562116622925,66614609,-0.3603562116622925
66.61721100,66617211,-0.3603562116622925,66617211,-0.3603562116622925
66.61981500,66619815,-0.3603562116622925,66619815,-0.3603562116622925
66.62241500,66622415,-0.3603562116622925,66622415,-0.3603562116622925
66.62503100,66625031,-0.3555678129196167,66625031,-0.3555678129196167
66.62763700,66627637,-0.3555678129196167,66627637,-0.3555678129196167
66.63024000,66630240,-0.3507794141769409,66630240,-0.3507794141769409
66.63222500,66632225,-0.3412025570869446,66632225,-0.3412025570869446
66.63481800,66634818,-0.3364141583442688,66634818,-0.3364141583442688
66.63742600,66637426,-0.331625759601593,66637426,-0.331625759601593
66.64008400,66640084,-0.331625759601593,66640084,-0.331625759601593
66.64263600,66642636,-0.3364141583442688,66642636,-0.3364141583442688
66.64523900,66645239,-0.3412025570869446,66645239,-0.3412025570869446
66.64783800,66647838,-0.34599095582962036,66647838,-0.34599095582962036
66.65044300,66650443,-0.3507794141769409,66650443,-0.3507794141769409
66.65242400,66652424,-0.3555678129196167,66652424,-0.3555678129196167
66.65503100,66655031,-0.3555678129196167,66655031,-0.3555678129196167
66.65763800,66657638,-0.3507794141769409,66657638,-0.3507794141769409
66.66024000,66660240,-0.3412025570869446,66660240,-0.3412025570869446
66.66285400,66662854,-0.3364141583442688,66662854,-0.3364141583442688
66.66546100,66665461,-0.3364141583442688,66665461,-0.3364141583442688
66.66806200,66668062,-0.3364141583442688,66668062,-0.3364141583442688
66.67067400,66670674,-0.3412025570869446,66670674,-0.3412025570869446
66.67266400,66672664,-0.34599095582962036,66672664,-0.34599095582962036
66.67526700,66675267,-0.34599095582962036,66675267,-0.34599095582962036
66.67787500,66677875,-0.3555678129196167,66677875,-0.3555678129196167
66.68048000,66680480,-0.3507794141769409,66680480,-0.3507794141769409
66.68308800,66683088,-0.3507794141769409,66683088,-0.3507794141769409
66.68569600,66685696,-0.3507794141769409,66685696,-0.3507794141769409
66.68830400,66688304,-0.34599095582962036,66688304,-0.34599095582962036
66.69091500,66690915,-0.3507794141769409,66690915,-0.3507794141769409
66.69290100,66692901,-0.3507794141769409,66692901,-0.3507794141769409
66.69550600,66695506,-0.3555678129196167,66695506,-0.3555678129196167
66.69812100,66698121,-0.3555678129196167,66698121,-0.3555678129196167
66.70072700,66700727,-0.3603562116622925,66700727,-0.3603562116622925
66.70333000,66703330,-0.36514461040496826,66703330,-0.36514461040496826
66.70593700,66705937,-0.3603562116622925,66705937,-0.3603562116622925
66.70853900,66708539,-0.3603562116622925,66708539,-0.3603562116622925
66.71114900,66711149,-0.3507794141769409,66711149,-0.3507794141769409
66.71313300,66713133,-0.34599095582962036,66713133,-0.34599095582962036
66.71573600,66715736,-0.3412025570869446,66715736,-0.3412025570869446
66.71834600,66718346,-0.3412025570869446,66718346,-0.3412025570869446
66.72095100,66720951,-0.3412025570869446,66720951,-0.3412025570869446
66.72355500,66723555,-0.3412025570869446,66723555,-0.3412025570869446
66.72616100,66726161,-0.34599095582962036,66726161,-0.34599095582962036
66.72877100,66728771,-0.34599095582962036,66728771,-0.34599095582962036
66.73138100,66731381,-0.34599095582962036,66731381,-0.34599095582962036
66.73336000,66733360,-0.3507794141769409,66733360,-0.3507794141769409
66.73596500,66735965,-0.36514461040496826,66735965,-0.36514461040496826
66.73857500,66738575,-0.36993300914764404,66738575,-0.36993300914764404
66.74118100,66741181,-0.3747214078903198,66741181,-0.3747214078903198
66.74377900,66743779,-0.3747214078903198,66743779,-0.3747214078903198
66.74639200,66746392,-0.36993300914764404,66746392,-0.36993300914764404
66.74900000,66749000,-0.3603562116622925,66749000,-0.3603562116622925
66.75160900,66751609,-0.3555678129196167,66751609,-0.3555678129196167
66.75358700,66753587,-0.3555678129196167,66753587,-0.3555678129196167
66.75619600,66756196,-0.3555678129196167,66756196,-0.3555678129196167
66.75880300,66758803,-0.3507794141769409,66758803,-0.3507794141769409
66.76140200,66761402,-0.34599095582962036,66761402,-0.34599095582962036
66.76400200,66764002,-0.3412025570869446,66764002,-0.3412025570869446
66.76661300,66766613,-0.3364141583442688,66766613,-0.3364141583442688
66.76921700,66769217,-0.331625759601593,66769217,-0.331625759601593
66.77182500,66771825,-0.331625759601593,66771825,-0.331625759601593
66.77380500,66773805,-0.32683736085891724,66773805,-0.32683736085891724
66.77640600,66776406,-0.32204896211624146,66776406,-0.32204896211624146
66.77901700,66779017,-0.3172605633735657,66779017,-0.3172605633735657
66.78163100,66781631,-0.3172605633735657,66781631,-0.3172605633735657
66.78423100,66784231,-0.32204896211624146,66784231,-0.32204896211624146
66.78683500,66786835,-0.32683736085891724,66786835,-0.32683736085891724
66.78943900,66789439,-0.32683736085891724,66789439,-0.32683736085891724
66.79204900,66792049,-0.331625759601593,66792049,-0.331625759601593
66.79403200,66794032,-0.331625759601593,66794032,-0.331625759601593
66.79663000,66796630,-0.32683736085891724,66796630,-0.32683736085891724
66.79923900,66799239,-0.32683736085891724,66799239,-0.32683736085891724
66.80184300,66801843,-0.32204896211624146,66801843,-0.32204896211624146
66.80444800,66804448,-0.32204896211624146,66804448,-0.32204896211624146
66.80705800,66807058,-0.3172605633735657,66807058,-0.3172605633735657
66.80966200,66809662,-0.32204896211624146,66809662,-0.32204896211624146
66.81226900,66812269,-0.32683736085891724,66812269,-0.32683736085891724
66.81426700,66814267,-0.3364141583442688,66814267,-0.3364141583442688
66.81687000,66816870,-0.3507794141769409,66816870,-0.3507794141769409
66.81948200,66819482,-0.3555678129196167,66819482,-0.3555678129196167
66.82208700,66822087,-0.36514461040496826,66822087,-0.36514461040496826
66.82469100,66824691,-0.36514461040496826,66824691,-0.36514461040496826
66.82730600,66827306,-0.3603562116622925,66827306,-0.3603562116622925
66.82990800,66829908,-0.3603562116622925,66829908,-0.3603562116622925
66.83250800,66832508,-0.3555678129196167,66832508,-0.3555678129196167
66.83448600,66834486,-0.3555678129196167,66834486,-0.3555678129196167
66.83708600,66837086,-0.3507794141769409,66837086,-0.3507794141769409
66.83969000,66839690,-0.3555678129196167,66839690,-0.3555678129196167
66.84230600,66842306,-0.3555678129196167,66842306,-0.3555678129196167
66.84491200,66844912,-0.3555678129196167,66844912,-0.3555678129196167
66.84752400,66847524,-0.3603562116622925,66847524,-0.3603562116622925
66.85012900,66850129,-0.3603562116622925,66850129,-0.3603562116622925
66.85273200,66852732,-0.36993300914764404,66852732,-0.36993300914764404
66.85471200,66854712,-0.36993300914764404,66854712,-0.36993300914764404
66.85732200,66857322,-0.3747214078903198,66857322,-0.3747214078903198
66.85992400,66859924,-0.3747214078903198,66859924,-0.3747214078903198
66.86253800,66862538,-0.36993300914764404,66862538,-0.36993300914764404
66.86513200,66865132,-0.3603562116622925,66865132,-0.3603562116622925
66.86775000,66867750,-0.3555678129196167,66867750,-0.3555678129196167
66.87035400,66870354,-0.3507794141769409,66870354,-0.3507794141769409
66.87296200,66872962,-0.3507794141769409,66872962,-0.3507794141769409
66.87494700,66874947,-0.3507794141769409,66874947,-0.3507794141769409
66.87754800,66877548,-0.3555678129196167,66877548,-0.3555678129196167
66.88015500,66880155,-0.3507794141769409,66880155,-0.3507794141769409
66.88276100,66882761,-0.3507794141769409,66882761,-0.3507794141769409
66.88536800,66885368,-0.3507794141769409,66885368,-0.3507794141769409
66.88797500,66887975,-0.34599095582962036,66887975,-0.34599095582962036
66.89058000,66890580,-0.3507794141769409,66890580,-0.3507794141769409
66.89319000,66893190,-0.3555678129196167,66893190,-0.3555678129196167
66.89517500,66895175,-0.3603562116622925,66895175,-0.3603562116622925
66.89777900,66897779,-0.3603562116622925,66897779,-0.3603562116622925
66.90038600,66900386,-0.3555678129196167,66900386,-0.3555678129196167
66.90299800,66902998,-0.3555678129196167,66902998,-0.3555678129196167
66.90560100,66905601,-0.34599095582962036,66905601,-0.34599095582962036
66.90821000,66908210,-0.3412025570869446,66908210,-0.3412025570869446
66.91082400,66910824,-0.3412025570869446,66910824,-0.3412025570869446
66.91343000,66913430,-0.3364141583442688,66913430,-0.3364141583442688
66.91541300,66915413,-0.3364141583442688,66915413,-0.3364141583442688
66.91801500,66918015,-0.3364141583442688,66918015,-0.3364141583442688
66.92063100,66920631,-0.3412025570869446,66920631,-0.3412025570869446
66.92323000,66923230,-0.3364141583442688,66923230,-0.3364141583442688
66.92582900,66925829,-0.331625759601593,66925829,-0.331625759601593
66.92844800,66928448,-0.32683736085891724,66928448,-0.32683736085891724
66.93105300,66931053,-0.32204896211624146,66931053,-0.32204896211624146
66.93366000,66933660,-0.32683736085891724,66933660,-0.32683736085891724
66.93564000,66935640,-0.331625759601593,66935640,-0.331625759601593
66.93824200,66938242,-0.3364141583442688,66938242,-0.3364141583442688
66.94085600,66940856,-0.3412025570869446,66940856,-0.3412025570869446
66.94345700,66943457,-0.3412025570869446,66943457,-0.3412025570869446
66.94606500,66946065,-0.3412025570869446,66946065,-0.3412025570869446
66.94866500,66948665,-0.3412025570869446,66948665,-0.3412025570869446
66.95127300,66951273,-0.3412025570869446,66951273,-0.3412025570869446
66.95387800,66953878,-0.3412025570869446,66953878,-0.3412025570869446
66.95585800,66955858,-0.3412025570869446,66955858,-0.3412025570869446
66.95846000,66958460,-0.3412025570869446,66958460,-0.3412025570869446
66.96106400,66961064,-0.34599095582962036,66961064,-0.34599095582962036
66.96366500,66963665,-0.3507794141769409,66963665,-0.3507794141769409
66.96626800,66966268,-0.3555678129196167,66966268,-0.3555678129196167
66.96887600,66968876,-0.3603562116622925,66968876,-0.3603562116622925
66.97147900,66971479,-0.3603562116622925,66971479,-0.3603562116622925
66.97408300,66974083,-0.3603562116622925,66974083,-0.3603562116622925
66.97606500,66976065,-0.3603562116622925,66976065,-0.3603562116622925
66.97866800,66978668,-0.3603562116622925,66978668,-0.3603562116622925
66.98127300,66981273,-0.3555678129196167,66981273,-0.3555678129196167
66.98387400,66983874,-0.3555678129196167,66983874,-0.3555678129196167
66.98648000,66986480,-0.34599095582962036,66986480,-0.34599095582962036
66.98908200,66989082,-0.34599095582962036,66989082,-0.34599095582962036
66.99168700,66991687,-0.34599095582962036,66991687,-0.34599095582962036
66.99429400,66994294,-0.34599095582962036,66994294,-0.34599095582962036
66.99627600,66996276,-0.3507794141769409,66996276,-0.3507794141769409
66.99887500,66998875,-0.3507794141769409,66998875,-0.3507794141769409
67.00148700,67001487,-0.3507794141769409,67001487,-0.3507794141769409
67.00409100,67004091,-0.34599095582962036,67004091,-0.34599095582962036
67.00669300,67006693,-0.34599095582962036,67006693,-0.34599095582962036
67.00929800,67009298,-0.34599095582962036,67009298,-0.34599095582962036
67.01190600,67011906,-0.34599095582962036,67011906,-0.34599095582962036
67.01451000,67014510,-0.3507794141769409,67014510,-0.3507794141769409
67.01649500,67016495,-0.3555678129196167,67016495,-0.3555678129196167
67.01909600,67019096,-0.3507794141769409,67019096,-0.3507794141769409
67.02171000,67021710,-0.3555678129196167,67021710,-0.3555678129196167
67.02430900,67024309,-0.34599095582962036,67024309,-0.34599095582962036
67.02698200,67026982,-0.34599095582962036,67026982,-0.34599095582962036
67.02951700,67029517,-0.34599095582962036,67029517,-0.34599095582962036
67.03213000,67032130,-0.34599095582962036,67032130,-0.34599095582962036
67.03473900,67034739,-0.34599095582962036,67034739,-0.34599095582962036
67.03672800,67036728,-0.3507794141769409,67036728,-0.3507794141769409
67.03932800,67039328,-0.3507794141769409,67039328,-0.3507794141769409
67.04193600,67041936,-0.3507794141769409,67041936,-0.3507794141769409
67.04454100,67044541,-0.3555678129196167,67044541,-0.3555678129196167
67.04715300,67047153,-0.3555678129196167,67047153,-0.3555678129196167
67.04976100,67049761,-0.3555678129196167,67049761,-0.3555678129196167
67.05236600,67052366,-0.3555678129196167,67052366,-0.3555678129196167
67.05497300,67054973,-0.3507794141769409,67054973,-0.3507794141769409
67.05696100,67056961,-0.34599095582962036,67056961,-0.34599095582962036
67.05955900,67059559,-0.34599095582962036,67059559,-0.34599095582962036
67.06216200,67062162,-0.3507794141769409,67062162,-0.3507794141769409
67.06476900,67064769,-0.3555678129196167,67064769,-0.3555678129196167
67.06737000,67067370,-0.3555678129196167,67067370,-0.3555678129196167
67.06997700,67069977,-0.3603562116622925,67069977,-0.3603562116622925
67.07257800,67072578,-0.3603562116622925,67072578,-0.3603562116622925
67.07518800,67075188,-0.36514461040496826,67075188,-0.36514461040496826
67.07779400,67077794,-0.3603562116622925,67077794,-0.3603562116622925
67.07977000,67079770,-0.3603562116622925,67079770,-0.3603562116622925
67.08236700,67082367,-0.3555678129196167,67082367,-0.3555678129196167
67.08497700,67084977,-0.3603562116622925,67084977,-0.3603562116622925
67.08757900,67087579,-0.3603562116622925,67087579,-0.3603562116622925
67.09019100,67090191,-0.3603562116622925,67090191,-0.3603562116622925
67.09278800,67092788,-0.3555678129196167,67092788,-0.3555678129196167
67.09539800,67095398,-0.3507794141769409,67095398,-0.3507794141769409
67.09800200,67098002,-0.3507794141769409,67098002,-0.3507794141769409
67.09998200,67099982,-0.3507794141769409,67099982,-0.3507794141769409
67.10259400,67102594,-0.3603562116622925,67102594,-0.3603562116622925
67.10519800,67105198,-0.36514461040496826,67105198,-0.36514461040496826
67.10779900,67107799,-0.3747214078903198,67107799,-0.3747214078903198
67.11041900,67110419,-0.3747214078903198,67110419,-0.3747214078903198
67.11302200,67113022,-0.3747214078903198,67113022,-0.3747214078903198
67.11563100,67115631,-0.3747214078903198,67115631,-0.3747214078903198
67.11823900,67118239,-0.36993300914764404,67118239,-0.36993300914764404
67.12022200,67120222,-0.36993300914764404,67120222,-0.36993300914764404
67.12282700,67122827,-0.36993300914764404,67122827,-0.36993300914764404
67.12542900,67125429,-0.36993300914764404,67125429,-0.36993300914764404
67.12803400,67128034,-0.3603562116622925,67128034,-0.3603562116622925
67.13064200,67130642,-0.3507794141769409,67130642,-0.3507794141769409
67.13324600,67133246,-0.3412025570869446,67133246,-0.3412025570869446
67.13585300,67135853,-0.331625759601593,67135853,-0.331625759601593
67.13846300,67138463,-0.331625759601593,67138463,-0.331625759601593
67.14044900,67140449,-0.331625759601593,67140449,-0.331625759601593
67.14305400,67143054,-0.331625759601593,67143054,-0.331625759601593
67.14566200,67145662,-0.3364141583442688,67145662,-0.3364141583442688
67.14826000,67148260,-0.3364141583442688,67148260,-0.3364141583442688
67.15086800,67150868,-0.331625759601593,67150868,-0.331625759601593
67.15347700,67153477,-0.331625759601593,67153477,-0.331625759601593
67.15608700,67156087,-0.3364141583442688,67156087,-0.3364141583442688
67.15869000,67158690,-0.3364141583442688,67158690,-0.3364141583442688
67.16066800,67160668,-0.34599095582962036,67160668,-0.34599095582962036
67.16327900,67163279,-0.34599095582962036,67163279,-0.34599095582962036
67.16587800,67165878,-0.34599095582962036,67165878,-0.34599095582962036
67.16848000,67168480,-0.3412025570869446,67168480,-0.3412025570869446
67.17108600,67171086,-0.3364141583442688,67171086,-0.3364141583442688
67.17368800,67173688,-0.3364141583442688,67173688,-0.3364141583442688
67.17629700,67176297,-0.3412025570869446,67176297,-0.3412025570869446
67.17889700,67178897,-0.34599095582962036,67178897,-0.34599095582962036
67.18087500,67180875,-0.34599095582962036,67180875,-0.34599095582962036
67.18348500,67183485,-0.3507794141769409,67183485,-0.3507794141769409
67.18608600,67186086,-0.34599095582962036,67186086,-0.34599095582962036
67.18868500,67188685,-0.34599095582962036,67188685,-0.34599095582962036
67.19130100,67191301,-0.3412025570869446,67191301,-0.3412025570869446
67.19390500,67193905,-0.34599095582962036,67193905,-0.34599095582962036
67.19651200,67196512,-0.3412025570869446,67196512,-0.3412025570869446
67.19911300,67199113,-0.34599095582962036,67199113,-0.34599095582962036
67.20109100,67201091,-0.3507794141769409,67201091,-0.3507794141769409
67.20369900,67203699,-0.3603562116622925,67203699,-0.3603562116622925
67.20629800,67206298,-0.3603562116622925,67206298,-0.3603562116622925
67.20890100,67208901,-0.3603562116622925,67208901,-0.3603562116622925
67.21150500,67211505,-0.3555678129196167,67211505,-0.3555678129196167
67.21410900,67214109,-0.3507794141769409,67214109,-0.3507794141769409
67.21671800,67216718,-0.34599095582962036,67216718,-0.34599095582962036
67.21932200,67219322,-0.34599095582962036,67219322,-0.34599095582962036
67.22130000,67221300,-0.34599095582962036,67221300,-0.34599095582962036
67.22391000,67223910,-0.34599095582962036,67223910,-0.34599095582962036
67.22651700,67226517,-0.34599095582962036,67226517,-0.34599095582962036
67.22911800,67229118,-0.3507794141769409,67229118,-0.3507794141769409
67.23173000,67231730,-0.34599095582962036,67231730,-0.34599095582962036
67.23433000,67234330,-0.34599095582962036,67234330,-0.34599095582962036
67.23694400,67236944,-0.34599095582962036,67236944,-0.34599095582962036
67.23954100,67239541,-0.3507794141769409,67239541,-0.3507794141769409
67.24152000,67241520,-0.3507794141769409,67241520,-0.3507794141769409
67.24412300,67244123,-0.3507794141769409,67244123,-0.3507794141769409
67.24674100,67246741,-0.3507794141769409,67246741,-0.3507794141769409
67.24934200,67249342,-0.3507794141769409,67249342,-0.3507794141769409
67.25195200,67251952,-0.3507794141769409,67251952,-0.3507794141769409
67.25455700,67254557,-0.3603562116622925,67254557,-0.3603562116622925
67.25716900,67257169,-0.36514461040496826,67257169,-0.36514461040496826
67.25977900,67259779,-0.3603562116622925,67259779,-0.3603562116622925
67.26175400,67261754,-0.36514461040496826,67261754,-0.36514461040496826
67.26436100,67264361,-0.3555678129196167,67264361,-0.3555678129196167
67.26696000,67266960,-0.3507794141769409,67266960,-0.3507794141769409
67.26956400,67269564,-0.3507794141769409,67269564,-0.3507794141769409
67.27217200,67272172,-0.3507794141769409,67272172,-0.3507794141769409
67.27477800,67274778,-0.3507794141769409,67274778,-0.3507794141769409
67.27738200,67277382,-0.3555678129196167,67277382,-0.3555678129196167
67.27999300,67279993,-0.3507794141769409,67279993,-0.3507794141769409
67.28197100,67281971,-0.3507794141769409,67281971,-0.3507794141769409
67.28457500,67284575,-0.34599095582962036,67284575,-0.34599095582962036
67.28717600,67287176,-0.3412025570869446,67287176,-0.3412025570869446
67.28978000,67289780,-0.331625759601593,67289780,-0.331625759601593
67.29239000,67292390,-0.32683736085891724,67292390,-0.32683736085891724
67.29499100,67294991,-0.32683736085891724,67294991,-0.32683736085891724
67.29759400,67297594,-0.32683736085891724,67297594,-0.32683736085891724
67.30020100,67300201,-0.331625759601593,67300201,-0.331625759601593
67.30280500,67302805,-0.331625759601593,67302805,-0.331625759601593
67.30478900,67304789,-0.3364141583442688,67304789,-0.3364141583442688
67.30739100,67307391,-0.3364141583442688,67307391,-0.3364141583442688
67.31000600,67310006,-0.3364141583442688,67310006,-0.3364141583442688
67.31260800,67312608,-0.3364141583442688,67312608,-0.3364141583442688
67.31521200,67315212,-0.34599095582962036,67315212,-0.34599095582962036
67.31781100,67317811,-0.34599095582962036,67317811,-0.34599095582962036
67.32041700,67320417,-0.3555678129196167,67320417,-0.3555678129196167
67.32302400,67323024,-0.3555678129196167,67323024,-0.3555678129196167
67.32500200,67325002,-0.3507794141769409,67325002,-0.3507794141769409
67.32760000,67327600,-0.3507794141769409,67327600,-0.3507794141769409
67.33020500,67330205,-0.34599095582962036,67330205,-0.34599095582962036
67.33281100,67332811,-0.34599095582962036,67332811,-0.34599095582962036
67.33541300,67335413,-0.34599095582962036,67335413,-0.34599095582962036
67.33802900,67338029,-0.3507794141769409,67338029,-0.3507794141769409
67.34063600,67340636,-0.3555678129196167,67340636,-0.3555678129196167
67.34323900,67343239,-0.3555678129196167,67343239,-0.3555678129196167
67.34521800,67345218,-0.3507794141769409,67345218,-0.3507794141769409
67.34783400,67347834,-0.3412025570869446,67347834,-0.3412025570869446
67.35043800,67350438,-0.3364141583442688,67350438,-0.3364141583442688
67.35310200,67353102,-0.3364141583442688,67353102,-0.3364141583442688
67.35564300,67355643,-0.3364141583442688,67355643,-0.3364141583442688
67.35824500,67358245,-0.3507794141769409,67358245,-0.3507794141769409
67.36084800,67360848,-0.3603562116622925,67360848,-0.3603562116622925
67.36346200,67363462,-0.36514461040496826,67363462,-0.36514461040496826
67.36544300,67365443,-0.36993300914764404,67365443,-0.36993300914764404
67.36803900,67368039,-0.36514461040496826,67368039,-0.36514461040496826
67.37064700,67370647,-0.3603562116622925,67370647,-0.3603562116622925
67.37325900,67373259,-0.3555678129196167,67373259,-0.3555678129196167
67.37585800,67375858,-0.3507794141769409,67375858,-0.3507794141769409
67.37846200,67378462,-0.3412025570869446,67378462,-0.3412025570869446
67.38106600,67381066,-0.3412025570869446,67381066,-0.3412025570869446
67.38367700,67383677,-0.3412025570869446,67383677,-0.3412025570869446
67.38566300,67385663,-0.3412025570869446,67385663,-0.3412025570869446
67.38826600,67388266,-0.34599095582962036,67388266,-0.34599095582962036
67.39086900,67390869,-0.34599095582962036,67390869,-0.34599095582962036
67.39347600,67393476,-0.34599095582962036,67393476,-0.34599095582962036
67.39607300,67396073,-0.34599095582962036,67396073,-0.34599095582962036
67.39868100,67398681,-0.34599095582962036,67398681,-0.34599095582962036
67.40128800,67401288,-0.34599095582962036,67401288,-0.34599095582962036
67.40389300,67403893,-0.34599095582962036,67403893,-0.34599095582962036
67.40587200,67405872,-0.3412025570869446,67405872,-0.3412025570869446
67.40847000,67408470,-0.34599095582962036,67408470,-0.34599095582962036
67.41107900,67411079,-0.34599095582962036,67411079,-0.34599095582962036
67.41367600,67413676,-0.34599095582962036,67413676,-0.34599095582962036
67.41628700,67416287,-0.3507794141769409,67416287,-0.3507794141769409
67.41889100,67418891,-0.3507794141769409,67418891,-0.3507794141769409
67.42149400,67421494,-0.3555678129196167,67421494,-0.3555678129196167
67.42410800,67424108,-0.3555678129196167,67424108,-0.3555678129196167
67.42676500,67426765,-0.3555678129196167,67426765,-0.3555678129196167
67.42868400,67428684,-0.3507794141769409,67428684,-0.3507794141769409
67.43129000,67431290,-0.34599095582962036,67431290,-0.34599095582962036
67.43388900,67433889,-0.34599095582962036,67433889,-0.34599095582962036
67.43649400,67436494,-0.34599095582962036,67436494,-0.34599095582962036
67.43909500,67439095,-0.34599095582962036,67439095,-0.34599095582962036
67.44170600,67441706,-0.3555678129196167,67441706,-0.3555678129196167
67.44430300,67444303,-0.3555678129196167,67444303,-0.3555678129196167
67.44692300,67446923,-0.3555678129196167,67446923,-0.3555678129196167
67.44890500,67448905,-0.3603562116622925,67448905,-0.3603562116622925
67.45150500,67451505,-0.3555678129196167,67451505,-0.3555678129196167
67.45412300,67454123,-0.3603562116622925,67454123,-0.3603562116622925
67.45672400,67456724,-0.3507794141769409,67456724,-0.3507794141769409
67.45933400,67459334,-0.34599095582962036,67459334,-0.34599095582962036
67.46193700,67461937,-0.34599095582962036,67461937,-0.34599095582962036
67.46454300,67464543,-0.34599095582962036,67464543,-0.34599095582962036
67.46714600,67467146,-0.3507794141769409,67467146,-0.3507794141769409
67.46912900,67469129,-0.3555678129196167,67469129,-0.3555678129196167
67.47172900,67471729,-0.36514461040496826,67471729,-0.36514461040496826
67.47434000,67474340,-0.36993300914764404,67474340,-0.36993300914764404
67.47694900,67476949,-0.3747214078903198,67476949,-0.3747214078903198
67.47956800,67479568,-0.3795098066329956,67479568,-0.3795098066329956
67.48217200,67482172,-0.3795098066329956,67482172,-0.3795098066329956
67.48477600,67484776,-0.3795098066329956,67484776,-0.3795098066329956
67.48738000,67487380,-0.3747214078903198,67487380,-0.3747214078903198
67.48936400,67489364,-0.3747214078903198,67489364,-0.3747214078903198
67.49196400,67491964,-0.36514461040496826,67491964,-0.36514461040496826
67.49458400,67494584,-0.3603562116622925,67494584,-0.3603562116622925
67.49718800,67497188,-0.3507794141769409,67497188,-0.3507794141769409
67.49980100,67499801,-0.3412025570869446,67499801,-0.3412025570869446
67.50240800,67502408,-0.3364141583442688,67502408,-0.3364141583442688
67.50501500,67505015,-0.32204896211624146,67505015,-0.32204896211624146
67.50762300,67507623,-0.3172605633735657,67507623,-0.3172605633735657
67.50960900,67509609,-0.3172605633735657,67509609,-0.3172605633735657
67.51221500,67512215,-0.32204896211624146,67512215,-0.32204896211624146
67.51482200,67514822,-0.32683736085891724,67514822,-0.32683736085891724
67.51742400,67517424,-0.3364141583442688,67517424,-0.3364141583442688
67.52003600,67520036,-0.34599095582962036,67520036,-0.34599095582962036
67.52264800,67522648,-0.3507794141769409,67522648,-0.3507794141769409
67.52524500,67525245,-0.3507794141769409,67525245,-0.3507794141769409
67.52784700,67527847,-0.34599095582962036,67527847,-0.34599095582962036
67.52983100,67529831,-0.3412025570869446,67529831,-0.3412025570869446
67.53242900,67532429,-0.3364141583442688,67532429,-0.3364141583442688
67.53504400,67535044,-0.34599095582962036,67535044,-0.34599095582962036
67.53764400,67537644,-0.34599095582962036,67537644,-0.34599095582962036
67.54025300,67540253,-0.3555678129196167,67540253,-0.3555678129196167
67.54285600,67542856,-0.36514461040496826,67542856,-0.36514461040496826
67.54546300,67545463,-0.36993300914764404,67545463,-0.36993300914764404
67.54806200,67548062,-0.3747214078903198,67548062,-0.3747214078903198
67.55004100,67550041,-0.36993300914764404,67550041,-0.36993300914764404
67.55264500,67552645,-0.3747214078903198,67552645,-0.3747214078903198
67.55525600,67555256,-0.3747214078903198,67555256,-0.3747214078903198
67.55786100,67557861,-0.36993300914764404,67557861,-0.36993300914764404
67.56047400,67560474,-0.36993300914764404,67560474,-0.36993300914764404
67.56307600,67563076,-0.3603562116622925,67563076,-0.3603562116622925
67.56568400,67565684,-0.3507794141769409,67565684,-0.3507794141769409
67.56828400,67568284,-0.3507794141769409,67568284,-0.3507794141769409
67.57027100,67570271,-0.34599095582962036,67570271,-0.34599095582962036
67.57287600,67572876,-0.34599095582962036,67572876,-0.34599095582962036
67.57548100,67575481,-0.3507794141769409,67575481,-0.3507794141769409
67.57808100,67578081,-0.3555678129196167,67578081,-0.3555678129196167
67.58069400,67580694,-0.3603562116622925,67580694,-0.3603562116622925
67.58330200,67583302,-0.3603562116622925,67583302,-0.3603562116622925
67.58591500,67585915,-0.36514461040496826,67585915,-0.36514461040496826
67.58851800,67588518,-0.36514461040496826,67588518,-0.36514461040496826
67.59049700,67590497,-0.36514461040496826,67590497,-0.36514461040496826
67.59310900,67593109,-0.3603562116622925,67593109,-0.3603562116622925
67.59571000,67595710,-0.3555678129196167,67595710,-0.3555678129196167
67.59831900,67598319,-0.3507794141769409,67598319,-0.3507794141769409
67.60092300,67600923,-0.3412025570869446,67600923,-0.3412025570869446
67.60353000,67603530,-0.3412025570869446,67603530,-0.3412025570869446
67.60613800,67606138,-0.3412025570869446,67606138,-0.3412025570869446
67.60873900,67608739,-0.3364141583442688,67608739,-0.3364141583442688
67.61071800,67610718,-0.331625759601593,67610718,-0.331625759601593
67.61332600,67613326,-0.331625759601593,67613326,-0.331625759601593
67.61593400,67615934,-0.331625759601593,67615934,-0.331625759601593
67.61854400,67618544,-0.3364141583442688,67618544,-0.3364141583442688
67.62114700,67621147,-0.3364141583442688,67621147,-0.3364141583442688
67.62374500,67623745,-0.3412025570869446,67623745,-0.3412025570869446
67.62636100,67626361,-0.34599095582962036,67626361,-0.34599095582962036
67.62896900,67628969,-0.3555678129196167,67628969,-0.3555678129196167
67.63094300,67630943,-0.3603562116622925,67630943,-0.3603562116622925
67.63354500,67633545,-0.3603562116622925,67633545,-0.3603562116622925
67.63615200,67636152,-0.3603562116622925,67636152,-0.3603562116622925
67.63876100,67638761,-0.3555678129196167,67638761,-0.3555678129196167
67.64137100,67641371,-0.34599095582962036,67641371,-0.34599095582962036
67.64397700,67643977,-0.3364141583442688,67643977,-0.3364141583442688
67.64657800,67646578,-0.32683736085891724,67646578,-0.32683736085891724
67.64918500,67649185,-0.32683736085891724,67649185,-0.32683736085891724
67.65117800,67651178,-0.32683736085891724,67651178,-0.32683736085891724
67.65378900,67653789,-0.3364141583442688,67653789,-0.3364141583442688
67.65640600,67656406,-0.3412025570869446,67656406,-0.3412025570869446
67.65900700,67659007,-0.34599095582962036,67659007,-0.34599095582962036
67.66162800,67661628,-0.34599095582962036,67661628,-0.34599095582962036
67.66423100,67664231,-0.3412025570869446,67664231,-0.3412025570869446
67.66684900,67666849,-0.331625759601593,67666849,-0.331625759601593
67.66945300,67669453,-0.331625759601593,67669453,-0.331625759601593
67.67143000,67671430,-0.32683736085891724,67671430,-0.32683736085891724
67.67403700,67674037,-0.331625759601593,67674037,-0.331625759601593
67.67663900,67676639,-0.331625759601593,67676639,-0.331625759601593
67.67924600,67679246,-0.3364141583442688,67679246,-0.3364141583442688
67.68185600,67681856,-0.3364141583442688,67681856,-0.3364141583442688
67.68446100,67684461,-0.3364141583442688,67684461,-0.3364141583442688
67.68707200,67687072,-0.3412025570869446,67687072,-0.3412025570869446
67.68967200,67689672,-0.3507794141769409,67689672,-0.3507794141769409
67.69165600,67691656,-0.3507794141769409,67691656,-0.3507794141769409
67.69426300,67694263,-0.3555678129196167,67694263,-0.3555678129196167
67.69687200,67696872,-0.3555678129196167,67696872,-0.3555678129196167
67.69947700,67699477,-0.3555678129196167,67699477,-0.3555678129196167
67.70210500,67702105,-0.3507794141769409,67702105,-0.3507794141769409
67.70470600,67704706,-0.3555678129196167,67704706,-0.3555678129196167
67.70730800,67707308,-0.3507794141769409,67707308,-0.3507794141769409
67.70929200,67709292,-0.3555678129196167,67709292,-0.3555678129196167
67.71189800,67711898,-0.3555678129196167,67711898,-0.3555678129196167
67.71450400,67714504,-0.3555678129196167,67714504,-0.3555678129196167
67.71710900,67717109,-0.34599095582962036,67717109,-0.34599095582962036
67.71971100,67719711,-0.34599095582962036,67719711,-0.34599095582962036
67.72232300,67722323,-0.3412025570869446,67722323,-0.3412025570869446
67.72492600,67724926,-0.34599095582962036,67724926,-0.34599095582962036
67.72753500,67727535,-0.34599095582962036,67727535,-0.34599095582962036
67.73014000,67730140,-0.34599095582962036,67730140,-0.34599095582962036
67.73211600,67732116,-0.34599095582962036,67732116,-0.34599095582962036
67.73472300,67734723,-0.3507794141769409,67734723,-0.3507794141769409
67.73733500,67737335,-0.3507794141769409,67737335,-0.3507794141769409
67.73993800,67739938,-0.3555678129196167,67739938,-0.3555678129196167
67.74254600,67742546,-0.3603562116622925,67742546,-0.3603562116622925
67.74514500,67745145,-0.3555678129196167,67745145,-0.3555678129196167
67.74775200,67747752,-0.3507794141769409,67747752,-0.3507794141769409
67.75035400,67750354,-0.34599095582962036,67750354,-0.34599095582962036
67.75233500,67752335,-0.34599095582962036,67752335,-0.34599095582962036
67.75500100,67755001,-0.3412025570869446,67755001,-0.3412025570869446
67.75754700,67757547,-0.3412025570869446,67757547,-0.3412025570869446
67.76015000,67760150,-0.34599095582962036,67760150,-0.34599095582962036
67.76276100,67762761,-0.3412025570869446,67762761,-0.3412025570869446
67.76536900,67765369,-0.3412025570869446,67765369,-0.3412025570869446
67.76798100,67767981,-0.3412025570869446,67767981,-0.3412025570869446
67.77057900,67770579,-0.3412025570869446,67770579,-0.3412025570869446
67.77255700,67772557,-0.34599095582962036,67772557,-0.34599095582962036
67.77516500,67775165,-0.34599095582962036,67775165,-0.34599095582962036
67.77777100,67777771,-0.3412025570869446,67777771,-0.3412025570869446
67.78037700,67780377,-0.3412025570869446,67780377,-0.3412025570869446
67.78298400,67782984,-0.331625759601593,67782984,-0.331625759601593
67.78558900,67785589,-0.32683736085891724,67785589,-0.32683736085891724
67.78819200,67788192,-0.32683736085891724,67788192,-0.32683736085891724
67.79079300,67790793,-0.331625759601593,67790793,-0.331625759601593
67.79277300,67792773,-0.3412025570869446,67792773,-0.3412025570869446
67.79538100,67795381,-0.34599095582962036,67795381,-0.34599095582962036
67.79798600,67797986,-0.3555678129196167,67797986,-0.3555678129196167
67.80059100,67800591,-0.3555678129196167,67800591,-0.3555678129196167
67.80320400,67803204,-0.3555678129196167,67803204,-0.3555678129196167
67.80580300,67805803,-0.3507794141769409,67805803,-0.3507794141769409
67.80843000,67808430,-0.3412025570869446,67808430,-0.3412025570869446
67.81103000,67811030,-0.3364141583442688,67811030,-0.3364141583442688
67.81300400,67813004,-0.331625759601593,67813004,-0.331625759601593
67.81561100,67815611,-0.3364141583442688,67815611,-0.3364141583442688
67.81821800,67818218,-0.3412025570869446,67818218,-0.3412025570869446
67.82082500,67820825,-0.34599095582962036,67820825,-0.34599095582962036
67.82342800,67823428,-0.3507794141769409,67823428,-0.3507794141769409
67.82602800,67826028,-0.3507794141769409,67826028,-0.3507794141769409
67.82863400,67828634,-0.3507794141769409,67828634,-0.3507794141769409
67.83124200,67831242,-0.34599095582962036,67831242,-0.34599095582962036
67.83321300,67833213,-0.34599095582962036,67833213,-0.34599095582962036
67.83581900,67835819,-0.34599095582962036,67835819,-0.34599095582962036
67.83843200,67838432,-0.34599095582962036,67838432,-0.34599095582962036
67.84103800,67841038,-0.34599095582962036,67841038,-0.34599095582962036
67.84365100,67843651,-0.34599095582962036,67843651,-0.34599095582962036
67.84625500,67846255,-0.34599095582962036,67846255,-0.34599095582962036
67.84885900,67848859,-0.3507794141769409,67848859,-0.3507794141769409
67.85147000,67851470,-0.3507794141769409,67851470,-0.3507794141769409
67.85345500,67853455,-0.34599095582962036,67853455,-0.34599095582962036
67.85605200,67856052,-0.3412025570869446,67856052,-0.3412025570869446
67.85866600,67858666,-0.3364141583442688,67858666,-0.3364141583442688
67.86127300,67861273,-0.3364141583442688,67861273,-0.3364141583442688
67.86387900,67863879,-0.3412025570869446,67863879,-0.3412025570869446
67.86648000,67866480,-0.3507794141769409,67866480,-0.3507794141769409
67.86909000,67869090,-0.3555678129196167,67869090,-0.3555678129196167
67.87169000,67871690,-0.3603562116622925,67871690,-0.3603562116622925
67.87367100,67873671,-0.3603562116622925,67873671,-0.3603562116622925
67.87627100,67876271,-0.3507794141769409,67876271,-0.3507794141769409
67.87887800,67878878,-0.34599095582962036,67878878,-0.34599095582962036
67.88148700,67881487,-0.3412025570869446,67881487,-0.3412025570869446
67.88410100,67884101,-0.3364141583442688,67884101,-0.3364141583442688
67.88670500,67886705,-0.3364141583442688,67886705,-0.3364141583442688
67.88930500,67889305,-0.331625759601593,67889305,-0.331625759601593
67.89191300,67891913,-0.3364141583442688,67891913,-0.3364141583442688
67.89389500,67893895,-0.3364141583442688,67893895,-0.3364141583442688
67.89649100,67896491,-0.3412025570869446,67896491,-0.3412025570869446
67.89909700,67899097,-0.3507794141769409,67899097,-0.3507794141769409
67.90170100,67901701,-0.3555678129196167,67901701,-0.3555678129196167
67.90430800,67904308,-0.3555678129196167,67904308,-0.3555678129196167
67.90692300,67906923,-0.3555678129196167,67906923,-0.3555678129196167
67.90952500,67909525,-0.3555678129196167,67909525,-0.3555678129196167
67.91212900,67912129,-0.3555678129196167,67912129,-0.3555678129196167
67.91410900,67914109,-0.3555678129196167,67914109,-0.3555678129196167
67.91671100,67916711,-0.3555678129196167,67916711,-0.3555678129196167
67.91931600,67919316,-0.3603562116622925,67919316,-0.3603562116622925
67.92192100,67921921,-0.36514461040496826,67921921,-0.36514461040496826
67.92452500,67924525,-0.36514461040496826,67924525,-0.36514461040496826
67.92712700,67927127,-0.3603562116622925,67927127,-0.3603562116622925
67.92974000,67929740,-0.36514461040496826,67929740,-0.36514461040496826
67.93234500,67932345,-0.3555678129196167,67932345,-0.3555678129196167
67.93495400,67934954,-0.3555678129196167,67934954,-0.3555678129196167
67.93694100,67936941,-0.3555678129196167,67936941,-0.3555678129196167
67.93954100,67939541,-0.3555678129196167,67939541,-0.3555678129196167
67.94214600,67942146,-0.3603562116622925,67942146,-0.3603562116622925
67.94475100,67944751,-0.3603562116622925,67944751,-0.3603562116622925
67.94735500,67947355,-0.3603562116622925,67947355,-0.3603562116622925
67.94996000,67949960,-0.3603562116622925,67949960,-0.3603562116622925
67.95256700,67952567,-0.3507794141769409,67952567,-0.3507794141769409
67.95518200,67955182,-0.3555678129196167,67955182,-0.3555678129196167
67.95716800,67957168,-0.3507794141769409,67957168,-0.3507794141769409
67.95976600,67959766,-0.3555678129196167,67959766,-0.3555678129196167
67.96237200,67962372,-0.3555678129196167,67962372,-0.3555678129196167
67.96498000,67964980,-0.3555678129196167,67964980,-0.3555678129196167
67.96757700,67967577,-0.3507794141769409,67967577,-0.3507794141769409
67.97018400,67970184,-0.34599095582962036,67970184,-0.34599095582962036
67.97278900,67972789,-0.3412025570869446,67972789,-0.3412025570869446
67.97539300,67975393,-0.331625759601593,67975393,-0.331625759601593
67.97737900,67977379,-0.32683736085891724,67977379,-0.32683736085891724
67.97998000,67979980,-0.32683736085891724,67979980,-0.32683736085891724
67.98257900,67982579,-0.32683736085891724,67982579,-0.32683736085891724
67.98518300,67985183,-0.32683736085891724,67985183,-0.32683736085891724
67.98778400,67987784,-0.3364141583442688,67987784,-0.3364141583442688
67.99039600,67990396,-0.3412025570869446,67990396,-0.3412025570869446
67.99299700,67992997,-0.3412025570869446,67992997,-0.3412025570869446
67.99560100,67995601,-0.34599095582962036,67995601,-0.34599095582962036
67.99759500,67997595,-0.3364141583442688,67997595,-0.3364141583442688
68.00019500,68000195,-0.3412025570869446,68000195,-0.3412025570869446
68.00279800,68002798,-0.3364141583442688,68002798,-0.3364141583442688
68.00540400,68005404,-0.3412025570869446,68005404,-0.3412025570869446
68.00800800,68008008,-0.3412025570869446,68008008,-0.3412025570869446
68.01061300,68010613,-0.3412025570869446,68010613,-0.3412025570869446
68.01321400,68013214,-0.3412025570869446,68013214,-0.3412025570869446
68.01582100,68015821,-0.34599095582962036,68015821,-0.34599095582962036
68.01780400,68017804,-0.3412025570869446,68017804,-0.3412025570869446
68.02041200,68020412,-0.34599095582962036,68020412,-0.34599095582962036
68.02301700,68023017,-0.3507794141769409,68023017,-0.3507794141769409
68.02562100,68025621,-0.3555678129196167,68025621,-0.3555678129196167
68.02822200,68028222,-0.3603562116622925,68028222,-0.3603562116622925
68.03083800,68030838,-0.36514461040496826,68030838,-0.36514461040496826
68.03344500,68033445,-0.36514461040496826,68033445,-0.36514461040496826
68.03604800,68036048,-0.3603562116622925,68036048,-0.3603562116622925
68.03803500,68038035,-0.3555678129196167,68038035,-0.3555678129196167
68.04063500,68040635,-0.3555678129196167,68040635,-0.3555678129196167
68.04324600,68043246,-0.3507794141769409,68043246,-0.3507794141769409
68.04585300,68045853,-0.3507794141769409,68045853,-0.3507794141769409
68.04845500,68048455,-0.3507794141769409,68048455,-0.3507794141769409
68.05106000,68051060,-0.3507794141769409,68051060,-0.3507794141769409
68.05367600,68053676,-0.3507794141769409,68053676,-0.3507794141769409
68.05627400,68056274,-0.34599095582962036,68056274,-0.34599095582962036
68.05825900,68058259,-0.34599095582962036,68058259,-0.34599095582962036
68.06085600,68060856,-0.34599095582962036,68060856,-0.34599095582962036
68.06346500,68063465,-0.34599095582962036,68063465,-0.34599095582962036
68.06606800,68066068,-0.3507794141769409,68066068,-0.3507794141769409
68.06866700,68068667,-0.3555678129196167,68068667,-0.3555678129196167
68.07127800,68071278,-0.3603562116622925,68071278,-0.3603562116622925
68.07388000,68073880,-0.36514461040496826,68073880,-0.36514461040496826
68.07648500,68076485,-0.3603562116622925,68076485,-0.3603562116622925
68.07845700,68078457,-0.3555678129196167,68078457,-0.3555678129196167
68.08106500,68081065,-0.34599095582962036,68081065,-0.34599095582962036
68.08366800,68083668,-0.3412025570869446,68083668,-0.3412025570869446
68.08627400,68086274,-0.3412025570869446,68086274,-0.3412025570869446
68.08887700,68088877,-0.3412025570869446,68088877,-0.3412025570869446
68.09149600,68091496,-0.3412025570869446,68091496,-0.3412025570869446
68.09410000,68094100,-0.34599095582962036,68094100,-0.34599095582962036
68.09671400,68096714,-0.3412025570869446,68096714,-0.3412025570869446
68.09869700,68098697,-0.34599095582962036,68098697,-0.34599095582962036
68.10129700,68101297,-0.34599095582962036,68101297,-0.34599095582962036
68.10390200,68103902,-0.34599095582962036,68103902,-0.34599095582962036
68.10652200,68106522,-0.3507794141769409,68106522,-0.3507794141769409
68.10911900,68109119,-0.3603562116622925,68109119,-0.3603562116622925
68.11173400,68111734,-0.3603562116622925,68111734,-0.3603562116622925
68.11433900,68114339,-0.36514461040496826,68114339,-0.36514461040496826
68.11695000,68116950,-0.3603562116622925,68116950,-0.3603562116622925
68.11892900,68118929,-0.3555678129196167,68118929,-0.3555678129196167
68.12153400,68121534,-0.3507794141769409,68121534,-0.3507794141769409
68.12414000,68124140,-0.34599095582962036,68124140,-0.34599095582962036
68.12675300,68126753,-0.34599095582962036,68126753,-0.34599095582962036
68.12935400,68129354,-0.34599095582962036,68129354,-0.34599095582962036
68.13195700,68131957,-0.34599095582962036,68131957,-0.34599095582962036
68.13456900,68134569,-0.3507794141769409,68134569,-0.3507794141769409
68.13718000,68137180,-0.3555678129196167,68137180,-0.3555678129196167
68.13916200,68139162,-0.3603562116622925,68139162,-0.3603562116622925
68.14175900,68141759,-0.3555678129196167,68141759,-0.3555678129196167
68.14436900,68144369,-0.3555678129196167,68144369,-0.3555678129196167
68.14697200,68146972,-0.34599095582962036,68146972,-0.34599095582962036
68.14957600,68149576,-0.3555678129196167,68149576,-0.3555678129196167
68.15217900,68152179,-0.3555678129196167,68152179,-0.3555678129196167
68.15478300,68154783,-0.3603562116622925,68154783,-0.3603562116622925
68.15739600,68157396,-0.36993300914764404,68157396,-0.36993300914764404
68.15937800,68159378,-0.3747214078903198,68159378,-0.3747214078903198
68.16198100,68161981,-0.36993300914764404,68161981,-0.36993300914764404
68.16458900,68164589,-0.36993300914764404,68164589,-0.36993300914764404
68.16720000,68167200,-0.3603562116622925,68167200,-0.3603562116622925
68.16980500,68169805,-0.3507794141769409,68169805,-0.3507794141769409
68.17241200,68172412,-0.34599095582962036,68172412,-0.34599095582962036
68.17501500,68175015,-0.3412025570869446,68175015,-0.3412025570869446
68.17762500,68177625,-0.3364141583442688,68177625,-0.3364141583442688
68.17960700,68179607,-0.3364141583442688,68179607,-0.3364141583442688
68.18226500,68182265,-0.331625759601593,68182265,-0.331625759601593
68.18481500,68184815,-0.32683736085891724,68184815,-0.32683736085891724
68.18741900,68187419,-0.32683736085891724,68187419,-0.32683736085891724
68.19002200,68190022,-0.331625759601593,68190022,-0.331625759601593
68.19263000,68192630,-0.3412025570869446,68192630,-0.3412025570869446
68.19523500,68195235,-0.3507794141769409,68195235,-0.3507794141769409
68.19785000,68197850,-0.3555678129196167,68197850,-0.3555678129196167
68.19983600,68199836,-0.3507794141769409,68199836,-0.3507794141769409
68.20243800,68202438,-0.3412025570869446,68202438,-0.3412025570869446
68.20504800,68205048,-0.3364141583442688,68205048,-0.3364141583442688
68.20764900,68207649,-0.331625759601593,68207649,-0.331625759601593
68.21025200,68210252,-0.331625759601593,68210252,-0.331625759601593
68.21285900,68212859,-0.32683736085891724,68212859,-0.32683736085891724
68.21545900,68215459,-0.32683736085891724,68215459,-0.32683736085891724
68.21807400,68218074,-0.32683736085891724,68218074,-0.32683736085891724
68.22005800,68220058,-0.331625759601593,68220058,-0.331625759601593
68.22265800,68222658,-0.3364141583442688,68222658,-0.3364141583442688
68.22527000,68225270,-0.3412025570869446,68225270,-0.3412025570869446
68.22788200,68227882,-0.3364141583442688,68227882,-0.3364141583442688
68.23048500,68230485,-0.3364141583442688,68230485,-0.3364141583442688
68.23310000,68233100,-0.331625759601593,68233100,-0.331625759601593
68.23570100,68235701,-0.32683736085891724,68235701,-0.32683736085891724
68.23831200,68238312,-0.32683736085891724,68238312,-0.32683736085891724
68.24029500,68240295,-0.32683736085891724,68240295,-0.32683736085891724
68.24289800,68242898,-0.331625759601593,68242898,-0.331625759601593
68.24550600,68245506,-0.331625759601593,68245506,-0.331625759601593
68.24810800,68248108,-0.3412025570869446,68248108,-0.3412025570869446
68.25071200,68250712,-0.3412025570869446,68250712,-0.3412025570869446
68.25331800,68253318,-0.34599095582962036,68253318,-0.34599095582962036
68.25592700,68255927,-0.3555678129196167,68255927,-0.3555678129196167
68.25852800,68258528,-0.3603562116622925,68258528,-0.3603562116622925
68.26051500,68260515,-0.3555678129196167,68260515,-0.3555678129196167
68.26312000,68263120,-0.3555678129196167,68263120,-0.3555678129196167
68.26572800,68265728,-0.3507794141769409,68265728,-0.3507794141769409
68.26832900,68268329,-0.3507794141769409,68268329,-0.3507794141769409
68.27093000,68270930,-0.3507794141769409,68270930,-0.3507794141769409
68.27355100,68273551,-0.3507794141769409,68273551,-0.3507794141769409
68.27615100,68276151,-0.3603562116622925,68276151,-0.3603562116622925
68.27876200,68278762,-0.3603562116622925,68278762,-0.3603562116622925
68.28074500,68280745,-0.3603562116622925,68280745,-0.3603562116622925
68.28335600,68283356,-0.3555678129196167,68283356,-0.3555678129196167
68.28596900,68285969,-0.3507794141769409,68285969,-0.3507794141769409
68.28858000,68288580,-0.34599095582962036,68288580,-0.34599095582962036
68.29118200,68291182,-0.3412025570869446,68291182,-0.3412025570869446
68.29378800,68293788,-0.34599095582962036,68293788,-0.34599095582962036
68.29639800,68296398,-0.3412025570869446,68296398,-0.3412025570869446
68.29900100,68299001,-0.34599095582962036,68299001,-0.34599095582962036
68.30097900,68300979,-0.3364141583442688,68300979,-0.3364141583442688
68.30358300,68303583,-0.3364141583442688,68303583,-0.3364141583442688
68.30618300,68306183,-0.331625759601593,68306183,-0.331625759601593
68.30879500,68308795,-0.3364141583442688,68308795,-0.3364141583442688
68.31139600,68311396,-0.3364141583442688,68311396,-0.3364141583442688
68.31400200,68314002,-0.3412025570869446,68314002,-0.3412025570869446
68.31661000,68316610,-0.3412025570869446,68316610,-0.3412025570869446
68.31922100,68319221,-0.34599095582962036,68319221,-0.34599095582962036
68.32120100,68321201,-0.34599095582962036,68321201,-0.34599095582962036
68.32379500,68323795,-0.34599095582962036,68323795,-0.34599095582962036
68.32640200,68326402,-0.3507794141769409,68326402,-0.3507794141769409
68.32901000,68329010,-0.34599095582962036,68329010,-0.34599095582962036
68.33161400,68331614,-0.3412025570869446,68331614,-0.3412025570869446
68.33423000,68334230,-0.3364141583442688,68334230,-0.3364141583442688
68.33684100,68336841,-0.3364141583442688,68336841,-0.3364141583442688
68.33945000,68339450,-0.3364141583442688,68339450,-0.3364141583442688
68.34142800,68341428,-0.3364141583442688,68341428,-0.3364141583442688
68.34402800,68344028,-0.3412025570869446,68344028,-0.3412025570869446
68.34664400,68346644,-0.34599095582962036,68346644,-0.34599095582962036
68.34925200,68349252,-0.3412025570869446,68349252,-0.3412025570869446
68.35185800,68351858,-0.3412025570869446,68351858,-0.3412025570869446
68.35445600,68354456,-0.3412025570869446,68354456,-0.3412025570869446
68.35707200,68357072,-0.3412025570869446,68357072,-0.3412025570869446
68.35968300,68359683,-0.34599095582962036,68359683,-0.34599095582962036
68.36165800,68361658,-0.3507794141769409,68361658,-0.3507794141769409
68.36426400,68364264,-0.3507794141769409,68364264,-0.3507794141769409
68.36687300,68366873,-0.3507794141769409,68366873,-0.3507794141769409
68.36947600,68369476,-0.34599095582962036,68369476,-0.34599095582962036
68.37208000,68372080,-0.34599095582962036,68372080,-0.34599095582962036
68.37469100,68374691,-0.34599095582962036,68374691,-0.34599095582962036
68.37729200,68377292,-0.34599095582962036,68377292,-0.34599095582962036
68.37991000,68379910,-0.34599095582962036,68379910,-0.34599095582962036
68.38189600,68381896,-0.3507794141769409,68381896,-0.3507794141769409
68.38449700,68384497,-0.3507794141769409,68384497,-0.3507794141769409
68.38710400,68387104,-0.3555678129196167,68387104,-0.3555678129196167
68.38970800,68389708,-0.3507794141769409,68389708,-0.3507794141769409
68.39231300,68392313,-0.3507794141769409,68392313,-0.3507794141769409
68.39493100,68394931,-0.3507794141769409,68394931,-0.3507794141769409
68.39753100,68397531,-0.34599095582962036,68397531,-0.34599095582962036
68.40013800,68400138,-0.34599095582962036,68400138,-0.34599095582962036
68.40212300,68402123,-0.3412025570869446,68402123,-0.3412025570869446
68.40473100,68404731,-0.3412025570869446,68404731,-0.3412025570869446
68.40733600,68407336,-0.3412025570869446,68407336,-0.3412025570869446
68.40994000,68409940,-0.3412025570869446,68409940,-0.3412025570869446
68.41254300,68412543,-0.34599095582962036,68412543,-0.34599095582962036
68.41515500,68415155,-0.3507794141769409,68415155,-0.3507794141769409
68.41776200,68417762,-0.3603562116622925,68417762,-0.3603562116622925
68.42037700,68420377,-0.36514461040496826,68420377,-0.36514461040496826
68.42236200,68422362,-0.36514461040496826,68422362,-0.36514461040496826
68.42496600,68424966,-0.36514461040496826,68424966,-0.36514461040496826
68.42756900,68427569,-0.3555678129196167,68427569,-0.3555678129196167
68.43017700,68430177,-0.3507794141769409,68430177,-0.3507794141769409
68.43278100,68432781,-0.34599095582962036,68432781,-0.34599095582962036
68.43539200,68435392,-0.3412025570869446,68435392,-0.3412025570869446
68.43800000,68438000,-0.3364141583442688,68438000,-0.3364141583442688
68.44060800,68440608,-0.331625759601593,68440608,-0.331625759601593
68.44258600,68442586,-0.32683736085891724,68442586,-0.32683736085891724
68.44519200,68445192,-0.32204896211624146,68445192,-0.32204896211624146
68.44780500,68447805,-0.32204896211624146,68447805,-0.32204896211624146
68.45040400,68450404,-0.331625759601593,68450404,-0.331625759601593
68.45300400,68453004,-0.3364141583442688,68453004,-0.3364141583442688
68.45561800,68455618,-0.3412025570869446,68455618,-0.3412025570869446
68.45822800,68458228,-0.34599095582962036,68458228,-0.34599095582962036
68.46083100,68460831,-0.3412025570869446,68460831,-0.3412025570869446
68.46281400,68462814,-0.3412025570869446,68462814,-0.3412025570869446
68.46541200,68465412,-0.3412025570869446,68465412,-0.3412025570869446
68.46801900,68468019,-0.3364141583442688,68468019,-0.3364141583442688
68.47062700,68470627,-0.331625759601593,68470627,-0.331625759601593
68.47323000,68473230,-0.32683736085891724,68473230,-0.32683736085891724
68.47584000,68475840,-0.32204896211624146,68475840,-0.32204896211624146
68.47845400,68478454,-0.32204896211624146,68478454,-0.32204896211624146
68.48106200,68481062,-0.32683736085891724,68481062,-0.32683736085891724
68.48304200,68483042,-0.331625759601593,68483042,-0.331625759601593
68.48564900,68485649,-0.3364141583442688,68485649,-0.3364141583442688
68.48826400,68488264,-0.3412025570869446,68488264,-0.3412025570869446
68.49086900,68490869,-0.34599095582962036,68490869,-0.34599095582962036
68.49347600,68493476,-0.3507794141769409,68493476,-0.3507794141769409
68.49607900,68496079,-0.3507794141769409,68496079,-0.3507794141769409
68.49868400,68498684,-0.3555678129196167,68498684,-0.3555678129196167
68.50129800,68501298,-0.3555678129196167,68501298,-0.3555678129196167
68.50328000,68503280,-0.3603562116622925,68503280,-0.3603562116622925
68.50588100,68505881,-0.36514461040496826,68505881,-0.36514461040496826
68.50849200,68508492,-0.36993300914764404,68508492,-0.36993300914764404
68.51109500,68511095,-0.3747214078903198,68511095,-0.3747214078903198
68.51369800,68513698,-0.3747214078903198,68513698,-0.3747214078903198
68.51631400,68516314,-0.3747214078903198,68516314,-0.3747214078903198
68.51891600,68518916,-0.3747214078903198,68518916,-0.3747214078903198
68.52152500,68521525,-0.36993300914764404,68521525,-0.36993300914764404
68.52350500,68523505,-0.3603562116622925,68523505,-0.3603562116622925
68.52610900,68526109,-0.3555678129196167,68526109,-0.3555678129196167
68.52871700,68528717,-0.34599095582962036,68528717,-0.34599095582962036
68.53132300,68531323,-0.34599095582962036,68531323,-0.34599095582962036
68.53392500,68533925,-0.3507794141769409,68533925,-0.3507794141769409
68.53653100,68536531,-0.3555678129196167,68536531,-0.3555678129196167
68.53913500,68539135,-0.3555678129196167,68539135,-0.3555678129196167
68.54174400,68541744,-0.3555678129196167,68541744,-0.3555678129196167
68.54373100,68543731,-0.3603562116622925,68543731,-0.3603562116622925
68.54633000,68546330,-0.3603562116622925,68546330,-0.3603562116622925
68.54893900,68548939,-0.3603562116622925,68548939,-0.3603562116622925
68.55154100,68551541,-0.3555678129196167,68551541,-0.3555678129196167
68.55414400,68554144,-0.3507794141769409,68554144,-0.3507794141769409
68.55674600,68556746,-0.34599095582962036,68556746,-0.34599095582962036
68.55935600,68559356,-0.3412025570869446,68559356,-0.3412025570869446
68.56196900,68561969,-0.3412025570869446,68561969,-0.3412025570869446
68.56395800,68563958,-0.3412025570869446,68563958,-0.3412025570869446
68.56656100,68566561,-0.3412025570869446,68566561,-0.3412025570869446
68.56916800,68569168,-0.3364141583442688,68569168,-0.3364141583442688
68.57176700,68571767,-0.331625759601593,68571767,-0.331625759601593
68.57437600,68574376,-0.32683736085891724,68574376,-0.32683736085891724
68.57698100,68576981,-0.32683736085891724,68576981,-0.32683736085891724
68.57958400,68579584,-0.331625759601593,68579584,-0.331625759601593
68.58219500,68582195,-0.3364141583442688,68582195,-0.3364141583442688
68.58417600,68584176,-0.3412025570869446,68584176,-0.3412025570869446
68.58677400,68586774,-0.3412025570869446,68586774,-0.3412025570869446
68.58938100,68589381,-0.3507794141769409,68589381,-0.3507794141769409
68.59198700,68591987,-0.3412025570869446,68591987,-0.3412025570869446
68.59458700,68594587,-0.34599095582962036,68594587,-0.34599095582962036
68.59719600,68597196,-0.3412025570869446,68597196,-0.3412025570869446
68.59979900,68599799,-0.34599095582962036,68599799,-0.34599095582962036
68.60240500,68602405,-0.34599095582962036,68602405,-0.34599095582962036
68.60438700,68604387,-0.3507794141769409,68604387,-0.3507794141769409
68.60699200,68606992,-0.34599095582962036,68606992,-0.34599095582962036
68.60959400,68609594,-0.34599095582962036,68609594,-0.34599095582962036
68.61219900,68612199,-0.34599095582962036,68612199,-0.34599095582962036
68.61480100,68614801,-0.3507794141769409,68614801,-0.3507794141769409
68.61741700,68617417,-0.34599095582962036,68617417,-0.34599095582962036
68.62002000,68620020,-0.3507794141769409,68620020,-0.3507794141769409
68.62262200,68622622,-0.34599095582962036,68622622,-0.34599095582962036
68.62460900,68624609,-0.34599095582962036,68624609,-0.34599095582962036
68.62721300,68627213,-0.34599095582962036,68627213,-0.34599095582962036
68.62982300,68629823,-0.34599095582962036,68629823,-0.34599095582962036
68.63242700,68632427,-0.3555678129196167,68632427,-0.3555678129196167
68.63503000,68635030,-0.3603562116622925,68635030,-0.3603562116622925
68.63763800,68637638,-0.36514461040496826,68637638,-0.36514461040496826
68.64025100,68640251,-0.3603562116622925,68640251,-0.3603562116622925
68.64285600,68642856,-0.36514461040496826,68642856,-0.36514461040496826
68.64483400,68644834,-0.3603562116622925,68644834,-0.3603562116622925
68.64743500,68647435,-0.3603562116622925,68647435,-0.3603562116622925
68.65004600,68650046,-0.3603562116622925,68650046,-0.3603562116622925
68.65264700,68652647,-0.3555678129196167,68652647,-0.3555678129196167
68.65526200,68655262,-0.3555678129196167,68655262,-0.3555678129196167
68.65786400,68657864,-0.3507794141769409,68657864,-0.3507794141769409
68.66046600,68660466,-0.3603562116622925,68660466,-0.3603562116622925
68.66306900,68663069,-0.3555678129196167,68663069,-0.3555678129196167
68.66566700,68665667,-0.3603562116622925,68665667,-0.3603562116622925
68.66764700,68667647,-0.3507794141769409,68667647,-0.3507794141769409
68.67026400,68670264,-0.3412025570869446,68670264,-0.3412025570869446
68.67286100,68672861,-0.3364141583442688,68672861,-0.3364141583442688
68.67546000,68675460,-0.32683736085891724,68675460,-0.32683736085891724
68.67807500,68678075,-0.32683736085891724,68678075,-0.32683736085891724
68.68068200,68680682,-0.32204896211624146,68680682,-0.32204896211624146
68.68328400,68683284,-0.32204896211624146,68683284,-0.32204896211624146
68.68589100,68685891,-0.32683736085891724,68685891,-0.32683736085891724
68.68786500,68687865,-0.331625759601593,68687865,-0.331625759601593
68.69047300,68690473,-0.3412025570869446,68690473,-0.3412025570869446
68.69307300,68693073,-0.3507794141769409,68693073,-0.3507794141769409
68.69567000,68695670,-0.3555678129196167,68695670,-0.3555678129196167
68.69827700,68698277,-0.3555678129196167,68698277,-0.3555678129196167
68.70088400,68700884,-0.3507794141769409,68700884,-0.3507794141769409
68.70349100,68703491,-0.3507794141769409,68703491,-0.3507794141769409
68.70609300,68706093,-0.34599095582962036,68706093,-0.34599095582962036
68.70807700,68708077,-0.3412025570869446,68708077,-0.3412025570869446
68.71069100,68710691,-0.3364141583442688,68710691,-0.3364141583442688
68.71329400,68713294,-0.331625759601593,68713294,-0.331625759601593
68.71589800,68715898,-0.3364141583442688,68715898,-0.3364141583442688
68.71850500,68718505,-0.3412025570869446,68718505,-0.3412025570869446
68.72110700,68721107,-0.34599095582962036,68721107,-0.34599095582962036
68.72371400,68723714,-0.3507794141769409,68723714,-0.3507794141769409
68.72631900,68726319,-0.3507794141769409,68726319,-0.3507794141769409
68.72829300,68728293,-0.3507794141769409,68728293,-0.3507794141769409
68.73096300,68730963,-0.3555678129196167,68730963,-0.3555678129196167
68.73352000,68733520,-0.3555678129196167,68733520,-0.3555678129196167
68.73612200,68736122,-0.3555678129196167,68736122,-0.3555678129196167
68.73872500,68738725,-0.3507794141769409,68738725,-0.3507794141769409
68.74132500,68741325,-0.34599095582962036,68741325,-0.34599095582962036
68.74392700,68743927,-0.34599095582962036,68743927,-0.34599095582962036
68.74653700,68746537,-0.3412025570869446,68746537,-0.3412025570869446
68.74851000,68748510,-0.3364141583442688,68748510,-0.3364141583442688
68.75111800,68751118,-0.3364141583442688,68751118,-0.3364141583442688
68.75373500,68753735,-0.3364141583442688,68753735,-0.3364141583442688
68.75634000,68756340,-0.3364141583442688,68756340,-0.3364141583442688
68.75893700,68758937,-0.3412025570869446,68758937,-0.3412025570869446
68.76154700,68761547,-0.34599095582962036,68761547,-0.34599095582962036
68.76415500,68764155,-0.3507794141769409,68764155,-0.3507794141769409
68.76676000,68766760,-0.3507794141769409,68766760,-0.3507794141769409
68.76874400,68768744,-0.3603562116622925,68768744,-0.3603562116622925
68.77135000,68771350,-0.3603562116622925,68771350,-0.3603562116622925
68.77396200,68773962,-0.3603562116622925,68773962,-0.3603562116622925
68.77656500,68776565,-0.36514461040496826,68776565,-0.36514461040496826
68.77916600,68779166,-0.36514461040496826,68779166,-0.36514461040496826
68.78176700,68781767,-0.36514461040496826,68781767,-0.36514461040496826
68.78437600,68784376,-0.36514461040496826,68784376,-0.36514461040496826
68.78698500,68786985,-0.3603562116622925,68786985,-0.3603562116622925
68.78896000,68788960,-0.3603562116622925,68788960,-0.3603562116622925
68.79156500,68791565,-0.3555678129196167,68791565,-0.3555678129196167
68.79416800,68794168,-0.3507794141769409,68794168,-0.3507794141769409
68.79677000,68796770,-0.3507794141769409,68796770,-0.3507794141769409
68.79938400,68799384,-0.3507794141769409,68799384,-0.3507794141769409
68.80198200,68801982,-0.3507794141769409,68801982,-0.3507794141769409
68.80459300,68804593,-0.3555678129196167,68804593,-0.3555678129196167
68.80720000,68807200,-0.3603562116622925,68807200,-0.3603562116622925
68.80980900,68809809,-0.3603562116622925,68809809,-0.3603562116622925
68.81179700,68811797,-0.3603562116622925,68811797,-0.3603562116622925
68.81439700,68814397,-0.3603562116622925,68814397,-0.3603562116622925
68.81699700,68816997,-0.3603562116622925,68816997,-0.3603562116622925
68.81960300,68819603,-0.3555678129196167,68819603,-0.3555678129196167
68.82220500,68822205,-0.3507794141769409,68822205,-0.3507794141769409
68.82481400,68824814,-0.34599095582962036,68824814,-0.34599095582962036
68.82741500,68827415,-0.3412025570869446,68827415,-0.3412025570869446
68.83002200,68830022,-0.3364141583442688,68830022,-0.3364141583442688
68.83200600,68832006,-0.3364141583442688,68832006,-0.3364141583442688
68.83461100,68834611,-0.3364141583442688,68834611,-0.3364141583442688
68.83721200,68837212,-0.331625759601593,68837212,-0.331625759601593
68.83982500,68839825,-0.3364141583442688,68839825,-0.3364141583442688
68.84242800,68842428,-0.3364141583442688,68842428,-0.3364141583442688
68.84503100,68845031,-0.3412025570869446,68845031,-0.3412025570869446
68.84763500,68847635,-0.3364141583442688,68847635,-0.3364141583442688
68.85024800,68850248,-0.3412025570869446,68850248,-0.3412025570869446
68.85222600,68852226,-0.34599095582962036,68852226,-0.34599095582962036
68.85482000,68854820,-0.3507794141769409,68854820,-0.3507794141769409
68.85742900,68857429,-0.3555678129196167,68857429,-0.3555678129196167
68.86003300,68860033,-0.3555678129196167,68860033,-0.3555678129196167
68.86264800,68862648,-0.3603562116622925,68862648,-0.3603562116622925
68.86525000,68865250,-0.3603562116622925,68865250,-0.3603562116622925
68.86785100,68867851,-0.3603562116622925,68867851,-0.3603562116622925
68.87046200,68870462,-0.3603562116622925,68870462,-0.3603562116622925
68.87244200,68872442,-0.3507794141769409,68872442,-0.3507794141769409
68.87505200,68875052,-0.3555678129196167,68875052,-0.3555678129196167
68.87765200,68877652,-0.3507794141769409,68877652,-0.3507794141769409
68.88026000,68880260,-0.3507794141769409,68880260,-0.3507794141769409
68.88286100,68882861,-0.3507794141769409,68882861,-0.3507794141769409
68.88547600,68885476,-0.3412025570869446,68885476,-0.3412025570869446
68.88807800,68888078,-0.3412025570869446,68888078,-0.3412025570869446
68.89069000,68890690,-0.3412025570869446,68890690,-0.3412025570869446
68.89267100,68892671,-0.34599095582962036,68892671,-0.34599095582962036
68.89527500,68895275,-0.3507794141769409,68895275,-0.3507794141769409
68.89788000,68897880,-0.34599095582962036,68897880,-0.34599095582962036
68.90049300,68900493,-0.3412025570869446,68900493,-0.3412025570869446
68.90309800,68903098,-0.3364141583442688,68903098,-0.3364141583442688
68.90570100,68905701,-0.331625759601593,68905701,-0.331625759601593
68.90830800,68908308,-0.3364141583442688,68908308,-0.3364141583442688
68.91091700,68910917,-0.34599095582962036,68910917,-0.34599095582962036
68.91290200,68912902,-0.3507794141769409,68912902,-0.3507794141769409
68.91551000,68915510,-0.3555678129196167,68915510,-0.3555678129196167
68.91811300,68918113,-0.3555678129196167,68918113,-0.3555678129196167
68.92071200,68920712,-0.3555678129196167,68920712,-0.3555678129196167
68.92331600,68923316,-0.3507794141769409,68923316,-0.3507794141769409
68.92592700,68925927,-0.34599095582962036,68925927,-0.34599095582962036
68.92852900,68928529,-0.3412025570869446,68928529,-0.3412025570869446
68.93114600,68931146,-0.3412025570869446,68931146,-0.3412025570869446
68.93313100,68933131,-0.34599095582962036,68933131,-0.34599095582962036
68.93573200,68935732,-0.34599095582962036,68935732,-0.34599095582962036
68.93833600,68938336,-0.34599095582962036,68938336,-0.34599095582962036
68.94094500,68940945,-0.34599095582962036,68940945,-0.34599095582962036
68.94355600,68943556,-0.34599095582962036,68943556,-0.34599095582962036
68.94616200,68946162,-0.3507794141769409,68946162,-0.3507794141769409
68.94876500,68948765,-0.3555678129196167,68948765,-0.3555678129196167
68.95137000,68951370,-0.3555678129196167,68951370,-0.3555678129196167
68.95335700,68953357,-0.3507794141769409,68953357,-0.3507794141769409
68.95595300,68955953,-0.34599095582962036,68955953,-0.34599095582962036
68.95855300,68958553,-0.3412025570869446,68958553,-0.3412025570869446
68.96116300,68961163,-0.3412025570869446,68961163,-0.3412025570869446
68.96376500,68963765,-0.34599095582962036,68963765,-0.34599095582962036
68.96637500,68966375,-0.34599095582962036,68966375,-0.34599095582962036
68.96897900,68968979,-0.3507794141769409,68968979,-0.3507794141769409
68.97158000,68971580,-0.3555678129196167,68971580,-0.3555678129196167
68.97355900,68973559,-0.3507794141769409,68973559,-0.3507794141769409
68.97616800,68976168,-0.3507794141769409,68976168,-0.3507794141769409
68.97876500,68978765,-0.3507794141769409,68978765,-0.3507794141769409
68.98137800,68981378,-0.34599095582962036,68981378,-0.34599095582962036
68.98398900,68983989,-0.3507794141769409,68983989,-0.3507794141769409
68.98661000,68986610,-0.3555678129196167,68986610,-0.3555678129196167
68.98921200,68989212,-0.3603562116622925,68989212,-0.3603562116622925
68.99182000,68991820,-0.3603562116622925,68991820,-0.3603562116622925
68.99380800,68993808,-0.3603562116622925,68993808,-0.3603562116622925
68.99640900,68996409,-0.3555678129196167,68996409,-0.3555678129196167
68.99901100,68999011,-0.3555678129196167,68999011,-0.3555678129196167
69.00162100,69001621,-0.3507794141769409,69001621,-0.3507794141769409
69.00422700,69004227,-0.34599095582962036,69004227,-0.34599095582962036
69.00683400,69006834,-0.34599095582962036,69006834,-0.34599095582962036
69.00943500,69009435,-0.34599095582962036,69009435,-0.34599095582962036
69.01204100,69012041,-0.3555678129196167,69012041,-0.3555678129196167
69.01402100,69014021,-0.3603562116622925,69014021,-0.3603562116622925
69.01662300,69016623,-0.36514461040496826,69016623,-0.36514461040496826
69.01923200,69019232,-0.36993300914764404,69019232,-0.36993300914764404
69.02183700,69021837,-0.36993300914764404,69021837,-0.36993300914764404
69.02444500,69024445,-0.36514461040496826,69024445,-0.36514461040496826
69.02706300,69027063,-0.3603562116622925,69027063,-0.3603562116622925
69.02966800,69029668,-0.3507794141769409,69029668,-0.3507794141769409
69.03228400,69032284,-0.34599095582962036,69032284,-0.34599095582962036
69.03427100,69034271,-0.3364141583442688,69034271,-0.3364141583442688
69.03686800,69036868,-0.3412025570869446,69036868,-0.3412025570869446
69.03947000,69039470,-0.3364141583442688,69039470,-0.3364141583442688
69.04207800,69042078,-0.3412025570869446,69042078,-0.3412025570869446
69.04467700,69044677,-0.34599095582962036,69044677,-0.34599095582962036
69.04729200,69047292,-0.3507794141769409,69047292,-0.3507794141769409
69.04989300,69049893,-0.3555678129196167,69049893,-0.3555678129196167
69.05250700,69052507,-0.3603562116622925,69052507,-0.3603562116622925
69.05448800,69054488,-0.3555678129196167,69054488,-0.3555678129196167
69.05708600,69057086,-0.3507794141769409,69057086,-0.3507794141769409
69.05968600,69059686,-0.3412025570869446,69059686,-0.3412025570869446
69.06228900,69062289,-0.3364141583442688,69062289,-0.3364141583442688
69.06489500,69064895,-0.3364141583442688,69064895,-0.3364141583442688
69.06751000,69067510,-0.3364141583442688,69067510,-0.3364141583442688
69.07011400,69070114,-0.3412025570869446,69070114,-0.3412025570869446
69.07272100,69072721,-0.34599095582962036,69072721,-0.34599095582962036
69.07470300,69074703,-0.3555678129196167,69074703,-0.3555678129196167
69.07735400,69077354,-0.3555678129196167,69077354,-0.3555678129196167
69.07990000,69079900,-0.3555678129196167,69079900,-0.3555678129196167
69.08252200,69082522,-0.3555678129196167,69082522,-0.3555678129196167
69.08512300,69085123,-0.3507794141769409,69085123,-0.3507794141769409
69.08773000,69087730,-0.3555678129196167,69087730,-0.3555678129196167
69.09033400,69090334,-0.3603562116622925,69090334,-0.3603562116622925
69.09293700,69092937,-0.3603562116622925,69092937,-0.3603562116622925
69.09491900,69094919,-0.36514461040496826,69094919,-0.36514461040496826
69.09753000,69097530,-0.3603562116622925,69097530,-0.3603562116622925
69.10012700,69100127,-0.3603562116622925,69100127,-0.3603562116622925
69.10274000,69102740,-0.3603562116622925,69102740,-0.3603562116622925
69.10534500,69105345,-0.3555678129196167,69105345,-0.3555678129196167
69.10794500,69107945,-0.3507794141769409,69107945,-0.3507794141769409
69.11054800,69110548,-0.3412025570869446,69110548,-0.3412025570869446
69.11316500,69113165,-0.331625759601593,69113165,-0.331625759601593
69.11514200,69115142,-0.331625759601593,69115142,-0.331625759601593
69.11774400,69117744,-0.32683736085891724,69117744,-0.32683736085891724
69.12035200,69120352,-0.32683736085891724,69120352,-0.32683736085891724
69.12295600,69122956,-0.331625759601593,69122956,-0.331625759601593
69.12556400,69125564,-0.3364141583442688,69125564,-0.3364141583442688
69.12817400,69128174,-0.34599095582962036,69128174,-0.34599095582962036
69.13077900,69130779,-0.3555678129196167,69130779,-0.3555678129196167
69.13339500,69133395,-0.36514461040496826,69133395,-0.36514461040496826
69.13537700,69135377,-0.36514461040496826,69135377,-0.36514461040496826
69.13798400,69137984,-0.36514461040496826,69137984,-0.36514461040496826
69.14059100,69140591,-0.3555678129196167,69140591,-0.3555678129196167
69.14319500,69143195,-0.3507794141769409,69143195,-0.3507794141769409
69.14579800,69145798,-0.3412025570869446,69145798,-0.3412025570869446
69.14840800,69148408,-0.331625759601593,69148408,-0.331625759601593
69.15100800,69151008,-0.331625759601593,69151008,-0.331625759601593
69.15361300,69153613,-0.331625759601593,69153613,-0.331625759601593
69.15560300,69155603,-0.3364141583442688,69155603,-0.3364141583442688
69.15820400,69158204,-0.3412025570869446,69158204,-0.3412025570869446
69.16081000,69160810,-0.34599095582962036,69160810,-0.34599095582962036
69.16341800,69163418,-0.34599095582962036,69163418,-0.34599095582962036
69.16601700,69166017,-0.3507794141769409,69166017,-0.3507794141769409
69.16862700,69168627,-0.3507794141769409,69168627,-0.3507794141769409
69.17123200,69171232,-0.3555678129196167,69171232,-0.3555678129196167
69.17383900,69173839,-0.3555678129196167,69173839,-0.3555678129196167
69.17643900,69176439,-0.36514461040496826,69176439,-0.36514461040496826
69.17841900,69178419,-0.36514461040496826,69178419,-0.36514461040496826
69.18101700,69181017,-0.36514461040496826,69181017,-0.36514461040496826
69.18363200,69183632,-0.3555678129196167,69183632,-0.3555678129196167
69.18623700,69186237,-0.34599095582962036,69186237,-0.34599095582962036
69.18884200,69188842,-0.3412025570869446,69188842,-0.3412025570869446
69.19144900,69191449,-0.3364141583442688,69191449,-0.3364141583442688
69.19405300,69194053,-0.331625759601593,69194053,-0.331625759601593
69.19665600,69196656,-0.3364141583442688,69196656,-0.3364141583442688
69.19864000,69198640,-0.3412025570869446,69198640,-0.3412025570869446
69.20124400,69201244,-0.34599095582962036,69201244,-0.34599095582962036
69.20385300,69203853,-0.3555678129196167,69203853,-0.3555678129196167
69.20645500,69206455,-0.36514461040496826,69206455,-0.36514461040496826
69.20906600,69209066,-0.36993300914764404,69209066,-0.36993300914764404
69.21166700,69211667,-0.36993300914764404,69211667,-0.36993300914764404
69.21427500,69214275,-0.3603562116622925,69214275,-0.3603562116622925
69.21687500,69216875,-0.3507794141769409,69216875,-0.3507794141769409
69.21885900,69218859,-0.34599095582962036,69218859,-0.34599095582962036
69.22145800,69221458,-0.3364141583442688,69221458,-0.3364141583442688
69.22406300,69224063,-0.34599095582962036,69224063,-0.34599095582962036
69.22666400,69226664,-0.34599095582962036,69226664,-0.34599095582962036
69.22928000,69229280,-0.3412025570869446,69229280,-0.3412025570869446
69.23188500,69231885,-0.3412025570869446,69231885,-0.3412025570869446
69.23449100,69234491,-0.3364141583442688,69234491,-0.3364141583442688
69.23708900,69237089,-0.3364141583442688,69237089,-0.3364141583442688
69.23907400,69239074,-0.3412025570869446,69239074,-0.3412025570869446
69.24167600,69241676,-0.34599095582962036,69241676,-0.34599095582962036
69.24429200,69244292,-0.3507794141769409,69244292,-0.3507794141769409
69.24689600,69246896,-0.3555678129196167,69246896,-0.3555678129196167
69.24950900,69249509,-0.3555678129196167,69249509,-0.3555678129196167
69.25211500,69252115,-0.3555678129196167,69252115,-0.3555678129196167
69.25472100,69254721,-0.36514461040496826,69254721,-0.36514461040496826
69.25732700,69257327,-0.36514461040496826,69257327,-0.36514461040496826
69.25931300,69259313,-0.36993300914764404,69259313,-0.36993300914764404
69.26192200,69261922,-0.36514461040496826,69261922,-0.36514461040496826
69.26452400,69264524,-0.3603562116622925,69264524,-0.3603562116622925
69.26713300,69267133,-0.34599095582962036,69267133,-0.34599095582962036
69.26973400,69269734,-0.34599095582962036,69269734,-0.34599095582962036
69.27234100,69272341,-0.3412025570869446,69272341,-0.3412025570869446
69.27494800,69274948,-0.34599095582962036,69274948,-0.34599095582962036
69.27755200,69277552,-0.34599095582962036,69277552,-0.34599095582962036
69.27953300,69279533,-0.3507794141769409,69279533,-0.3507794141769409
69.28213700,69282137,-0.3507794141769409,69282137,-0.3507794141769409
69.28474700,69284747,-0.3507794141769409,69284747,-0.3507794141769409
69.28734800,69287348,-0.3412025570869446,69287348,-0.3412025570869446
69.28995600,69289956,-0.3412025570869446,69289956,-0.3412025570869446
69.29255800,69292558,-0.3412025570869446,69292558,-0.3412025570869446
69.29516700,69295167,-0.34599095582962036,69295167,-0.34599095582962036
69.29776900,69297769,-0.3507794141769409,69297769,-0.3507794141769409
69.29975400,69299754,-0.3603562116622925,69299754,-0.3603562116622925
69.30235900,69302359,-0.3603562116622925,69302359,-0.3603562116622925
69.30496700,69304967,-0.36993300914764404,69304967,-0.36993300914764404
69.30756900,69307569,-0.36514461040496826,69307569,-0.36514461040496826
69.31017900,69310179,-0.3603562116622925,69310179,-0.3603562116622925
69.31277900,69312779,-0.34599095582962036,69312779,-0.34599095582962036
69.31539200,69315392,-0.3412025570869446,69315392,-0.3412025570869446
69.31799200,69317992,-0.3412025570869446,69317992,-0.3412025570869446
69.31996800,69319968,-0.3412025570869446,69319968,-0.3412025570869446
69.32257400,69322574,-0.3507794141769409,69322574,-0.3507794141769409
69.32518400,69325184,-0.3555678129196167,69325184,-0.3555678129196167
69.32779300,69327793,-0.3603562116622925,69327793,-0.3603562116622925
69.33039900,69330399,-0.3603562116622925,69330399,-0.3603562116622925
69.33300300,69333003,-0.3603562116622925,69333003,-0.3603562116622925
69.33562100,69335621,-0.3555678129196167,69335621,-0.3555678129196167
69.33822500,69338225,-0.3507794141769409,69338225,-0.3507794141769409
69.34020000,69340200,-0.3507794141769409,69340200,-0.3507794141769409
69.34280700,69342807,-0.3507794141769409,69342807,-0.3507794141769409
69.34541200,69345412,-0.3555678129196167,69345412,-0.3555678129196167
69.34803000,69348030,-0.3507794141769409,69348030,-0.3507794141769409
69.35063700,69350637,-0.34599095582962036,69350637,-0.34599095582962036
69.35323800,69353238,-0.3412025570869446,69353238,-0.3412025570869446
69.35585600,69355856,-0.331625759601593,69355856,-0.331625759601593
69.35846000,69358460,-0.32683736085891724,69358460,-0.32683736085891724
69.36043700,69360437,-0.32683736085891724,69360437,-0.32683736085891724
69.36304100,69363041,-0.331625759601593,69363041,-0.331625759601593
69.36564700,69365647,-0.3412025570869446,69365647,-0.3412025570869446
69.36825100,69368251,-0.34599095582962036,69368251,-0.34599095582962036
69.37085300,69370853,-0.3507794141769409,69370853,-0.3507794141769409
69.37346000,69373460,-0.3412025570869446,69373460,-0.3412025570869446
69.37607700,69376077,-0.3412025570869446,69376077,-0.3412025570869446
69.37868100,69378681,-0.3364141583442688,69378681,-0.3364141583442688
69.38065800,69380658,-0.3364141583442688,69380658,-0.3364141583442688
69.38325900,69383259,-0.3412025570869446,69383259,-0.3412025570869446
69.38586700,69385867,-0.3412025570869446,69385867,-0.3412025570869446
69.38847100,69388471,-0.3507794141769409,69388471,-0.3507794141769409
69.39108500,69391085,-0.3507794141769409,69391085,-0.3507794141769409
69.39368700,69393687,-0.3507794141769409,69393687,-0.3507794141769409
69.39628800,69396288,-0.3507794141769409,69396288,-0.3507794141769409
69.39888900,69398889,-0.3412025570869446,69398889,-0.3412025570869446
69.40087300,69400873,-0.3412025570869446,69400873,-0.3412025570869446
69.40346800,69403468,-0.3364141583442688,69403468,-0.3364141583442688
69.40607700,69406077,-0.3412025570869446,69406077,-0.3412025570869446
69.40868000,69408680,-0.34599095582962036,69408680,-0.34599095582962036
69.41129300,69411293,-0.3507794141769409,69411293,-0.3507794141769409
69.41389900,69413899,-0.3603562116622925,69413899,-0.3603562116622925
69.41651200,69416512,-0.3603562116622925,69416512,-0.3603562116622925
69.41911200,69419112,-0.36514461040496826,69419112,-0.36514461040496826
69.42109600,69421096,-0.3603562116622925,69421096,-0.3603562116622925
69.42369300,69423693,-0.3555678129196167,69423693,-0.3555678129196167
69.42630200,69426302,-0.3507794141769409,69426302,-0.3507794141769409
69.42890800,69428908,-0.34599095582962036,69428908,-0.34599095582962036
69.43152400,69431524,-0.3364141583442688,69431524,-0.3364141583442688
69.43412400,69434124,-0.331625759601593,69434124,-0.331625759601593
69.43673600,69436736,-0.32683736085891724,69436736,-0.32683736085891724
69.43933800,69439338,-0.32683736085891724,69439338,-0.32683736085891724
69.44131800,69441318,-0.32683736085891724,69441318,-0.32683736085891724
69.44391800,69443918,-0.331625759601593,69443918,-0.331625759601593
69.44652400,69446524,-0.34599095582962036,69446524,-0.34599095582962036
69.44912500,69449125,-0.3507794141769409,69449125,-0.3507794141769409
69.45174200,69451742,-0.3555678129196167,69451742,-0.3555678129196167
69.45435000,69454350,-0.3603562116622925,69454350,-0.3603562116622925
69.45695500,69456955,-0.3507794141769409,69456955,-0.3507794141769409
69.45955200,69459552,-0.3507794141769409,69459552,-0.3507794141769409
69.46216600,69462166,-0.34599095582962036,69462166,-0.34599095582962036
69.46414800,69464148,-0.3507794141769409,69464148,-0.3507794141769409
69.46675000,69466750,-0.3507794141769409,69466750,-0.3507794141769409
69.46936100,69469361,-0.3555678129196167,69469361,-0.3555678129196167
69.47196400,69471964,-0.3507794141769409,69471964,-0.3507794141769409
69.47456500,69474565,-0.34599095582962036,69474565,-0.34599095582962036
69.47717900,69477179,-0.34599095582962036,69477179,-0.34599095582962036
69.47978200,69479782,-0.34599095582962036,69479782,-0.34599095582962036
69.48176900,69481769,-0.3507794141769409,69481769,-0.3507794141769409
69.48437300,69484373,-0.3507794141769409,69484373,-0.3507794141769409
69.48697700,69486977,-0.3555678129196167,69486977,-0.3555678129196167
69.48958000,69489580,-0.3507794141769409,69489580,-0.3507794141769409
69.49218200,69492182,-0.34599095582962036,69492182,-0.34599095582962036
69.49479000,69494790,-0.34599095582962036,69494790,-0.34599095582962036
69.49740400,69497404,-0.34599095582962036,69497404,-0.34599095582962036
69.50000800,69500008,-0.34599095582962036,69500008,-0.34599095582962036
69.50261100,69502611,-0.34599095582962036,69502611,-0.34599095582962036
69.50459600,69504596,-0.3507794141769409,69504596,-0.3507794141769409
69.50720100,69507201,-0.3507794141769409,69507201,-0.3507794141769409
69.50981100,69509811,-0.3507794141769409,69509811,-0.3507794141769409
69.51241000,69512410,-0.3603562116622925,69512410,-0.3603562116622925
69.51501500,69515015,-0.3603562116622925,69515015,-0.3603562116622925
