timestamp,TimeUS,GYROx,TimeUS2,GYROx2
65.05973600,65059736,-0.005240557715296745
65.06233800,65062338,0.002216520719230175
65.06494200,65064942,-0.002044667024165392
65.06754400,65067544,-0.0009793699719011784
65.07014700,65070147,8.59266147017479e-05
65.07212400,65072124,0.002216520719230175
65.07472500,65074725,-0.0031099640764296055
65.07732600,65077326,0.002216520719230175
65.07992500,65079925,-0.0009793699719011784
65.08252800,65082528,-0.0009793699719011784
65.08512700,65085127,-0.002044667024165392
65.08772800,65087728,-0.006305854767560959
65.09033400,65090334,8.59266147017479e-05
65.09230900,,,,
65.23662500,65236625,-0.002044667024165392,65236625,-0.002044667024165392
65.23922900,65239229,8.59266147017479e-05,65239229,8.59266147017479e-05
65.24182600,65241826,-0.002044667024165392,65241826,-0.002044667024165392
65.24443200,65244432,-0.0031099640764296055,65244432,-0.0031099640764296055
65.24703400,65247034,0.0011512236669659615,65247034,0.0011512236669659615
65.24964500,65249645,8.59266147017479e-05,65249645,8.59266147017479e-05
65.25163000,65251630,-0.0009793699719011784,65251630,-0.0009793699719011784
65.25423200,65254232,-0.0009793699719011784,65254232,-0.0009793699719011784
65.25683600,65256836,0.0011512236669659615,65256836,0.0011512236669659615
65.25945000,65259450,-0.0031099640764296055,65259450,-0.0031099640764296055
65.26205100,65262051,-0.002044667024165392,65262051,-0.002044667024165392
65.26465600,65264656,-0.0031099640764296055,65264656,-0.0031099640764296055
65.26726300,65267263,0.0011512236669659615,65267263,0.0011512236669659615
65.26986800,65269868,0.0011512236669659615,65269868,0.0011512236669659615
65.27185400,65271854,8.59266147017479e-05,65271854,8.59266147017479e-05
65.27446200,65274462,-0.002044667024165392,65274462,-0.002044667024165392
65.27707100,65277071,0.002216520719230175,65277071,0.002216520719230175
65.27968700,65279687,-0.002044667024165392,65279687,-0.002044667024165392
65.28228800,65282288,-0.002044667024165392,65282288,-0.002044667024165392
65.28490200,65284902,-0.002044667024165392,65284902,-0.002044667024165392
65.28751200,65287512,-0.0031099640764296055,65287512,-0.0031099640764296055
65.29011800,65290118,-0.0031099640764296055,65290118,-0.0031099640764296055
65.29209600,65292096,0.002216520719230175,65292096,0.002216520719230175
65.29470000,65294700,-0.002044667024165392,65294700,-0.002044667024165392
65.29730200,65297302,-0.0009793699719011784,65297302,-0.0009793699719011784
65.29991100,65299911,-0.006305854767560959,65299911,-0.006305854767560959
65.30251400,65302514,-0.0009793699719011784,65302514,-0.0009793699719011784
65.30512000,65305120,-0.004175260663032532,65305120,-0.004175260663032532
65.30772900,65307729,0.0011512236669659615,65307729,0.0011512236669659615
65.31033900,65310339,-0.0031099640764296055,65310339,-0.0031099640764296055
65.31232100,65312321,0.0032818177714943886,65312321,0.0032818177714943886
65.31492700,65314927,-0.0031099640764296055,65314927,-0.0031099640764296055
65.31752600,65317526,-0.002044667024165392,65317526,-0.002044667024165392
65.32012700,65320127,0.002216520719230175,65320127,0.002216520719230175
65.32273100,65322731,8.59266147017479e-05,65322731,8.59266147017479e-05
65.32533800,65325338,-0.0009793699719011784,65325338,-0.0009793699719011784
65.32794100,65327941,8.59266147017479e-05,65327941,8.59266147017479e-05
65.33056900,65330569,8.59266147017479e-05,65330569,8.59266147017479e-05
65.33254700,65332547,-0.0031099640764296055,65332547,-0.0031099640764296055
65.33514700,65335147,-0.002044667024165392,65335147,-0.002044667024165392
65.33774900,65337749,-0.002044667024165392,65337749,-0.002044667024165392
65.34035900,65340359,8.59266147017479e-05,65340359,8.59266147017479e-05
65.34296100,65342961,-0.005240557715296745,65342961,-0.005240557715296745
65.34556600,65345566,0.002216520719230175,65345566,0.002216520719230175
65.34817100,65348171,-0.004175260663032532,65348171,-0.004175260663032532
65.35078500,65350785,-0.002044667024165392,65350785,-0.002044667024165392
65.35276800,65352768,8.59266147017479e-05,65352768,8.59266147017479e-05
65.35537200,65355372,-0.002044667024165392,65355372,-0.002044667024165392
65.35797000,65357970,-0.0009793699719011784,65357970,-0.0009793699719011784
65.36058000,65360580,-0.002044667024165392,65360580,-0.002044667024165392
65.36318300,65363183,-0.004175260663032532,65363183,-0.004175260663032532
65.36579200,65365792,-0.0009793699719011784,65365792,-0.0009793699719011784
65.36839300,65368393,-0.002044667024165392,65368393,-0.002044667024165392
65.37099900,65370999,-0.0031099640764296055,65370999,-0.0031099640764296055
65.37298000,65372980,-0.002044667024165392,65372980,-0.002044667024165392
65.37558600,65375586,0.0011512236669659615,65375586,0.0011512236669659615
65.37818600,65378186,-0.002044667024165392,65378186,-0.002044667024165392
65.38079600,65380796,0.002216520719230175,65380796,0.002216520719230175
65.38340100,65383401,-0.002044667024165392,65383401,-0.002044667024165392
65.38600300,65386003,0.002216520719230175,65386003,0.002216520719230175
65.38860600,65388606,-0.004175260663032532,65388606,-0.004175260663032532
65.39122600,65391226,-0.002044667024165392,65391226,-0.002044667024165392
65.39322100,65393221,8.59266147017479e-05,65393221,8.59266147017479e-05
65.39582200,65395822,-0.006305854767560959,65395822,-0.006305854767560959
65.39842100,65398421,-0.0009793699719011784,65398421,-0.0009793699719011784
65.40102400,65401024,0.002216520719230175,65401024,0.002216520719230175
65.40362600,65403626,-0.0031099640764296055,65403626,-0.0031099640764296055
65.40624700,65406247,-0.002044667024165392,65406247,-0.002044667024165392
65.40884600,65408846,-0.0009793699719011784,65408846,-0.0009793699719011784
65.41145000,65411450,8.59266147017479e-05,65411450,8.59266147017479e-05
65.41343700,65413437,-0.0031099640764296055,65413437,-0.0031099640764296055
65.41603900,65416039,-0.0009793699719011784,65416039,-0.0009793699719011784
65.41864200,65418642,8.59266147017479e-05,65418642,8.59266147017479e-05
65.42124900,65421249,-0.002044667024165392,65421249,-0.002044667024165392
65.42385900,65423859,-0.0009793699719011784,65423859,-0.0009793699719011784
65.42646100,65426461,-0.0031099640764296055,65426461,-0.0031099640764296055
65.42906500,65429065,8.59266147017479e-05,65429065,8.59266147017479e-05
65.43166700,65431667,-0.002044667024165392,65431667,-0.002044667024165392
65.43364700,65433647,-0.0031099640764296055,65433647,-0.0031099640764296055
65.43625600,65436256,0.0011512236669659615,65436256,0.0011512236669659615
65.43885900,65438859,-0.004175260663032532,65438859,-0.004175260663032532
65.44146700,65441467,0.0011512236669659615,65441467,0.0011512236669659615
65.44407000,65444070,-0.004175260663032532,65444070,-0.004175260663032532
65.44667700,65446677,-0.002044667024165392,65446677,-0.002044667024165392
65.44928800,65449288,-0.0031099640764296055,65449288,-0.0031099640764296055
65.45188500,65451885,-0.004175260663032532,65451885,-0.004175260663032532
65.45386300,65453863,-0.0031099640764296055,65453863,-0.0031099640764296055
65.45646900,65456469,8.59266147017479e-05,65456469,8.59266147017479e-05
65.45906800,65459068,-0.0009793699719011784,65459068,-0.0009793699719011784
65.46167700,65461677,0.002216520719230175,65461677,0.002216520719230175
65.46427900,65464279,-0.002044667024165392,65464279,-0.002044667024165392
65.46688600,65466886,-0.0009793699719011784,65466886,-0.0009793699719011784
65.46949400,65469494,8.59266147017479e-05,65469494,8.59266147017479e-05
65.47209900,65472099,-0.0031099640764296055,65472099,-0.0031099640764296055
65.47470100,65474701,-0.0009793699719011784,65474701,-0.0009793699719011784
65.47668400,65476684,-0.0031099640764296055,65476684,-0.0031099640764296055
65.47928900,65479289,0.002216520719230175,65479289,0.002216520719230175
65.48189700,65481897,-0.004175260663032532,65481897,-0.004175260663032532
65.48450900,65484509,8.59266147017479e-05,65484509,8.59266147017479e-05
65.48711300,65487113,0.002216520719230175,65487113,0.002216520719230175
65.48971700,65489717,-0.002044667024165392,65489717,-0.002044667024165392
65.49232300,65492323,-0.0009793699719011784,65492323,-0.0009793699719011784
65.49492300,65494923,0.0032818177714943886,65494923,0.0032818177714943886
65.49690200,65496902,0.0011512236669659615,65496902,0.0011512236669659615
65.49950600,65499506,-0.005240557715296745,65499506,-0.005240557715296745
65.50211700,65502117,8.59266147017479e-05,65502117,8.59266147017479e-05
65.50472200,65504722,0.0011512236669659615,65504722,0.0011512236669659615
65.50733100,65507331,-0.0009793699719011784,65507331,-0.0009793699719011784
65.50993500,65509935,-0.0009793699719011784,65509935,-0.0009793699719011784
65.51254100,65512541,-0.002044667024165392,65512541,-0.002044667024165392
65.51514300,65515143,-0.005240557715296745,65515143,-0.005240557715296745
65.51711900,65517119,-0.0009793699719011784,65517119,-0.0009793699719011784
65.51971900,65519719,-0.002044667024165392,65519719,-0.002044667024165392
65.52232300,65522323,-0.002044667024165392,65522323,-0.002044667024165392
65.52492700,65524927,-0.0031099640764296055,65524927,-0.0031099640764296055
65.52753400,65527534,-0.0009793699719011784,65527534,-0.0009793699719011784
65.53013400,65530134,0.0011512236669659615,65530134,0.0011512236669659615
65.53274600,65532746,8.59266147017479e-05,65532746,8.59266147017479e-05
65.53534600,65535346,-0.0009793699719011784,65535346,-0.0009793699719011784
65.53733300,65537333,-0.0009793699719011784,65537333,-0.0009793699719011784
65.53993200,65539932,-0.002044667024165392,65539932,-0.002044667024165392
65.54254300,65542543,0.002216520719230175,65542543,0.002216520719230175
65.54514300,65545143,-0.0009793699719011784,65545143,-0.0009793699719011784
65.54775900,65547759,-0.0009793699719011784,65547759,-0.0009793699719011784
65.55036300,65550363,-0.0009793699719011784,65550363,-0.0009793699719011784
65.55297800,65552978,-0.0009793699719011784,65552978,-0.0009793699719011784
65.55558300,65555583,-0.002044667024165392,65555583,-0.002044667024165392
65.55756000,65557560,0.0011512236669659615,65557560,0.0011512236669659615
65.56016200,65560162,-0.0009793699719011784,65560162,-0.0009793699719011784
65.56276800,65562768,-0.0009793699719011784,65562768,-0.0009793699719011784
65.56537500,65565375,-0.0031099640764296055,65565375,-0.0031099640764296055
65.56797900,65567979,8.59266147017479e-05,65567979,8.59266147017479e-05
65.57057900,65570579,-0.007371151819825172,65570579,-0.007371151819825172
65.57319000,65573190,-0.004175260663032532,65573190,-0.004175260663032532
65.57579400,65575794,0.0032818177714943886,65575794,0.0032818177714943886
65.57777100,65577771,-0.0009793699719011784,65577771,-0.0009793699719011784
65.58037300,65580373,0.002216520719230175,65580373,0.002216520719230175
65.58298700,65582987,8.59266147017479e-05,65582987,8.59266147017479e-05
65.58559200,65585592,-0.002044667024165392,65585592,-0.002044667024165392
65.58820700,65588207,-0.002044667024165392,65588207,-0.002044667024165392
65.59081000,65590810,8.59266147017479e-05,65590810,8.59266147017479e-05
65.59341400,65593414,-0.0009793699719011784,65593414,-0.0009793699719011784
65.59601700,65596017,-0.002044667024165392,65596017,-0.002044667024165392
65.59800500,65598005,0.0011512236669659615,65598005,0.0011512236669659615
65.60060700,65600607,-0.0009793699719011784,65600607,-0.0009793699719011784
65.60321100,65603211,-0.002044667024165392,65603211,-0.002044667024165392
65.60582200,65605822,-0.0009793699719011784,65605822,-0.0009793699719011784
65.60842400,65608424,-0.0009793699719011784,65608424,-0.0009793699719011784
65.61102300,65611023,-0.0031099640764296055,65611023,-0.0031099640764296055
65.61363200,65613632,-0.006305854767560959,65613632,-0.006305854767560959
65.61623900,65616239,8.59266147017479e-05,65616239,8.59266147017479e-05
65.61822400,65618224,8.59266147017479e-05,65618224,8.59266147017479e-05
65.62082700,65620827,-0.002044667024165392,65620827,-0.002044667024165392
65.62343200,65623432,-0.002044667024165392,65623432,-0.002044667024165392
65.62603900,65626039,-0.002044667024165392,65626039,-0.002044667024165392
65.62864100,65628641,8.59266147017479e-05,65628641,8.59266147017479e-05
65.63124100,65631241,0.0011512236669659615,65631241,0.0011512236669659615
65.63385500,65633855,-0.0031099640764296055,65633855,-0.0031099640764296055
65.63645800,65636458,8.59266147017479e-05,65636458,8.59266147017479e-05
65.63907000,65639070,8.59266147017479e-05,65639070,8.59266147017479e-05
65.64105100,65641051,0.002216520719230175,65641051,0.002216520719230175
65.64365400,65643654,-0.008436448872089386,65643654,-0.008436448872089386
65.64625900,65646259,0.0011512236669659615,65646259,0.0011512236669659615
65.64886600,65648866,-0.006305854767560959,65648866,-0.006305854767560959
65.65146700,65651467,0.0011512236669659615,65651467,0.0011512236669659615
65.65407900,65654079,-0.0031099640764296055,65654079,-0.0031099640764296055
65.65668300,65656683,-0.002044667024165392,65656683,-0.002044667024165392
65.65929400,65659294,-0.002044667024165392,65659294,-0.002044667024165392
65.66129000,65661290,0.0011512236669659615,65661290,0.0011512236669659615
65.66389100,65663891,8.59266147017479e-05,65663891,8.59266147017479e-05
65.66650200,65666502,0.0011512236669659615,65666502,0.0011512236669659615
65.66910700,65669107,-0.0031099640764296055,65669107,-0.0031099640764296055
65.67170800,65671708,8.59266147017479e-05,65671708,8.59266147017479e-05
65.67431400,65674314,-0.0009793699719011784,65674314,-0.0009793699719011784
65.67692300,65676923,-0.002044667024165392,65676923,-0.002044667024165392
65.67890000,65678900,0.0011512236669659615,65678900,0.0011512236669659615
65.68150400,65681504,8.59266147017479e-05,65681504,8.59266147017479e-05
65.68411100,65684111,8.59266147017479e-05,65684111,8.59266147017479e-05
65.68671600,65686716,0.002216520719230175,65686716,0.002216520719230175
65.68932300,65689323,-0.002044667024165392,65689323,-0.002044667024165392
65.69192700,65691927,-0.0009793699719011784,65691927,-0.0009793699719011784
65.69453800,65694538,0.0011512236669659615,65694538,0.0011512236669659615
65.69714400,65697144,-0.004175260663032532,65697144,-0.004175260663032532
65.69912100,65699121,-0.0009793699719011784,65699121,-0.0009793699719011784
65.70172000,65701720,-0.0009793699719011784,65701720,-0.0009793699719011784
65.70432800,65704328,-0.0031099640764296055,65704328,-0.0031099640764296055
65.70693800,65706938,8.59266147017479e-05,65706938,8.59266147017479e-05
65.70954600,65709546,-0.002044667024165392,65709546,-0.002044667024165392
65.71214500,65712145,0.0011512236669659615,65712145,0.0011512236669659615
65.71474900,65714749,8.59266147017479e-05,65714749,8.59266147017479e-05
65.71735200,65717352,-0.002044667024165392,65717352,-0.002044667024165392
65.71996200,65719962,8.59266147017479e-05,65719962,8.59266147017479e-05
65.72195800,65721958,0.0011512236669659615,65721958,0.0011512236669659615
65.72456200,65724562,-0.004175260663032532,65724562,-0.004175260663032532
65.72717600,65727176,-0.0031099640764296055,65727176,-0.0031099640764296055
65.72978100,65729781,8.59266147017479e-05,65729781,8.59266147017479e-05
65.73238400,65732384,-0.005240557715296745,65732384,-0.005240557715296745
65.73499100,65734991,0.0032818177714943886,65734991,0.0032818177714943886
65.73759200,65737592,-0.004175260663032532,65737592,-0.004175260663032532
65.74019400,65740194,-0.0009793699719011784,65740194,-0.0009793699719011784
65.74217900,65742179,-0.0031099640764296055,65742179,-0.0031099640764296055
65.74478500,65744785,-0.0009793699719011784,65744785,-0.0009793699719011784
65.74738700,65747387,-0.002044667024165392,65747387,-0.002044667024165392
65.74999100,65749991,-0.0031099640764296055,65749991,-0.0031099640764296055
65.75259400,65752594,8.59266147017479e-05,65752594,8.59266147017479e-05
65.75520300,65755203,8.59266147017479e-05,65755203,8.59266147017479e-05
65.75780600,65757806,-0.0031099640764296055,65757806,-0.0031099640764296055
65.76041000,65760410,-0.002044667024165392,65760410,-0.002044667024165392
65.76239600,65762396,8.59266147017479e-05,65762396,8.59266147017479e-05
65.76500300,65765003,-0.0009793699719011784,65765003,-0.0009793699719011784
65.76761100,65767611,-0.0009793699719011784,65767611,-0.0009793699719011784
65.77021600,65770216,-0.002044667024165392,65770216,-0.002044667024165392
65.77282000,65772820,0.0011512236669659615,65772820,0.0011512236669659615
65.77543000,65775430,-0.004175260663032532,65775430,-0.004175260663032532
65.77803600,65778036,-0.0009793699719011784,65778036,-0.0009793699719011784
65.78064200,65780642,-0.0031099640764296055,65780642,-0.0031099640764296055
65.78262400,65782624,8.59266147017479e-05,65782624,8.59266147017479e-05
65.78522900,65785229,-0.002044667024165392,65785229,-0.002044667024165392
65.78783500,65787835,0.0011512236669659615,65787835,0.0011512236669659615
65.79044200,65790442,8.59266147017479e-05,65790442,8.59266147017479e-05
65.79304200,65793042,-0.0031099640764296055,65793042,-0.0031099640764296055
65.79564800,65795648,-0.0031099640764296055,65795648,-0.0031099640764296055
65.79825200,65798252,-0.0009793699719011784,65798252,-0.0009793699719011784
65.80086800,65800868,8.59266147017479e-05,65800868,8.59266147017479e-05
65.80284600,65802846,0.0011512236669659615,65802846,0.0011512236669659615
65.80545200,65805452,-0.002044667024165392,65805452,-0.002044667024165392
65.80806400,65808064,8.59266147017479e-05,65808064,8.59266147017479e-05
65.81066900,65810669,-0.005240557715296745,65810669,-0.005240557715296745
65.81327300,65813273,-0.0009793699719011784,65813273,-0.0009793699719011784
65.81587800,65815878,8.59266147017479e-05,65815878,8.59266147017479e-05
65.81848900,65818489,-0.002044667024165392,65818489,-0.002044667024165392
65.82109200,65821092,-0.004175260663032532,65821092,-0.004175260663032532
65.82307700,65823077,-0.0031099640764296055,65823077,-0.0031099640764296055
65.82568100,65825681,-0.0031099640764296055,65825681,-0.0031099640764296055
65.82829400,65828294,0.0032818177714943886,65828294,0.0032818177714943886
65.83089300,65830893,8.59266147017479e-05,65830893,8.59266147017479e-05
65.83350200,65833502,0.0032818177714943886,65833502,0.0032818177714943886
65.83610600,65836106,-0.002044667024165392,65836106,-0.002044667024165392
65.83871200,65838712,-0.0031099640764296055,65838712,-0.0031099640764296055
65.84131500,65841315,8.59266147017479e-05,65841315,8.59266147017479e-05
65.84329300,65843293,0.0011512236669659615,65843293,0.0011512236669659615
65.84589400,65845894,-0.0009793699719011784,65845894,-0.0009793699719011784
65.84850100,65848501,8.59266147017479e-05,65848501,8.59266147017479e-05
65.85110200,65851102,8.59266147017479e-05,65851102,8.59266147017479e-05
65.85370900,65853709,-0.0031099640764296055,65853709,-0.0031099640764296055
65.85630900,65856309,-0.002044667024165392,65856309,-0.002044667024165392
65.85891000,65858910,-0.004175260663032532,65858910,-0.004175260663032532
65.86151800,65861518,8.59266147017479e-05,65861518,8.59266147017479e-05
65.86350000,65863500,-0.002044667024165392,65863500,-0.002044667024165392
65.86610200,65866102,-0.002044667024165392,65866102,-0.002044667024165392
65.86870600,65868706,-0.0031099640764296055,65868706,-0.0031099640764296055
65.87130600,65871306,-0.0031099640764296055,65871306,-0.0031099640764296055
65.87390600,65873906,-0.002044667024165392,65873906,-0.002044667024165392
65.87651200,65876512,0.002216520719230175,65876512,0.002216520719230175
65.87911800,65879118,0.0011512236669659615,65879118,0.0011512236669659615
65.88172400,65881724,-0.0009793699719011784,65881724,-0.0009793699719011784
65.88370900,65883709,0.0011512236669659615,65883709,0.0011512236669659615
65.88631300,65886313,-0.002044667024165392,65886313,-0.002044667024165392
65.88892200,65888922,-0.0031099640764296055,65888922,-0.0031099640764296055
65.89152500,65891525,0.002216520719230175,65891525,0.002216520719230175
65.89412800,65894128,8.59266147017479e-05,65894128,8.59266147017479e-05
65.89673900,65896739,-0.0031099640764296055,65896739,-0.0031099640764296055
65.89934200,65899342,-0.005240557715296745,65899342,-0.005240557715296745
65.90194800,65901948,-0.002044667024165392,65901948,-0.002044667024165392
65.90455100,65904551,-0.0009793699719011784,65904551,-0.0009793699719011784
65.90652800,65906528,-0.004175260663032532,65906528,-0.004175260663032532
65.90913600,65909136,-0.0031099640764296055,65909136,-0.0031099640764296055
65.91173600,65911736,8.59266147017479e-05,65911736,8.59266147017479e-05
65.91433800,65914338,-0.004175260663032532,65914338,-0.004175260663032532
65.91694900,65916949,8.59266147017479e-05,65916949,8.59266147017479e-05
65.91955100,65919551,-0.004175260663032532,65919551,-0.004175260663032532
65.92216200,65922162,-0.0009793699719011784,65922162,-0.0009793699719011784
65.92476600,65924766,-0.0009793699719011784,65924766,-0.0009793699719011784
65.92674000,65926740,-0.0009793699719011784,65926740,-0.0009793699719011784
65.92934500,65929345,-0.002044667024165392,65929345,-0.002044667024165392
65.93196000,65931960,-0.0031099640764296055,65931960,-0.0031099640764296055
65.93456200,65934562,-0.0009793699719011784,65934562,-0.0009793699719011784
65.93716500,65937165,-0.002044667024165392,65937165,-0.002044667024165392
65.93977200,65939772,8.59266147017479e-05,65939772,8.59266147017479e-05
65.94238600,65942386,-0.0031099640764296055,65942386,-0.0031099640764296055
65.94499100,65944991,-0.004175260663032532,65944991,-0.004175260663032532
65.94697000,65946970,0.002216520719230175,65946970,0.002216520719230175
65.94957600,65949576,-0.0009793699719011784,65949576,-0.0009793699719011784
65.95218300,65952183,8.59266147017479e-05,65952183,8.59266147017479e-05
65.95479000,65954790,-0.0009793699719011784,65954790,-0.0009793699719011784
65.95739800,65957398,-0.0009793699719011784,65957398,-0.0009793699719011784
65.96000300,65960003,-0.002044667024165392,65960003,-0.002044667024165392
65.96260900,65962609,0.0011512236669659615,65962609,0.0011512236669659615
65.96521100,65965211,8.59266147017479e-05,65965211,8.59266147017479e-05
65.96718700,65967187,-0.002044667024165392,65967187,-0.002044667024165392
65.96979100,65969791,-0.0009793699719011784,65969791,-0.0009793699719011784
65.97240000,65972400,-0.0009793699719011784,65972400,-0.0009793699719011784
65.97500500,65975005,8.59266147017479e-05,65975005,8.59266147017479e-05
65.97760900,65977609,-0.0009793699719011784,65977609,-0.0009793699719011784
65.98022000,65980220,8.59266147017479e-05,65980220,8.59266147017479e-05
65.98282500,65982825,-0.0031099640764296055,65982825,-0.0031099640764296055
65.98542900,65985429,-0.0009793699719011784,65985429,-0.0009793699719011784
65.98740500,65987405,-0.0031099640764296055,65987405,-0.0031099640764296055
65.99000900,65990009,8.59266147017479e-05,65990009,8.59266147017479e-05
65.99261400,65992614,-0.005240557715296745,65992614,-0.005240557715296745
65.99522200,65995222,0.0011512236669659615,65995222,0.0011512236669659615
65.99783000,65997830,-0.002044667024165392,65997830,-0.002044667024165392
66.00043200,66000432,-0.002044667024165392,66000432,-0.002044667024165392
66.00304400,66003044,-0.002044667024165392,66003044,-0.002044667024165392
66.00564700,66005647,-0.002044667024165392,66005647,-0.002044667024165392
66.00762500,66007625,-0.0009793699719011784,66007625,-0.0009793699719011784
66.01022800,66010228,8.59266147017479e-05,66010228,8.59266147017479e-05
66.01283100,66012831,8.59266147017479e-05,66012831,8.59266147017479e-05
66.01543200,66015432,0.002216520719230175,66015432,0.002216520719230175
66.01804200,66018042,-0.004175260663032532,66018042,-0.004175260663032532
66.02064200,66020642,0.002216520719230175,66020642,0.002216520719230175
66.02324600,66023246,-0.0009793699719011784,66023246,-0.0009793699719011784
66.02585500,66025855,-0.006305854767560959,66025855,-0.006305854767560959
66.02783000,66027830,-0.0009793699719011784,66027830,-0.0009793699719011784
66.03043100,66030431,8.59266147017479e-05,66030431,8.59266147017479e-05
66.03304500,66033045,-0.0009793699719011784,66033045,-0.0009793699719011784
66.03564600,66035646,-0.0009793699719011784,66035646,-0.0009793699719011784
66.03825700,66038257,-0.0009793699719011784,66038257,-0.0009793699719011784
66.04086000,66040860,8.59266147017479e-05,66040860,8.59266147017479e-05
66.04346600,66043466,-0.0031099640764296055,66043466,-0.0031099640764296055
66.04606800,66046068,0.0011512236669659615,66046068,0.0011512236669659615
66.04868500,66048685,-0.0009793699719011784,66048685,-0.0009793699719011784
66.05067100,66050671,-0.0031099640764296055,66050671,-0.0031099640764296055
66.05327300,66053273,-0.002044667024165392,66053273,-0.002044667024165392
66.05587600,66055876,-0.0009793699719011784,66055876,-0.0009793699719011784
66.05848300,66058483,-0.0009793699719011784,66058483,-0.0009793699719011784
66.06108900,66061089,-0.002044667024165392,66061089,-0.002044667024165392
66.06369400,66063694,-0.0009793699719011784,66063694,-0.0009793699719011784
66.06629700,66066297,-0.0009793699719011784,66066297,-0.0009793699719011784
66.06890700,66068907,-0.002044667024165392,66068907,-0.002044667024165392
66.07090600,66070906,-0.004175260663032532,66070906,-0.004175260663032532
66.07351300,66073513,8.59266147017479e-05,66073513,8.59266147017479e-05
66.07611600,66076116,8.59266147017479e-05,66076116,8.59266147017479e-05
66.07872100,66078721,-0.0031099640764296055,66078721,-0.0031099640764296055
66.08132600,66081326,-0.0009793699719011784,66081326,-0.0009793699719011784
66.08393300,66083933,-0.0009793699719011784,66083933,-0.0009793699719011784
66.08653600,66086536,-0.0009793699719011784,66086536,-0.0009793699719011784
66.08851300,66088513,-0.0031099640764296055,66088513,-0.0031099640764296055
66.09112000,66091120,-0.0009793699719011784,66091120,-0.0009793699719011784
66.09372900,66093729,8.59266147017479e-05,66093729,8.59266147017479e-05
66.09633500,66096335,-0.002044667024165392,66096335,-0.002044667024165392
66.09894800,66098948,-0.0009793699719011784,66098948,-0.0009793699719011784
66.10155900,66101559,-0.0009793699719011784,66101559,-0.0009793699719011784
66.10417700,66104177,-0.002044667024165392,66104177,-0.002044667024165392
66.10677700,66106777,-0.006305854767560959,66106777,-0.006305854767560959
66.10875700,66108757,0.0011512236669659615,66108757,0.0011512236669659615
66.11136100,66111361,-0.0009793699719011784,66111361,-0.0009793699719011784
66.11396100,66113961,-0.002044667024165392,66113961,-0.002044667024165392
66.11656800,66116568,-0.006305854767560959,66116568,-0.006305854767560959
66.11918200,66119182,0.004347114823758602,66119182,0.004347114823758602
66.12178500,66121785,-0.005240557715296745,66121785,-0.005240557715296745
66.12439100,66124391,8.59266147017479e-05,66124391,8.59266147017479e-05
66.12699700,66126997,-0.0031099640764296055,66126997,-0.0031099640764296055
66.12897200,66128972,-0.0031099640764296055,66128972,-0.0031099640764296055
66.13157500,66131575,-0.0009793699719011784,66131575,-0.0009793699719011784
66.13418800,66134188,-0.0009793699719011784,66134188,-0.0009793699719011784
66.13678800,66136788,0.0011512236669659615,66136788,0.0011512236669659615
66.13939700,66139397,-0.004175260663032532,66139397,-0.004175260663032532
66.14200600,66142006,8.59266147017479e-05,66142006,8.59266147017479e-05
66.14461900,66144619,0.0011512236669659615,66144619,0.0011512236669659615
66.14722000,66147220,8.59266147017479e-05,66147220,8.59266147017479e-05
66.14919900,66149199,0.0011512236669659615,66149199,0.0011512236669659615
66.15180100,66151801,-0.0009793699719011784,66151801,-0.0009793699719011784
66.15440900,66154409,-0.0031099640764296055,66154409,-0.0031099640764296055
66.15700800,66157008,-0.002044667024165392,66157008,-0.002044667024165392
66.15962000,66159620,-0.0031099640764296055,66159620,-0.0031099640764296055
66.16222200,66162222,-0.0009793699719011784,66162222,-0.0009793699719011784
66.16482800,66164828,-0.0031099640764296055,66164828,-0.0031099640764296055
66.16743800,66167438,-0.004175260663032532,66167438,-0.004175260663032532
66.17004300,66170043,-0.0031099640764296055,66170043,-0.0031099640764296055
66.17202100,66172021,-0.0009793699719011784,66172021,-0.0009793699719011784
66.17463400,66174634,-0.0009793699719011784,66174634,-0.0009793699719011784
66.17723700,66177237,0.0011512236669659615,66177237,0.0011512236669659615
66.17985400,66179854,-0.005240557715296745,66179854,-0.005240557715296745
66.18245300,66182453,-0.0009793699719011784,66182453,-0.0009793699719011784
66.18506700,66185067,-0.006305854767560959,66185067,-0.006305854767560959
66.18767000,66187670,-0.0009793699719011784,66187670,-0.0009793699719011784
66.18965400,66189654,-0.0031099640764296055,66189654,-0.0031099640764296055
66.19226000,66192260,8.59266147017479e-05,66192260,8.59266147017479e-05
66.19486800,66194868,0.0011512236669659615,66194868,0.0011512236669659615
66.19746900,66197469,-0.0031099640764296055,66197469,-0.0031099640764296055
66.20008200,66200082,-0.004175260663032532,66200082,-0.004175260663032532
66.20268500,66202685,8.59266147017479e-05,66202685,8.59266147017479e-05
66.20530400,66205304,-0.0009793699719011784,66205304,-0.0009793699719011784
66.20791200,66207912,-0.002044667024165392,66207912,-0.002044667024165392
66.20988700,66209887,8.59266147017479e-05,66209887,8.59266147017479e-05
66.21248800,66212488,-0.0009793699719011784,66212488,-0.0009793699719011784
66.21508900,66215089,-0.0009793699719011784,66215089,-0.0009793699719011784
66.21769700,66217697,8.59266147017479e-05,66217697,8.59266147017479e-05
66.22030300,66220303,-0.0009793699719011784,66220303,-0.0009793699719011784
66.22290800,66222908,8.59266147017479e-05,66222908,8.59266147017479e-05
66.22551000,66225510,8.59266147017479e-05,66225510,8.59266147017479e-05
66.22811100,66228111,-0.002044667024165392,66228111,-0.002044667024165392
66.23072000,66230720,-0.002044667024165392,66230720,-0.002044667024165392
66.23270500,66232705,-0.004175260663032532,66232705,-0.004175260663032532
66.23531800,66235318,0.0011512236669659615,66235318,0.0011512236669659615
66.23792000,66237920,0.0011512236669659615,66237920,0.0011512236669659615
66.24052300,66240523,-0.0031099640764296055,66240523,-0.0031099640764296055
66.24312200,66243122,0.002216520719230175,66243122,0.002216520719230175
66.24572600,66245726,8.59266147017479e-05,66245726,8.59266147017479e-05
66.24832700,66248327,-0.005240557715296745,66248327,-0.005240557715296745
66.25093900,66250939,-0.0009793699719011784,66250939,-0.0009793699719011784
66.25291600,66252916,0.0032818177714943886,66252916,0.0032818177714943886
66.25572600,66255726,-0.0031099640764296055,66255726,-0.0031099640764296055
66.25832700,66258327,-0.004175260663032532,66258327,-0.004175260663032532
66.26094400,66260944,0.0011512236669659615,66260944,0.0011512236669659615
66.26354600,66263546,0.0011512236669659615,66263546,0.0011512236669659615
66.26552500,66265525,0.0011512236669659615,66265525,0.0011512236669659615
66.26812700,66268127,0.0011512236669659615,66268127,0.0011512236669659615
66.27073300,66270733,8.59266147017479e-05,66270733,8.59266147017479e-05
66.27333500,66273335,0.0011512236669659615,66273335,0.0011512236669659615
66.27594900,66275949,-0.0009793699719011784,66275949,-0.0009793699719011784
66.27855300,66278553,-0.004175260663032532,66278553,-0.004175260663032532
66.28116400,66281164,8.59266147017479e-05,66281164,8.59266147017479e-05
66.28376800,66283768,0.0011512236669659615,66283768,0.0011512236669659615
66.28574900,66285749,-0.0009793699719011784,66285749,-0.0009793699719011784
66.28835100,66288351,8.59266147017479e-05,66288351,8.59266147017479e-05
66.29095800,66290958,-0.002044667024165392,66290958,-0.002044667024165392
66.29356100,66293561,-0.004175260663032532,66293561,-0.004175260663032532
66.29616900,66296169,-0.002044667024165392,66296169,-0.002044667024165392
66.29877600,66298776,8.59266147017479e-05,66298776,8.59266147017479e-05
66.30139400,66301394,-0.0031099640764296055,66301394,-0.0031099640764296055
66.30399800,66303998,-0.002044667024165392,66303998,-0.002044667024165392
66.30597600,66305976,-0.0009793699719011784,66305976,-0.0009793699719011784
66.30858100,66308581,-0.0009793699719011784,66308581,-0.0009793699719011784
66.31119000,66311190,-0.0009793699719011784,66311190,-0.0009793699719011784
66.31380500,66313805,-0.0031099640764296055,66313805,-0.0031099640764296055
66.31640800,66316408,-0.0031099640764296055,66316408,-0.0031099640764296055
66.31900800,66319008,-0.002044667024165392,66319008,-0.002044667024165392
66.32161700,66321617,0.0011512236669659615,66321617,0.0011512236669659615
66.32422000,66324220,8.59266147017479e-05,66324220,8.59266147017479e-05
66.32619900,66326199,8.59266147017479e-05,66326199,8.59266147017479e-05
66.32880200,66328802,-0.0009793699719011784,66328802,-0.0009793699719011784
66.33141000,66331410,0.0032818177714943886,66331410,0.0032818177714943886
66.33401300,66334013,-0.0031099640764296055,66334013,-0.0031099640764296055
66.33661500,66336615,-0.004175260663032532,66336615,-0.004175260663032532
66.33922200,66339222,0.002216520719230175,66339222,0.002216520719230175
66.34182700,66341827,-0.002044667024165392,66341827,-0.002044667024165392
66.34442800,66344428,-0.0009793699719011784,66344428,-0.0009793699719011784
66.34704600,66347046,-0.002044667024165392,66347046,-0.002044667024165392
66.34903000,66349030,0.002216520719230175,66349030,0.002216520719230175
66.35163100,66351631,-0.005240557715296745,66351631,-0.005240557715296745
66.35424700,66354247,8.59266147017479e-05,66354247,8.59266147017479e-05
66.35684700,66356847,8.59266147017479e-05,66356847,8.59266147017479e-05
66.35944700,66359447,0.0011512236669659615,66359447,0.0011512236669659615
66.36205500,66362055,-0.0009793699719011784,66362055,-0.0009793699719011784
66.36466100,66364661,-0.0009793699719011784,66364661,-0.0009793699719011784
66.36727500,66367275,-0.002044667024165392,66367275,-0.002044667024165392
66.36925700,66369257,-0.002044667024165392,66369257,-0.002044667024165392
66.37186400,66371864,0.002216520719230175,66371864,0.002216520719230175
66.37447300,66374473,-0.0031099640764296055,66374473,-0.0031099640764296055
66.37707600,66377076,0.0011512236669659615,66377076,0.0011512236669659615
66.37967900,66379679,8.59266147017479e-05,66379679,8.59266147017479e-05
66.38228900,66382289,-0.002044667024165392,66382289,-0.002044667024165392
66.38489500,66384895,-0.0009793699719011784,66384895,-0.0009793699719011784
66.38687600,66386876,-0.0009793699719011784,66386876,-0.0009793699719011784
66.38947800,66389478,8.59266147017479e-05,66389478,8.59266147017479e-05
66.39208300,66392083,0.0032818177714943886,66392083,0.0032818177714943886
66.39468800,66394688,-0.0031099640764296055,66394688,-0.0031099640764296055
66.39729300,66397293,-0.002044667024165392,66397293,-0.002044667024165392
66.39989500,66399895,-0.002044667024165392,66399895,-0.002044667024165392
66.40250500,66402505,-0.0009793699719011784,66402505,-0.0009793699719011784
66.40510600,66405106,8.59266147017479e-05,66405106,8.59266147017479e-05
66.40771100,66407711,-0.004175260663032532,66407711,-0.004175260663032532
66.40970500,66409705,-0.002044667024165392,66409705,-0.002044667024165392
66.41230500,66412305,-0.0031099640764296055,66412305,-0.0031099640764296055
66.41491900,66414919,-0.0009793699719011784,66414919,-0.0009793699719011784
66.41752000,66417520,8.59266147017479e-05,66417520,8.59266147017479e-05
66.42012400,66420124,-0.004175260663032532,66420124,-0.004175260663032532
66.42273600,66422736,-0.002044667024165392,66422736,-0.002044667024165392
66.42533800,66425338,8.59266147017479e-05,66425338,8.59266147017479e-05
66.42795400,66427954,-0.002044667024165392,66427954,-0.002044667024165392
66.42993400,66429934,0.0011512236669659615,66429934,0.0011512236669659615
66.43253300,66432533,-0.0031099640764296055,66432533,-0.0031099640764296055
66.43513900,66435139,0.0011512236669659615,66435139,0.0011512236669659615
66.43774800,66437748,-0.0009793699719011784,66437748,-0.0009793699719011784
66.44034800,66440348,8.59266147017479e-05,66440348,8.59266147017479e-05
66.44295300,66442953,-0.0031099640764296055,66442953,-0.0031099640764296055
66.44555600,66445556,8.59266147017479e-05,66445556,8.59266147017479e-05
66.44817000,66448170,-0.004175260663032532,66448170,-0.004175260663032532
66.45014800,66450148,-0.0031099640764296055,66450148,-0.0031099640764296055
66.45275700,66452757,0.002216520719230175,66452757,0.002216520719230175
66.45536500,66455365,0.0011512236669659615,66455365,0.0011512236669659615
66.45796800,66457968,-0.0031099640764296055,66457968,-0.0031099640764296055
66.46057200,66460572,-0.0031099640764296055,66460572,-0.0031099640764296055
66.46318700,66463187,-0.005240557715296745,66463187,-0.005240557715296745
66.46578400,66465784,0.0011512236669659615,66465784,0.0011512236669659615
66.46840400,66468404,-0.0009793699719011784,66468404,-0.0009793699719011784
66.47038700,66470387,-0.0031099640764296055,66470387,-0.0031099640764296055
66.47298700,66472987,-0.0009793699719011784,66472987,-0.0009793699719011784
66.47559700,66475597,-0.0031099640764296055,66475597,-0.0031099640764296055
66.47820000,66478200,-0.002044667024165392,66478200,-0.002044667024165392
66.48080500,66480805,-0.0009793699719011784,66480805,-0.0009793699719011784
66.48340900,66483409,-0.004175260663032532,66483409,-0.004175260663032532
66.48602100,66486021,8.59266147017479e-05,66486021,8.59266147017479e-05
66.48863100,66488631,0.0032818177714943886,66488631,0.0032818177714943886
66.49062400,66490624,-0.0031099640764296055,66490624,-0.0031099640764296055
66.49322500,66493225,0.002216520719230175,66493225,0.002216520719230175
66.49583500,66495835,8.59266147017479e-05,66495835,8.59266147017479e-05
66.49843900,66498439,-0.0031099640764296055,66498439,-0.0031099640764296055
66.50104400,66501044,0.0011512236669659615,66501044,0.0011512236669659615
66.50364800,66503648,-0.0009793699719011784,66503648,-0.0009793699719011784
66.50625600,66506256,0.0011512236669659615,66506256,0.0011512236669659615
66.50885700,66508857,-0.002044667024165392,66508857,-0.002044667024165392
66.51083800,66510838,-0.0009793699719011784,66510838,-0.0009793699719011784
66.51344400,66513444,8.59266147017479e-05,66513444,8.59266147017479e-05
66.51606000,66516060,-0.0031099640764296055,66516060,-0.0031099640764296055
66.51866200,66518662,-0.0031099640764296055,66518662,-0.0031099640764296055
66.52126300,66521263,-0.002044667024165392,66521263,-0.002044667024165392
66.52387500,66523875,-0.0031099640764296055,66523875,-0.0031099640764296055
66.52647500,66526475,-0.002044667024165392,66526475,-0.002044667024165392
66.52908300,66529083,-0.0031099640764296055,66529083,-0.0031099640764296055
66.53106600,66531066,0.002216520719230175,66531066,0.002216520719230175
66.53367000,66533670,-0.006305854767560959,66533670,-0.006305854767560959
66.53627500,66536275,-0.0031099640764296055,66536275,-0.0031099640764296055
66.53888300,66538883,-0.0009793699719011784,66538883,-0.0009793699719011784
66.54148400,66541484,8.59266147017479e-05,66541484,8.59266147017479e-05
66.54409900,66544099,-0.004175260663032532,66544099,-0.004175260663032532
66.54670400,66546704,8.59266147017479e-05,66546704,8.59266147017479e-05
66.54931300,66549313,0.0011512236669659615,66549313,0.0011512236669659615
66.55129900,66551299,-0.0031099640764296055,66551299,-0.0031099640764296055
66.55390300,66553903,-0.005240557715296745,66553903,-0.005240557715296745
66.55651700,66556517,-0.0009793699719011784,66556517,-0.0009793699719011784
66.55912200,66559122,-0.0031099640764296055,66559122,-0.0031099640764296055
66.56172500,66561725,-0.0031099640764296055,66561725,-0.0031099640764296055
66.56433400,66564334,0.002216520719230175,66564334,0.002216520719230175
66.56693800,66566938,8.59266147017479e-05,66566938,8.59266147017479e-05
66.56955400,66569554,8.59266147017479e-05,66569554,8.59266147017479e-05
66.57153300,66571533,8.59266147017479e-05,66571533,8.59266147017479e-05
66.57413600,66574136,-0.005240557715296745,66574136,-0.005240557715296745
66.57675000,66576750,-0.0031099640764296055,66576750,-0.0031099640764296055
66.57935300,66579353,-0.0009793699719011784,66579353,-0.0009793699719011784
66.58195200,66581952,-0.0009793699719011784,66581952,-0.0009793699719011784
66.58455800,66584558,-0.0009793699719011784,66584558,-0.0009793699719011784
66.58716500,66587165,-0.005240557715296745,66587165,-0.005240557715296745
66.58977300,66589773,-0.002044667024165392,66589773,-0.002044667024165392
66.59176700,66591767,-0.004175260663032532,66591767,-0.004175260663032532
66.59437000,66594370,-0.0009793699719011784,66594370,-0.0009793699719011784
66.59698200,66596982,-0.004175260663032532,66596982,-0.004175260663032532
66.59958400,66599584,-0.002044667024165392,66599584,-0.002044667024165392
66.60218500,66602185,-0.0009793699719011784,66602185,-0.0009793699719011784
66.60479900,66604799,-0.002044667024165392,66604799,-0.002044667024165392
66.60740100,66607401,-0.004175260663032532,66607401,-0.004175260663032532
66.60938100,66609381,-0.0009793699719011784,66609381,-0.0009793699719011784
66.61198700,66611987,-0.0031099640764296055,66611987,-0.0031099640764296055
66.61459000,66614590,-0.002044667024165392,66614590,-0.002044667024165392
66.61719700,66617197,-0.0031099640764296055,66617197,-0.0031099640764296055
66.61979700,66619797,-0.002044667024165392,66619797,-0.002044667024165392
66.62240100,66622401,-0.004175260663032532,66622401,-0.004175260663032532
66.62501700,66625017,0.0011512236669659615,66625017,0.0011512236669659615
66.62762000,66627620,-0.0031099640764296055,66627620,-0.0031099640764296055
66.63022600,66630226,-0.002044667024165392,66630226,-0.002044667024165392
66.63220500,66632205,-0.0009793699719011784,66632205,-0.0009793699719011784
66.63480400,66634804,8.59266147017479e-05,66634804,8.59266147017479e-05
66.63741200,66637412,-0.004175260663032532,66637412,-0.004175260663032532
66.64001300,66640013,-0.0009793699719011784,66640013,-0.0009793699719011784
66.64261600,66642616,-0.007371151819825172,66642616,-0.007371151819825172
66.64522200,66645222,-0.0009793699719011784,66645222,-0.0009793699719011784
66.64782400,66647824,-0.004175260663032532,66647824,-0.004175260663032532
66.65043000,66650430,-0.0009793699719011784,66650430,-0.0009793699719011784
66.65241100,66652411,0.0011512236669659615,66652411,0.0011512236669659615
66.65501800,66655018,-0.004175260663032532,66655018,-0.004175260663032532
66.65762300,66657623,-0.0009793699719011784,66657623,-0.0009793699719011784
66.66022600,66660226,-0.002044667024165392,66660226,-0.002044667024165392
66.66283700,66662837,-0.006305854767560959,66662837,-0.006305854767560959
66.66544700,66665447,8.59266147017479e-05,66665447,8.59266147017479e-05
66.66804900,66668049,-0.002044667024165392,66668049,-0.002044667024165392
66.67065900,66670659,-0.0009793699719011784,66670659,-0.0009793699719011784
66.67264700,66672647,-0.0031099640764296055,66672647,-0.0031099640764296055
66.67525000,66675250,-0.002044667024165392,66675250,-0.002044667024165392
66.67786000,66677860,-0.007371151819825172,66677860,-0.007371151819825172
66.68046400,66680464,-0.002044667024165392,66680464,-0.002044667024165392
66.68307500,66683075,-0.002044667024165392,66683075,-0.002044667024165392
66.68568000,66685680,-0.002044667024165392,66685680,-0.002044667024165392
66.68829100,66688291,-0.0031099640764296055,66688291,-0.0031099640764296055
66.69090100,66690901,-0.0009793699719011784,66690901,-0.0009793699719011784
66.69288400,66692884,-0.0031099640764296055,66692884,-0.0031099640764296055
66.69548700,66695487,0.005412411876022816,66695487,0.005412411876022816
66.69810600,66698106,-0.004175260663032532,66698106,-0.004175260663032532
66.70071400,66700714,-0.002044667024165392,66700714,-0.002044667024165392
66.70331600,66703316,-0.002044667024165392,66703316,-0.002044667024165392
66.70592400,66705924,-0.0031099640764296055,66705924,-0.0031099640764296055
66.70852500,66708525,-0.0009793699719011784,66708525,-0.0009793699719011784
66.71113600,66711136,8.59266147017479e-05,66711136,8.59266147017479e-05
66.71311800,66713118,-0.005240557715296745,66713118,-0.005240557715296745
66.71572200,66715722,-0.002044667024165392,66715722,-0.002044667024165392
66.71833200,66718332,-0.0009793699719011784,66718332,-0.0009793699719011784
66.72093700,66720937,8.59266147017479e-05,66720937,8.59266147017479e-05
66.72353800,66723538,-0.0009793699719011784,66723538,-0.0009793699719011784
66.72614700,66726147,-0.005240557715296745,66726147,-0.005240557715296745
66.72875500,66728755,8.59266147017479e-05,66728755,8.59266147017479e-05
66.73136200,66731362,-0.0009793699719011784,66731362,-0.0009793699719011784
66.73334600,66733346,-0.002044667024165392,66733346,-0.002044667024165392
66.73594900,66735949,-0.0009793699719011784,66735949,-0.0009793699719011784
66.73856100,66738561,-0.005240557715296745,66738561,-0.005240557715296745
66.74116300,66741163,-0.002044667024165392,66741163,-0.002044667024165392
66.74376200,66743762,-0.0009793699719011784,66743762,-0.0009793699719011784
66.74637800,66746378,-0.006305854767560959,66746378,-0.006305854767560959
66.74898600,66748986,8.59266147017479e-05,66748986,8.59266147017479e-05
66.75159500,66751595,-0.004175260663032532,66751595,-0.004175260663032532
66.75357200,66753572,-0.0009793699719011784,66753572,-0.0009793699719011784
66.75618100,66756181,-0.002044667024165392,66756181,-0.002044667024165392
66.75878800,66758788,-0.002044667024165392,66758788,-0.002044667024165392
66.76138900,66761389,-0.0009793699719011784,66761389,-0.0009793699719011784
66.76398900,66763989,-0.0009793699719011784,66763989,-0.0009793699719011784
66.76659900,66766599,-0.004175260663032532,66766599,-0.004175260663032532
66.76920300,66769203,0.0011512236669659615,66769203,0.0011512236669659615
66.77180900,66771809,8.59266147017479e-05,66771809,8.59266147017479e-05
66.77379100,66773791,-0.0009793699719011784,66773791,-0.0009793699719011784
66.77639200,66776392,-0.0031099640764296055,66776392,-0.0031099640764296055
66.77900300,66779003,-0.0009793699719011784,66779003,-0.0009793699719011784
66.78161600,66781616,0.0011512236669659615,66781616,0.0011512236669659615
66.78421600,66784216,-0.0009793699719011784,66784216,-0.0009793699719011784
66.78682200,66786822,-0.0031099640764296055,66786822,-0.0031099640764296055
66.78942500,66789425,8.59266147017479e-05,66789425,8.59266147017479e-05
66.79203300,66792033,-0.002044667024165392,66792033,-0.002044667024165392
66.79401600,66794016,0.004347114823758602,66794016,0.004347114823758602
66.79661600,66796616,-0.0031099640764296055,66796616,-0.0031099640764296055
66.79922500,66799225,-0.004175260663032532,66799225,-0.004175260663032532
66.80182900,66801829,-0.0031099640764296055,66801829,-0.0031099640764296055
66.80443400,66804434,-0.0009793699719011784,66804434,-0.0009793699719011784
66.80704200,66807042,-0.0009793699719011784,66807042,-0.0009793699719011784
66.80964900,66809649,-0.004175260663032532,66809649,-0.004175260663032532
66.81225400,66812254,8.59266147017479e-05,66812254,8.59266147017479e-05
66.81424900,66814249,0.0011512236669659615,66814249,0.0011512236669659615
66.81685300,66816853,-0.002044667024165392,66816853,-0.002044667024165392
66.81946600,66819466,-0.002044667024165392,66819466,-0.002044667024165392
66.82207300,66822073,8.59266147017479e-05,66822073,8.59266147017479e-05
66.82467300,66824673,-0.002044667024165392,66824673,-0.002044667024165392
66.82728700,66827287,-0.0009793699719011784,66827287,-0.0009793699719011784
66.82989100,66829891,8.59266147017479e-05,66829891,8.59266147017479e-05
66.83249400,66832494,0.0011512236669659615,66832494,0.0011512236669659615
66.83447100,66834471,-0.0009793699719011784,66834471,-0.0009793699719011784
66.83707300,66837073,-0.0031099640764296055,66837073,-0.0031099640764296055
66.83967700,66839677,-0.0009793699719011784,66839677,-0.0009793699719011784
66.84229300,66842293,-0.0009793699719011784,66842293,-0.0009793699719011784
66.84489800,66844898,8.59266147017479e-05,66844898,8.59266147017479e-05
66.84750800,66847508,0.002216520719230175,66847508,0.002216520719230175
66.85011200,66850112,-0.002044667024165392,66850112,-0.002044667024165392
66.85271800,66852718,-0.0031099640764296055,66852718,-0.0031099640764296055
66.85469500,66854695,-0.002044667024165392,66854695,-0.002044667024165392
66.85730800,66857308,8.59266147017479e-05,66857308,8.59266147017479e-05
66.85991000,66859910,0.002216520719230175,66859910,0.002216520719230175
66.86252000,66862520,-0.005240557715296745,66862520,-0.005240557715296745
66.86511800,66865118,-0.005240557715296745,66865118,-0.005240557715296745
66.86773600,66867736,0.0032818177714943886,66867736,0.0032818177714943886
66.87033700,66870337,8.59266147017479e-05,66870337,8.59266147017479e-05
66.87294800,66872948,-0.0009793699719011784,66872948,-0.0009793699719011784
66.87493100,66874931,-0.002044667024165392,66874931,-0.002044667024165392
66.87753400,66877534,-0.0031099640764296055,66877534,-0.0031099640764296055
66.88014100,66880141,-0.005240557715296745,66880141,-0.005240557715296745
66.88274700,66882747,0.0011512236669659615,66882747,0.0011512236669659615
66.88535400,66885354,0.004347114823758602,66885354,0.004347114823758602
66.88796100,66887961,-0.0031099640764296055,66887961,-0.0031099640764296055
66.89056500,66890565,0.0011512236669659615,66890565,0.0011512236669659615
66.89317600,66893176,-0.006305854767560959,66893176,-0.006305854767560959
66.89515900,66895159,-0.004175260663032532,66895159,-0.004175260663032532
66.89776300,66897763,0.0011512236669659615,66897763,0.0011512236669659615
66.90037200,66900372,8.59266147017479e-05,66900372,8.59266147017479e-05
66.90298200,66902982,-0.0009793699719011784,66902982,-0.0009793699719011784
66.90558800,66905588,-0.0009793699719011784,66905588,-0.0009793699719011784
66.90819300,66908193,-0.005240557715296745,66908193,-0.005240557715296745
66.91080800,66910808,-0.0009793699719011784,66910808,-0.0009793699719011784
66.91341600,66913416,-0.0009793699719011784,66913416,-0.0009793699719011784
66.91539400,66915394,-0.002044667024165392,66915394,-0.002044667024165392
66.91800000,66918000,0.0032818177714943886,66918000,0.0032818177714943886
66.92061500,66920615,0.0011512236669659615,66920615,0.0011512236669659615
66.92321600,66923216,-0.0031099640764296055,66923216,-0.0031099640764296055
66.92581500,66925815,0.002216520719230175,66925815,0.002216520719230175
66.92843400,66928434,0.0011512236669659615,66928434,0.0011512236669659615
66.93104000,66931040,-0.0009793699719011784,66931040,-0.0009793699719011784
66.93364600,66933646,-0.004175260663032532,66933646,-0.004175260663032532
66.93562600,66935626,0.0011512236669659615,66935626,0.0011512236669659615
66.93822800,66938228,-0.0031099640764296055,66938228,-0.0031099640764296055
66.94084100,66940841,8.59266147017479e-05,66940841,8.59266147017479e-05
66.94344300,66943443,-0.002044667024165392,66943443,-0.002044667024165392
66.94604900,66946049,8.59266147017479e-05,66946049,8.59266147017479e-05
66.94865100,66948651,-0.007371151819825172,66948651,-0.007371151819825172
66.95125900,66951259,8.59266147017479e-05,66951259,8.59266147017479e-05
66.95386400,66953864,-0.0031099640764296055,66953864,-0.0031099640764296055
66.95584400,66955844,8.59266147017479e-05,66955844,8.59266147017479e-05
66.95844700,66958447,-0.0009793699719011784,66958447,-0.0009793699719011784
66.96105000,66961050,0.002216520719230175,66961050,0.002216520719230175
66.96365200,66963652,-0.002044667024165392,66963652,-0.002044667024165392
66.96625300,66966253,-0.004175260663032532,66966253,-0.004175260663032532
66.96886200,66968862,0.002216520719230175,66968862,0.002216520719230175
66.97146500,66971465,0.0011512236669659615,66971465,0.0011512236669659615
66.97406700,66974067,-0.004175260663032532,66974067,-0.004175260663032532
66.97605100,66976051,-0.0009793699719011784,66976051,-0.0009793699719011784
66.97865300,66978653,-0.002044667024165392,66978653,-0.002044667024165392
66.98125900,66981259,0.0011512236669659615,66981259,0.0011512236669659615
66.98386100,66983861,-0.0031099640764296055,66983861,-0.0031099640764296055
66.98646200,66986462,-0.0009793699719011784,66986462,-0.0009793699719011784
66.98906900,66989069,-0.0009793699719011784,66989069,-0.0009793699719011784
66.99167400,66991674,-0.0009793699719011784,66991674,-0.0009793699719011784
66.99427700,66994277,8.59266147017479e-05,66994277,8.59266147017479e-05
66.99625900,66996259,-0.006305854767560959,66996259,-0.006305854767560959
66.99886200,66998862,-0.0009793699719011784,66998862,-0.0009793699719011784
67.00147100,67001471,-0.0009793699719011784,67001471,-0.0009793699719011784
67.00407700,67004077,-0.002044667024165392,67004077,-0.002044667024165392
67.00667600,67006676,-0.002044667024165392,67006676,-0.002044667024165392
67.00928400,67009284,-0.004175260663032532,67009284,-0.004175260663032532
67.01189200,67011892,0.002216520719230175,67011892,0.002216520719230175
67.01449700,67014497,-0.0009793699719011784,67014497,-0.0009793699719011784
67.01647900,67016479,-0.002044667024165392,67016479,-0.002044667024165392
67.01908300,67019083,-0.0009793699719011784,67019083,-0.0009793699719011784
67.02169400,67021694,-0.004175260663032532,67021694,-0.004175260663032532
67.02429500,67024295,-0.002044667024165392,67024295,-0.002044667024165392
67.02689700,67026897,-0.0031099640764296055,67026897,-0.0031099640764296055
67.02950100,67029501,-0.0009793699719011784,67029501,-0.0009793699719011784
67.03211300,67032113,-0.0031099640764296055,67032113,-0.0031099640764296055
67.03472500,67034725,-0.004175260663032532,67034725,-0.004175260663032532
67.03671100,67036711,-0.005240557715296745,67036711,-0.005240557715296745
67.03931100,67039311,0.0011512236669659615,67039311,0.0011512236669659615
67.04192200,67041922,-0.007371151819825172,67041922,-0.007371151819825172
67.04452500,67044525,-0.0009793699719011784,67044525,-0.0009793699719011784
67.04713700,67047137,-0.005240557715296745,67047137,-0.005240557715296745
67.04974600,67049746,-0.002044667024165392,67049746,-0.002044667024165392
67.05235200,67052352,0.0011512236669659615,67052352,0.0011512236669659615
67.05495900,67054959,-0.0009793699719011784,67054959,-0.0009793699719011784
67.05694400,67056944,-0.0009793699719011784,67056944,-0.0009793699719011784
67.05954400,67059544,-0.002044667024165392,67059544,-0.002044667024165392
67.06214800,67062148,-0.0009793699719011784,67062148,-0.0009793699719011784
67.06475600,67064756,-0.0009793699719011784,67064756,-0.0009793699719011784
67.06735600,67067356,8.59266147017479e-05,67067356,8.59266147017479e-05
67.06996400,67069964,-0.0009793699719011784,67069964,-0.0009793699719011784
67.07256400,67072564,-0.0031099640764296055,67072564,-0.0031099640764296055
67.07517300,67075173,-0.002044667024165392,67075173,-0.002044667024165392
67.07778000,67077780,-0.002044667024165392,67077780,-0.002044667024165392
67.07975600,67079756,-0.0009793699719011784,67079756,-0.0009793699719011784
67.08235300,67082353,-0.002044667024165392,67082353,-0.002044667024165392
67.08496300,67084963,-0.004175260663032532,67084963,-0.004175260663032532
67.08756500,67087565,8.59266147017479e-05,67087565,8.59266147017479e-05
67.09017300,67090173,-0.0009793699719011784,67090173,-0.0009793699719011784
67.09277500,67092775,8.59266147017479e-05,67092775,8.59266147017479e-05
67.09538400,67095384,-0.0031099640764296055,67095384,-0.0031099640764296055
67.09798800,67097988,-0.0031099640764296055,67097988,-0.0031099640764296055
67.09996700,67099967,0.002216520719230175,67099967,0.002216520719230175
67.10258000,67102580,-0.004175260663032532,67102580,-0.004175260663032532
67.10518400,67105184,-0.0031099640764296055,67105184,-0.0031099640764296055
67.10778500,67107785,-0.0009793699719011784,67107785,-0.0009793699719011784
67.11040500,67110405,-0.0009793699719011784,67110405,-0.0009793699719011784
67.11300700,67113007,-0.002044667024165392,67113007,-0.002044667024165392
67.11561700,67115617,-0.0009793699719011784,67115617,-0.0009793699719011784
67.11822600,67118226,-0.0031099640764296055,67118226,-0.0031099640764296055
67.12020800,67120208,-0.0031099640764296055,67120208,-0.0031099640764296055
67.12280600,67122806,8.59266147017479e-05,67122806,8.59266147017479e-05
67.12541300,67125413,-0.004175260663032532,67125413,-0.004175260663032532
67.12802000,67128020,-0.002044667024165392,67128020,-0.002044667024165392
67.13062800,67130628,-0.002044667024165392,67130628,-0.002044667024165392
67.13323000,67133230,0.002216520719230175,67133230,0.002216520719230175
67.13583900,67135839,-0.0031099640764296055,67135839,-0.0031099640764296055
67.13845000,67138450,-0.0009793699719011784,67138450,-0.0009793699719011784
67.14043400,67140434,0.0011512236669659615,67140434,0.0011512236669659615
67.14304000,67143040,0.0032818177714943886,67143040,0.0032818177714943886
67.14564800,67145648,-0.002044667024165392,67145648,-0.002044667024165392
67.14824600,67148246,-0.0009793699719011784,67148246,-0.0009793699719011784
67.15085400,67150854,-0.002044667024165392,67150854,-0.002044667024165392
67.15346100,67153461,-0.0009793699719011784,67153461,-0.0009793699719011784
67.15607200,67156072,8.59266147017479e-05,67156072,8.59266147017479e-05
67.15867600,67158676,8.59266147017479e-05,67158676,8.59266147017479e-05
67.16065400,67160654,-0.004175260663032532,67160654,-0.004175260663032532
67.16326200,67163262,0.0011512236669659615,67163262,0.0011512236669659615
67.16586400,67165864,-0.0009793699719011784,67165864,-0.0009793699719011784
67.16846500,67168465,-0.0009793699719011784,67168465,-0.0009793699719011784
67.17107200,67171072,-0.0009793699719011784,67171072,-0.0009793699719011784
67.17367400,67173674,0.002216520719230175,67173674,0.002216520719230175
67.17628300,67176283,-0.002044667024165392,67176283,-0.002044667024165392
67.17888300,67178883,-0.0009793699719011784,67178883,-0.0009793699719011784
67.18086100,67180861,-0.0031099640764296055,67180861,-0.0031099640764296055
67.18347100,67183471,-0.0009793699719011784,67183471,-0.0009793699719011784
67.18607100,67186071,-0.0009793699719011784,67186071,-0.0009793699719011784
67.18867100,67188671,8.59266147017479e-05,67188671,8.59266147017479e-05
67.19128800,67191288,8.59266147017479e-05,67191288,8.59266147017479e-05
67.19389100,67193891,8.59266147017479e-05,67193891,8.59266147017479e-05
67.19649500,67196495,0.002216520719230175,67196495,0.002216520719230175
67.19909900,67199099,-0.0009793699719011784,67199099,-0.0009793699719011784
67.20107700,67201077,-0.0009793699719011784,67201077,-0.0009793699719011784
67.20368200,67203682,-0.0031099640764296055,67203682,-0.0031099640764296055
67.20628500,67206285,-0.0031099640764296055,67206285,-0.0031099640764296055
67.20888800,67208888,-0.0009793699719011784,67208888,-0.0009793699719011784
67.21149100,67211491,-0.002044667024165392,67211491,-0.002044667024165392
67.21409500,67214095,8.59266147017479e-05,67214095,8.59266147017479e-05
67.21670400,67216704,0.002216520719230175,67216704,0.002216520719230175
67.21930800,67219308,-0.002044667024165392,67219308,-0.002044667024165392
67.22128600,67221286,-0.0009793699719011784,67221286,-0.0009793699719011784
67.22389300,67223893,-0.002044667024165392,67223893,-0.002044667024165392
67.22650400,67226504,-0.002044667024165392,67226504,-0.002044667024165392
67.22910500,67229105,-0.0031099640764296055,67229105,-0.0031099640764296055
67.23171600,67231716,-0.0009793699719011784,67231716,-0.0009793699719011784
67.23431600,67234316,-0.0009793699719011784,67234316,-0.0009793699719011784
67.23693000,67236930,-0.0009793699719011784,67236930,-0.0009793699719011784
67.23952700,67239527,-0.0009793699719011784,67239527,-0.0009793699719011784
67.24150700,67241507,-0.002044667024165392,67241507,-0.002044667024165392
67.24410900,67244109,0.0011512236669659615,67244109,0.0011512236669659615
67.24672700,67246727,8.59266147017479e-05,67246727,8.59266147017479e-05
67.24932700,67249327,-0.007371151819825172,67249327,-0.007371151819825172
67.25193800,67251938,0.0011512236669659615,67251938,0.0011512236669659615
67.25454400,67254544,-0.0009793699719011784,67254544,-0.0009793699719011784
67.25715500,67257155,8.59266147017479e-05,67257155,8.59266147017479e-05
67.25976300,67259763,-0.0009793699719011784,67259763,-0.0009793699719011784
67.26174000,67261740,0.0011512236669659615,67261740,0.0011512236669659615
67.26434600,67264346,-0.0009793699719011784,67264346,-0.0009793699719011784
67.26694700,67266947,0.002216520719230175,67266947,0.002216520719230175
67.26954900,67269549,-0.002044667024165392,67269549,-0.002044667024165392
67.27215800,67272158,8.59266147017479e-05,67272158,8.59266147017479e-05
67.27476400,67274764,8.59266147017479e-05,67274764,8.59266147017479e-05
67.27736800,67277368,-0.0009793699719011784,67277368,-0.0009793699719011784
67.27997400,67279974,-0.0009793699719011784,67279974,-0.0009793699719011784
67.28195800,67281958,8.59266147017479e-05,67281958,8.59266147017479e-05
67.28455900,67284559,-0.002044667024165392,67284559,-0.002044667024165392
67.28716200,67287162,8.59266147017479e-05,67287162,8.59266147017479e-05
67.28976700,67289767,-0.002044667024165392,67289767,-0.002044667024165392
67.29237600,67292376,8.59266147017479e-05,67292376,8.59266147017479e-05
67.29497800,67294978,-0.0031099640764296055,67294978,-0.0031099640764296055
67.29758100,67297581,8.59266147017479e-05,67297581,8.59266147017479e-05
67.30018400,67300184,-0.004175260663032532,67300184,-0.004175260663032532
67.30279000,67302790,0.002216520719230175,67302790,0.002216520719230175
67.30477400,67304774,-0.0009793699719011784,67304774,-0.0009793699719011784
67.30737800,67307378,-0.0031099640764296055,67307378,-0.0031099640764296055
67.30999000,67309990,-0.0009793699719011784,67309990,-0.0009793699719011784
67.31259300,67312593,0.0011512236669659615,67312593,0.0011512236669659615
67.31519400,67315194,-0.002044667024165392,67315194,-0.002044667024165392
67.31779700,67317797,-0.002044667024165392,67317797,-0.002044667024165392
67.32040100,67320401,0.002216520719230175,67320401,0.002216520719230175
67.32301000,67323010,8.59266147017479e-05,67323010,8.59266147017479e-05
67.32498500,67324985,8.59266147017479e-05,67324985,8.59266147017479e-05
67.32758600,67327586,-0.002044667024165392,67327586,-0.002044667024165392
67.33018900,67330189,0.002216520719230175,67330189,0.002216520719230175
67.33279700,67332797,0.0011512236669659615,67332797,0.0011512236669659615
67.33539900,67335399,-0.005240557715296745,67335399,-0.005240557715296745
67.33801500,67338015,8.59266147017479e-05,67338015,8.59266147017479e-05
67.34062300,67340623,0.002216520719230175,67340623,0.002216520719230175
67.34322600,67343226,-0.0009793699719011784,67343226,-0.0009793699719011784
67.34520200,67345202,-0.002044667024165392,67345202,-0.002044667024165392
67.34782000,67347820,-0.0031099640764296055,67347820,-0.0031099640764296055
67.35042400,67350424,0.0011512236669659615,67350424,0.0011512236669659615
67.35302900,67353029,-0.0031099640764296055,67353029,-0.0031099640764296055
67.35563000,67355630,8.59266147017479e-05,67355630,8.59266147017479e-05
67.35823100,67358231,-0.002044667024165392,67358231,-0.002044667024165392
67.36083500,67360835,8.59266147017479e-05,67360835,8.59266147017479e-05
67.36344700,67363447,-0.0031099640764296055,67363447,-0.0031099640764296055
67.36542700,67365427,-0.002044667024165392,67365427,-0.002044667024165392
67.36802500,67368025,-0.0031099640764296055,67368025,-0.0031099640764296055
67.37063100,67370631,-0.0031099640764296055,67370631,-0.0031099640764296055
67.37324300,67373243,-0.0031099640764296055,67373243,-0.0031099640764296055
67.37584500,67375845,-0.0009793699719011784,67375845,-0.0009793699719011784
67.37844900,67378449,-0.0031099640764296055,67378449,-0.0031099640764296055
67.38105200,67381052,-0.002044667024165392,67381052,-0.002044667024165392
67.38366300,67383663,-0.0009793699719011784,67383663,-0.0009793699719011784
67.38564700,67385647,-0.004175260663032532,67385647,-0.004175260663032532
67.38825000,67388250,-0.002044667024165392,67388250,-0.002044667024165392
67.39085200,67390852,0.0011512236669659615,67390852,0.0011512236669659615
67.39345900,67393459,-0.0009793699719011784,67393459,-0.0009793699719011784
67.39606000,67396060,-0.006305854767560959,67396060,-0.006305854767560959
67.39866400,67398664,0.002216520719230175,67398664,0.002216520719230175
67.40127200,67401272,-0.002044667024165392,67401272,-0.002044667024165392
67.40387700,67403877,8.59266147017479e-05,67403877,8.59266147017479e-05
67.40585600,67405856,-0.0031099640764296055,67405856,-0.0031099640764296055
67.40845700,67408457,-0.002044667024165392,67408457,-0.002044667024165392
67.41105900,67411059,-0.004175260663032532,67411059,-0.004175260663032532
67.41366200,67413662,-0.002044667024165392,67413662,-0.002044667024165392
67.41627300,67416273,8.59266147017479e-05,67416273,8.59266147017479e-05
67.41887700,67418877,0.0011512236669659615,67418877,0.0011512236669659615
67.42148000,67421480,8.59266147017479e-05,67421480,8.59266147017479e-05
67.42409200,67424092,-0.0009793699719011784,67424092,-0.0009793699719011784
67.42669300,67426693,-0.005240557715296745,67426693,-0.005240557715296745
67.42867000,67428670,0.0032818177714943886,67428670,0.0032818177714943886
67.43127400,67431274,-0.002044667024165392,67431274,-0.002044667024165392
67.43387500,67433875,0.0011512236669659615,67433875,0.0011512236669659615
67.43648000,67436480,-0.002044667024165392,67436480,-0.002044667024165392
67.43908200,67439082,-0.002044667024165392,67439082,-0.002044667024165392
67.44168600,67441686,-0.0031099640764296055,67441686,-0.0031099640764296055
67.44428900,67444289,-0.002044667024165392,67444289,-0.002044667024165392
67.44691000,67446910,-0.0031099640764296055,67446910,-0.0031099640764296055
67.44889100,67448891,-0.004175260663032532,67448891,-0.004175260663032532
67.45149200,67451492,0.0011512236669659615,67451492,0.0011512236669659615
67.45410600,67454106,-0.002044667024165392,67454106,-0.002044667024165392
67.45671000,67456710,-0.0031099640764296055,67456710,-0.0031099640764296055
67.45931500,67459315,-0.002044667024165392,67459315,-0.002044667024165392
67.46192200,67461922,-0.0009793699719011784,67461922,-0.0009793699719011784
67.46452600,67464526,0.0011512236669659615,67464526,0.0011512236669659615
67.46713200,67467132,0.0011512236669659615,67467132,0.0011512236669659615
67.46911400,67469114,-0.0031099640764296055,67469114,-0.0031099640764296055
67.47171300,67471713,8.59266147017479e-05,67471713,8.59266147017479e-05
67.47432500,67474325,-0.002044667024165392,67474325,-0.002044667024165392
67.47693600,67476936,-0.004175260663032532,67476936,-0.004175260663032532
67.47955400,67479554,-0.004175260663032532,67479554,-0.004175260663032532
67.48215700,67482157,-0.002044667024165392,67482157,-0.002044667024165392
67.48476300,67484763,-0.002044667024165392,67484763,-0.002044667024165392
67.48736600,67487366,8.59266147017479e-05,67487366,8.59266147017479e-05
67.48935100,67489351,-0.0031099640764296055,67489351,-0.0031099640764296055
67.49195100,67491951,-0.005240557715296745,67491951,-0.005240557715296745
67.49457100,67494571,-0.0009793699719011784,67494571,-0.0009793699719011784
67.49717400,67497174,8.59266147017479e-05,67497174,8.59266147017479e-05
67.49978700,67499787,-0.0031099640764296055,67499787,-0.0031099640764296055
67.50239400,67502394,0.0011512236669659615,67502394,0.0011512236669659615
67.50500100,67505001,-0.0031099640764296055,67505001,-0.0031099640764296055
67.50761000,67507610,-0.002044667024165392,67507610,-0.002044667024165392
67.50959500,67509595,-0.004175260663032532,67509595,-0.004175260663032532
67.51219700,67512197,-0.0031099640764296055,67512197,-0.0031099640764296055
67.51480400,67514804,-0.002044667024165392,67514804,-0.002044667024165392
67.51740900,67517409,-0.0031099640764296055,67517409,-0.0031099640764296055
67.52002200,67520022,-0.0009793699719011784,67520022,-0.0009793699719011784
67.52263100,67522631,-0.002044667024165392,67522631,-0.002044667024165392
67.52523100,67525231,8.59266147017479e-05,67525231,8.59266147017479e-05
67.52783300,67527833,-0.002044667024165392,67527833,-0.002044667024165392
67.52981700,67529817,-0.002044667024165392,67529817,-0.002044667024165392
67.53241500,67532415,-0.004175260663032532,67532415,-0.004175260663032532
67.53503000,67535030,-0.005240557715296745,67535030,-0.005240557715296745
67.53762900,67537629,0.004347114823758602,67537629,0.004347114823758602
67.54024000,67540240,-0.0009793699719011784,67540240,-0.0009793699719011784
67.54284300,67542843,-0.004175260663032532,67542843,-0.004175260663032532
67.54544700,67545447,8.59266147017479e-05,67545447,8.59266147017479e-05
67.54804800,67548048,-0.002044667024165392,67548048,-0.002044667024165392
67.55002700,67550027,0.0011512236669659615,67550027,0.0011512236669659615
67.55262900,67552629,0.0011512236669659615,67552629,0.0011512236669659615
67.55523900,67555239,0.0011512236669659615,67555239,0.0011512236669659615
67.55784800,67557848,-0.0009793699719011784,67557848,-0.0009793699719011784
67.56045900,67560459,-0.0009793699719011784,67560459,-0.0009793699719011784
67.56306100,67563061,-0.002044667024165392,67563061,-0.002044667024165392
67.56566800,67565668,-0.0009793699719011784,67565668,-0.0009793699719011784
67.56827000,67568270,-0.0031099640764296055,67568270,-0.0031099640764296055
67.57025700,67570257,8.59266147017479e-05,67570257,8.59266147017479e-05
67.57286200,67572862,0.0011512236669659615,67572862,0.0011512236669659615
67.57546500,67575465,0.0011512236669659615,67575465,0.0011512236669659615
67.57806700,67578067,-0.004175260663032532,67578067,-0.004175260663032532
67.58068100,67580681,-0.004175260663032532,67580681,-0.004175260663032532
67.58328800,67583288,0.0011512236669659615,67583288,0.0011512236669659615
67.58590100,67585901,-0.002044667024165392,67585901,-0.002044667024165392
67.58850300,67588503,8.59266147017479e-05,67588503,8.59266147017479e-05
67.59048300,67590483,0.0011512236669659615,67590483,0.0011512236669659615
67.59308800,67593088,-0.002044667024165392,67593088,-0.002044667024165392
67.59569400,67595694,-0.0031099640764296055,67595694,-0.0031099640764296055
67.59830300,67598303,-0.004175260663032532,67598303,-0.004175260663032532
67.60090900,67600909,-0.0009793699719011784,67600909,-0.0009793699719011784
67.60351600,67603516,-0.004175260663032532,67603516,-0.004175260663032532
67.60612200,67606122,8.59266147017479e-05,67606122,8.59266147017479e-05
67.60872500,67608725,-0.002044667024165392,67608725,-0.002044667024165392
67.61070400,67610704,-0.002044667024165392,67610704,-0.002044667024165392
67.61331100,67613311,8.59266147017479e-05,67613311,8.59266147017479e-05
67.61592000,67615920,-0.0009793699719011784,67615920,-0.0009793699719011784
67.61852600,67618526,-0.002044667024165392,67618526,-0.002044667024165392
67.62113100,67621131,-0.0009793699719011784,67621131,-0.0009793699719011784
67.62373100,67623731,8.59266147017479e-05,67623731,8.59266147017479e-05
67.62634700,67626347,-0.0009793699719011784,67626347,-0.0009793699719011784
67.62895300,67628953,-0.0009793699719011784,67628953,-0.0009793699719011784
67.63092900,67630929,0.0032818177714943886,67630929,0.0032818177714943886
67.63352900,67633529,-0.004175260663032532,67633529,-0.004175260663032532
67.63613800,67636138,8.59266147017479e-05,67636138,8.59266147017479e-05
67.63874700,67638747,-0.004175260663032532,67638747,-0.004175260663032532
67.64135700,67641357,0.0011512236669659615,67641357,0.0011512236669659615
67.64396100,67643961,-0.0009793699719011784,67643961,-0.0009793699719011784
67.64656500,67646565,-0.002044667024165392,67646565,-0.002044667024165392
67.64917100,67649171,8.59266147017479e-05,67649171,8.59266147017479e-05
67.65116400,67651164,8.59266147017479e-05,67651164,8.59266147017479e-05
67.65377500,67653775,8.59266147017479e-05,67653775,8.59266147017479e-05
67.65639200,67656392,-0.0009793699719011784,67656392,-0.0009793699719011784
67.65899300,67658993,-0.002044667024165392,67658993,-0.002044667024165392
67.66161400,67661614,-0.002044667024165392,67661614,-0.002044667024165392
67.66421600,67664216,-0.0009793699719011784,67664216,-0.0009793699719011784
67.66683200,67666832,8.59266147017479e-05,67666832,8.59266147017479e-05
67.66943700,67669437,-0.004175260663032532,67669437,-0.004175260663032532
67.67141600,67671416,-0.002044667024165392,67671416,-0.002044667024165392
67.67401800,67674018,8.59266147017479e-05,67674018,8.59266147017479e-05
67.67662300,67676623,-0.0031099640764296055,67676623,-0.0031099640764296055
67.67922900,67679229,-0.0009793699719011784,67679229,-0.0009793699719011784
67.68184200,67681842,-0.002044667024165392,67681842,-0.002044667024165392
67.68444700,67684447,-0.0009793699719011784,67684447,-0.0009793699719011784
67.68705400,67687054,-0.002044667024165392,67687054,-0.002044667024165392
67.68965800,67689658,-0.005240557715296745,67689658,-0.005240557715296745
67.69164200,67691642,-0.0031099640764296055,67691642,-0.0031099640764296055
67.69425000,67694250,8.59266147017479e-05,67694250,8.59266147017479e-05
67.69685800,67696858,0.002216520719230175,67696858,0.002216520719230175
67.69946300,67699463,-0.0009793699719011784,67699463,-0.0009793699719011784
67.70208700,67702087,-0.0031099640764296055,67702087,-0.0031099640764296055
67.70468700,67704687,8.59266147017479e-05,67704687,8.59266147017479e-05
67.70729400,67707294,-0.0009793699719011784,67707294,-0.0009793699719011784
67.70927700,67709277,-0.004175260663032532,67709277,-0.004175260663032532
67.71188200,67711882,0.0011512236669659615,67711882,0.0011512236669659615
67.71448600,67714486,0.0011512236669659615,67714486,0.0011512236669659615
67.71709500,67717095,0.0011512236669659615,67717095,0.0011512236669659615
67.71969700,67719697,-0.0009793699719011784,67719697,-0.0009793699719011784
67.72230900,67722309,-0.004175260663032532,67722309,-0.004175260663032532
67.72491200,67724912,0.0011512236669659615,67724912,0.0011512236669659615
67.72752000,67727520,-0.005240557715296745,67727520,-0.005240557715296745
67.73012400,67730124,-0.002044667024165392,67730124,-0.002044667024165392
67.73210200,67732102,0.0011512236669659615,67732102,0.0011512236669659615
67.73471000,67734710,0.002216520719230175,67734710,0.002216520719230175
67.73732100,67737321,0.002216520719230175,67737321,0.002216520719230175
67.73992500,67739925,-0.0009793699719011784,67739925,-0.0009793699719011784
67.74252800,67742528,-0.004175260663032532,67742528,-0.004175260663032532
67.74513100,67745131,-0.0031099640764296055,67745131,-0.0031099640764296055
67.74773800,67747738,-0.0009793699719011784,67747738,-0.0009793699719011784
67.75034100,67750341,-0.004175260663032532,67750341,-0.004175260663032532
67.75232200,67752322,-0.0009793699719011784,67752322,-0.0009793699719011784
67.75492400,67754924,-0.004175260663032532,67754924,-0.004175260663032532
67.75753100,67757531,8.59266147017479e-05,67757531,8.59266147017479e-05
67.76013400,67760134,-0.0031099640764296055,67760134,-0.0031099640764296055
67.76274600,67762746,-0.0031099640764296055,67762746,-0.0031099640764296055
67.76535100,67765351,-0.0009793699719011784,67765351,-0.0009793699719011784
67.76796500,67767965,-0.004175260663032532,67767965,-0.004175260663032532
67.77056400,67770564,-0.005240557715296745,67770564,-0.005240557715296745
67.77254300,67772543,-0.0009793699719011784,67772543,-0.0009793699719011784
67.77515000,67775150,-0.002044667024165392,67775150,-0.002044667024165392
67.77775100,67777751,-0.0009793699719011784,67777751,-0.0009793699719011784
67.78036200,67780362,-0.0031099640764296055,67780362,-0.0031099640764296055
67.78297100,67782971,-0.0009793699719011784,67782971,-0.0009793699719011784
67.78557200,67785572,-0.002044667024165392,67785572,-0.002044667024165392
67.78817700,67788177,-0.002044667024165392,67788177,-0.002044667024165392
67.79077900,67790779,-0.0009793699719011784,67790779,-0.0009793699719011784
67.79275900,67792759,-0.0009793699719011784,67792759,-0.0009793699719011784
67.79536300,67795363,0.0032818177714943886,67795363,0.0032818177714943886
67.79797100,67797971,-0.006305854767560959,67797971,-0.006305854767560959
67.80057700,67800577,-0.0031099640764296055,67800577,-0.0031099640764296055
67.80319000,67803190,0.0032818177714943886,67803190,0.0032818177714943886
67.80579000,67805790,-0.005240557715296745,67805790,-0.005240557715296745
67.80841700,67808417,8.59266147017479e-05,67808417,8.59266147017479e-05
67.81101200,67811012,-0.002044667024165392,67811012,-0.002044667024165392
67.81299000,67812990,8.59266147017479e-05,67812990,8.59266147017479e-05
67.81559300,67815593,8.59266147017479e-05,67815593,8.59266147017479e-05
67.81820100,67818201,-0.005240557715296745,67818201,-0.005240557715296745
67.82081000,67820810,-0.0009793699719011784,67820810,-0.0009793699719011784
67.82341400,67823414,0.0011512236669659615,67823414,0.0011512236669659615
67.82601400,67826014,-0.0009793699719011784,67826014,-0.0009793699719011784
67.82861900,67828619,-0.0031099640764296055,67828619,-0.0031099640764296055
67.83122800,67831228,8.59266147017479e-05,67831228,8.59266147017479e-05
67.83319900,67833199,-0.0009793699719011784,67833199,-0.0009793699719011784
67.83580600,67835806,-0.002044667024165392,67835806,-0.002044667024165392
67.83841700,67838417,-0.004175260663032532,67838417,-0.004175260663032532
67.84102400,67841024,-0.0009793699719011784,67841024,-0.0009793699719011784
67.84363200,67843632,8.59266147017479e-05,67843632,8.59266147017479e-05
67.84624100,67846241,-0.002044667024165392,67846241,-0.002044667024165392
67.84884500,67848845,0.0011512236669659615,67848845,0.0011512236669659615
67.85145400,67851454,-0.0009793699719011784,67851454,-0.0009793699719011784
67.85344100,67853441,-0.004175260663032532,67853441,-0.004175260663032532
67.85603900,67856039,-0.002044667024165392,67856039,-0.002044667024165392
67.85865200,67858652,8.59266147017479e-05,67858652,8.59266147017479e-05
67.86125900,67861259,8.59266147017479e-05,67861259,8.59266147017479e-05
67.86386500,67863865,-0.002044667024165392,67863865,-0.002044667024165392
67.86646600,67866466,-0.0009793699719011784,67866466,-0.0009793699719011784
67.86907500,67869075,-0.0031099640764296055,67869075,-0.0031099640764296055
67.87167600,67871676,-0.0009793699719011784,67871676,-0.0009793699719011784
67.87365600,67873656,8.59266147017479e-05,67873656,8.59266147017479e-05
67.87625700,67876257,-0.0031099640764296055,67876257,-0.0031099640764296055
67.87886400,67878864,-0.0031099640764296055,67878864,-0.0031099640764296055
67.88147300,67881473,-0.005240557715296745,67881473,-0.005240557715296745
67.88408500,67884085,-0.002044667024165392,67884085,-0.002044667024165392
67.88668700,67886687,8.59266147017479e-05,67886687,8.59266147017479e-05
67.88928900,67889289,-0.0031099640764296055,67889289,-0.0031099640764296055
67.89189800,67891898,-0.0031099640764296055,67891898,-0.0031099640764296055
67.89387600,67893876,0.0011512236669659615,67893876,0.0011512236669659615
67.89647800,67896478,-0.006305854767560959,67896478,-0.006305854767560959
67.89908300,67899083,0.0011512236669659615,67899083,0.0011512236669659615
67.90168800,67901688,0.004347114823758602,67901688,0.004347114823758602
67.90429400,67904294,-0.0009793699719011784,67904294,-0.0009793699719011784
67.90690700,67906907,-0.0031099640764296055,67906907,-0.0031099640764296055
67.90950900,67909509,-0.002044667024165392,67909509,-0.002044667024165392
67.91211600,67912116,-0.0009793699719011784,67912116,-0.0009793699719011784
67.91409500,67914095,-0.0031099640764296055,67914095,-0.0031099640764296055
67.91669400,67916694,0.0011512236669659615,67916694,0.0011512236669659615
67.91930300,67919303,-0.0031099640764296055,67919303,-0.0031099640764296055
67.92190700,67921907,-0.006305854767560959,67921907,-0.006305854767560959
67.92451100,67924511,8.59266147017479e-05,67924511,8.59266147017479e-05
67.92711300,67927113,-0.004175260663032532,67927113,-0.004175260663032532
67.92972300,67929723,-0.002044667024165392,67929723,-0.002044667024165392
67.93233100,67932331,-0.002044667024165392,67932331,-0.002044667024165392
67.93493900,67934939,-0.0009793699719011784,67934939,-0.0009793699719011784
67.93692400,67936924,-0.004175260663032532,67936924,-0.004175260663032532
67.93952600,67939526,-0.0009793699719011784,67939526,-0.0009793699719011784
67.94213000,67942130,0.002216520719230175,67942130,0.002216520719230175
67.94473400,67944734,-0.0009793699719011784,67944734,-0.0009793699719011784
67.94733700,67947337,-0.0009793699719011784,67947337,-0.0009793699719011784
67.94994600,67949946,8.59266147017479e-05,67949946,8.59266147017479e-05
67.95255300,67952553,8.59266147017479e-05,67952553,8.59266147017479e-05
67.95516800,67955168,-0.0009793699719011784,67955168,-0.0009793699719011784
67.95715300,67957153,-0.002044667024165392,67957153,-0.002044667024165392
67.95975100,67959751,-0.0009793699719011784,67959751,-0.0009793699719011784
67.96235900,67962359,8.59266147017479e-05,67962359,8.59266147017479e-05
67.96496300,67964963,-0.0031099640764296055,67964963,-0.0031099640764296055
67.96756400,67967564,-0.004175260663032532,67967564,-0.004175260663032532
67.97017000,67970170,0.0011512236669659615,67970170,0.0011512236669659615
67.97277500,67972775,0.002216520719230175,67972775,0.002216520719230175
67.97537900,67975379,-0.002044667024165392,67975379,-0.002044667024165392
67.97736500,67977365,0.0011512236669659615,67977365,0.0011512236669659615
67.97996600,67979966,0.0011512236669659615,67979966,0.0011512236669659615
67.98256500,67982565,-0.005240557715296745,67982565,-0.005240557715296745
67.98516900,67985169,0.002216520719230175,67985169,0.002216520719230175
67.98777100,67987771,-0.0031099640764296055,67987771,-0.0031099640764296055
67.99038200,67990382,-0.0031099640764296055,67990382,-0.0031099640764296055
67.99298300,67992983,8.59266147017479e-05,67992983,8.59266147017479e-05
67.99558500,67995585,8.59266147017479e-05,67995585,8.59266147017479e-05
67.99758100,67997581,-0.0009793699719011784,67997581,-0.0009793699719011784
68.00018200,68000182,-0.004175260663032532,68000182,-0.004175260663032532
68.00278500,68002785,8.59266147017479e-05,68002785,8.59266147017479e-05
68.00538800,68005388,-0.0009793699719011784,68005388,-0.0009793699719011784
68.00799200,68007992,-0.0009793699719011784,68007992,-0.0009793699719011784
68.01059700,68010597,0.0011512236669659615,68010597,0.0011512236669659615
68.01320000,68013200,8.59266147017479e-05,68013200,8.59266147017479e-05
68.01580500,68015805,-0.0009793699719011784,68015805,-0.0009793699719011784
68.01779000,68017790,-0.002044667024165392,68017790,-0.002044667024165392
68.02039400,68020394,-0.0031099640764296055,68020394,-0.0031099640764296055
68.02300000,68023000,-0.004175260663032532,68023000,-0.004175260663032532
68.02560400,68025604,-0.002044667024165392,68025604,-0.002044667024165392
68.02820900,68028209,-0.0009793699719011784,68028209,-0.0009793699719011784
68.03082500,68030825,-0.0009793699719011784,68030825,-0.0009793699719011784
68.03342900,68033429,-0.005240557715296745,68033429,-0.005240557715296745
68.03603400,68036034,0.0011512236669659615,68036034,0.0011512236669659615
68.03801500,68038015,-0.002044667024165392,68038015,-0.002044667024165392
68.04062100,68040621,8.59266147017479e-05,68040621,8.59266147017479e-05
68.04323200,68043232,-0.0009793699719011784,68043232,-0.0009793699719011784
68.04583600,68045836,0.0032818177714943886,68045836,0.0032818177714943886
68.04843900,68048439,-0.0031099640764296055,68048439,-0.0031099640764296055
68.05104600,68051046,-0.002044667024165392,68051046,-0.002044667024165392
68.05366000,68053660,-0.0009793699719011784,68053660,-0.0009793699719011784
68.05626000,68056260,-0.005240557715296745,68056260,-0.005240557715296745
68.05824400,68058244,-0.0031099640764296055,68058244,-0.0031099640764296055
68.06084200,68060842,-0.0009793699719011784,68060842,-0.0009793699719011784
68.06345100,68063451,-0.0009793699719011784,68063451,-0.0009793699719011784
68.06605400,68066054,-0.0009793699719011784,68066054,-0.0009793699719011784
68.06865400,68068654,-0.006305854767560959,68068654,-0.006305854767560959
68.07126100,68071261,0.004347114823758602,68071261,0.004347114823758602
68.07386400,68073864,-0.002044667024165392,68073864,-0.002044667024165392
68.07646700,68076467,-0.002044667024165392,68076467,-0.002044667024165392
68.07844200,68078442,-0.0009793699719011784,68078442,-0.0009793699719011784
68.08105100,68081051,0.0011512236669659615,68081051,0.0011512236669659615
68.08365400,68083654,-0.002044667024165392,68083654,-0.002044667024165392
68.08626000,68086260,-0.0009793699719011784,68086260,-0.0009793699719011784
68.08886000,68088860,0.002216520719230175,68088860,0.002216520719230175
68.09147900,68091479,-0.0009793699719011784,68091479,-0.0009793699719011784
68.09408400,68094084,-0.004175260663032532,68094084,-0.004175260663032532
68.09669700,68096697,-0.002044667024165392,68096697,-0.002044667024165392
68.09867800,68098678,-0.0031099640764296055,68098678,-0.0031099640764296055
68.10128400,68101284,-0.002044667024165392,68101284,-0.002044667024165392
68.10388900,68103889,-0.002044667024165392,68103889,-0.002044667024165392
68.10650400,68106504,-0.0031099640764296055,68106504,-0.0031099640764296055
68.10910500,68109105,8.59266147017479e-05,68109105,8.59266147017479e-05
68.11171800,68111718,-0.002044667024165392,68111718,-0.002044667024165392
68.11432600,68114326,8.59266147017479e-05,68114326,8.59266147017479e-05
68.11693400,68116934,-0.0031099640764296055,68116934,-0.0031099640764296055
68.11891100,68118911,0.002216520719230175,68118911,0.002216520719230175
68.12151900,68121519,-0.002044667024165392,68121519,-0.002044667024165392
68.12412600,68124126,0.0011512236669659615,68124126,0.0011512236669659615
68.12673900,68126739,-0.0009793699719011784,68126739,-0.0009793699719011784
68.12933800,68129338,-0.005240557715296745,68129338,-0.005240557715296745
68.13194300,68131943,-0.002044667024165392,68131943,-0.002044667024165392
68.13455500,68134555,-0.002044667024165392,68134555,-0.002044667024165392
68.13716500,68137165,-0.0009793699719011784,68137165,-0.0009793699719011784
68.13914100,68139141,-0.0031099640764296055,68139141,-0.0031099640764296055
68.14174300,68141743,8.59266147017479e-05,68141743,8.59266147017479e-05
68.14435500,68144355,-0.0009793699719011784,68144355,-0.0009793699719011784
68.14695600,68146956,8.59266147017479e-05,68146956,8.59266147017479e-05
68.14955900,68149559,0.0011512236669659615,68149559,0.0011512236669659615
68.15216200,68152162,-0.0031099640764296055,68152162,-0.0031099640764296055
68.15477000,68154770,-0.0009793699719011784,68154770,-0.0009793699719011784
68.15738300,68157383,8.59266147017479e-05,68157383,8.59266147017479e-05
68.15935900,68159359,0.002216520719230175,68159359,0.002216520719230175
68.16196700,68161967,8.59266147017479e-05,68161967,8.59266147017479e-05
68.16457100,68164571,-0.0009793699719011784,68164571,-0.0009793699719011784
68.16718600,68167186,-0.002044667024165392,68167186,-0.002044667024165392
68.16978900,68169789,-0.0009793699719011784,68169789,-0.0009793699719011784
68.17239500,68172395,-0.002044667024165392,68172395,-0.002044667024165392
68.17499900,68174999,8.59266147017479e-05,68174999,8.59266147017479e-05
68.17760700,68177607,-0.0009793699719011784,68177607,-0.0009793699719011784
68.17959000,68179590,-0.004175260663032532,68179590,-0.004175260663032532
68.18219000,68182190,-0.0009793699719011784,68182190,-0.0009793699719011784
68.18479900,68184799,0.0011512236669659615,68184799,0.0011512236669659615
68.18740600,68187406,-0.0009793699719011784,68187406,-0.0009793699719011784
68.19000800,68190008,-0.0031099640764296055,68190008,-0.0031099640764296055
68.19261600,68192616,-0.002044667024165392,68192616,-0.002044667024165392
68.19522000,68195220,-0.002044667024165392,68195220,-0.002044667024165392
68.19783600,68197836,-0.002044667024165392,68197836,-0.002044667024165392
68.19981600,68199816,-0.002044667024165392,68199816,-0.002044667024165392
68.20242400,68202424,8.59266147017479e-05,68202424,8.59266147017479e-05
68.20503400,68205034,-0.0009793699719011784,68205034,-0.0009793699719011784
68.20763500,68207635,-0.0031099640764296055,68207635,-0.0031099640764296055
68.21023800,68210238,-0.0031099640764296055,68210238,-0.0031099640764296055
68.21284500,68212845,8.59266147017479e-05,68212845,8.59266147017479e-05
68.21544500,68215445,-0.002044667024165392,68215445,-0.002044667024165392
68.21806000,68218060,0.0011512236669659615,68218060,0.0011512236669659615
68.22004300,68220043,-0.0031099640764296055,68220043,-0.0031099640764296055
68.22264400,68222644,-0.004175260663032532,68222644,-0.004175260663032532
68.22525600,68225256,-0.0009793699719011784,68225256,-0.0009793699719011784
68.22786900,68227869,8.59266147017479e-05,68227869,8.59266147017479e-05
68.23047000,68230470,-0.0009793699719011784,68230470,-0.0009793699719011784
68.23308600,68233086,-0.0031099640764296055,68233086,-0.0031099640764296055
68.23568700,68235687,0.002216520719230175,68235687,0.002216520719230175
68.23829800,68238298,-0.0009793699719011784,68238298,-0.0009793699719011784
68.24027800,68240278,8.59266147017479e-05,68240278,8.59266147017479e-05
68.24288400,68242884,-0.0009793699719011784,68242884,-0.0009793699719011784
68.24549200,68245492,-0.002044667024165392,68245492,-0.002044667024165392
68.24809500,68248095,-0.002044667024165392,68248095,-0.002044667024165392
68.25069700,68250697,-0.0009793699719011784,68250697,-0.0009793699719011784
68.25330300,68253303,8.59266147017479e-05,68253303,8.59266147017479e-05
68.25591300,68255913,-0.0031099640764296055,68255913,-0.0031099640764296055
68.25851400,68258514,-0.0009793699719011784,68258514,-0.0009793699719011784
68.26050200,68260502,-0.002044667024165392,68260502,-0.002044667024165392
68.26310600,68263106,-0.006305854767560959,68263106,-0.006305854767560959
68.26571400,68265714,-0.0031099640764296055,68265714,-0.0031099640764296055
68.26831600,68268316,-0.0031099640764296055,68268316,-0.0031099640764296055
68.27091700,68270917,-0.002044667024165392,68270917,-0.002044667024165392
68.27353400,68273534,0.002216520719230175,68273534,0.002216520719230175
68.27613700,68276137,-0.0031099640764296055,68276137,-0.0031099640764296055
68.27874800,68278748,-0.004175260663032532,68278748,-0.004175260663032532
68.28073100,68280731,8.59266147017479e-05,68280731,8.59266147017479e-05
68.28334200,68283342,-0.002044667024165392,68283342,-0.002044667024165392
68.28595500,68285955,-0.0009793699719011784,68285955,-0.0009793699719011784
68.28856500,68288565,-0.0031099640764296055,68288565,-0.0031099640764296055
68.29116900,68291169,8.59266147017479e-05,68291169,8.59266147017479e-05
68.29377400,68293774,-0.0031099640764296055,68293774,-0.0031099640764296055
68.29638200,68296382,-0.005240557715296745,68296382,-0.005240557715296745
68.29898500,68298985,8.59266147017479e-05,68298985,8.59266147017479e-05
68.30096000,68300960,-0.005240557715296745,68300960,-0.005240557715296745
68.30356600,68303566,-0.0009793699719011784,68303566,-0.0009793699719011784
68.30616900,68306169,0.0011512236669659615,68306169,0.0011512236669659615
68.30877800,68308778,8.59266147017479e-05,68308778,8.59266147017479e-05
68.31138000,68311380,8.59266147017479e-05,68311380,8.59266147017479e-05
68.31398600,68313986,8.59266147017479e-05,68313986,8.59266147017479e-05
68.31659600,68316596,-0.0031099640764296055,68316596,-0.0031099640764296055
68.31920400,68319204,-0.0009793699719011784,68319204,-0.0009793699719011784
68.32118200,68321182,-0.006305854767560959,68321182,-0.006305854767560959
68.32378200,68323782,0.0011512236669659615,68323782,0.0011512236669659615
68.32638800,68326388,-0.002044667024165392,68326388,-0.002044667024165392
68.32899600,68328996,-0.0009793699719011784,68328996,-0.0009793699719011784
68.33159800,68331598,8.59266147017479e-05,68331598,8.59266147017479e-05
68.33421400,68334214,-0.0009793699719011784,68334214,-0.0009793699719011784
68.33682400,68336824,8.59266147017479e-05,68336824,8.59266147017479e-05
68.33943600,68339436,0.0011512236669659615,68339436,0.0011512236669659615
68.34141200,68341412,-0.0009793699719011784,68341412,-0.0009793699719011784
68.34401200,68344012,-0.0009793699719011784,68344012,-0.0009793699719011784
68.34663000,68346630,8.59266147017479e-05,68346630,8.59266147017479e-05
68.34923900,68349239,-0.004175260663032532,68349239,-0.004175260663032532
68.35184100,68351841,-0.002044667024165392,68351841,-0.002044667024165392
68.35444200,68354442,0.002216520719230175,68354442,0.002216520719230175
68.35705700,68357057,-0.0009793699719011784,68357057,-0.0009793699719011784
68.35966600,68359666,8.59266147017479e-05,68359666,8.59266147017479e-05
68.36164400,68361644,-0.0031099640764296055,68361644,-0.0031099640764296055
68.36424900,68364249,-0.0009793699719011784,68364249,-0.0009793699719011784
68.36685900,68366859,8.59266147017479e-05,68366859,8.59266147017479e-05
68.36946200,68369462,0.0011512236669659615,68369462,0.0011512236669659615
68.37206600,68372066,8.59266147017479e-05,68372066,8.59266147017479e-05
68.37467600,68374676,-0.004175260663032532,68374676,-0.004175260663032532
68.37727900,68377279,-0.002044667024165392,68377279,-0.002044667024165392
68.37989400,68379894,-0.0031099640764296055,68379894,-0.0031099640764296055
68.38188100,68381881,-0.0031099640764296055,68381881,-0.0031099640764296055
68.38448300,68384483,0.004347114823758602,68384483,0.004347114823758602
68.38708700,68387087,-0.004175260663032532,68387087,-0.004175260663032532
68.38969200,68389692,0.0011512236669659615,68389692,0.0011512236669659615
68.39229900,68392299,0.002216520719230175,68392299,0.002216520719230175
68.39491300,68394913,-0.0031099640764296055,68394913,-0.0031099640764296055
68.39751500,68397515,-0.0031099640764296055,68397515,-0.0031099640764296055
68.40012400,68400124,-0.0009793699719011784,68400124,-0.0009793699719011784
68.40210500,68402105,-0.002044667024165392,68402105,-0.002044667024165392
68.40471300,68404713,8.59266147017479e-05,68404713,8.59266147017479e-05
68.40731900,68407319,-0.002044667024165392,68407319,-0.002044667024165392
68.40992400,68409924,0.002216520719230175,68409924,0.002216520719230175
68.41253000,68412530,8.59266147017479e-05,68412530,8.59266147017479e-05
68.41514100,68415141,8.59266147017479e-05,68415141,8.59266147017479e-05
68.41774800,68417748,-0.002044667024165392,68417748,-0.002044667024165392
68.42036300,68420363,0.0011512236669659615,68420363,0.0011512236669659615
68.42234600,68422346,-0.005240557715296745,68422346,-0.005240557715296745
68.42494900,68424949,-0.0031099640764296055,68424949,-0.0031099640764296055
68.42755500,68427555,-0.0009793699719011784,68427555,-0.0009793699719011784
68.43016000,68430160,-0.002044667024165392,68430160,-0.002044667024165392
68.43276400,68432764,-0.002044667024165392,68432764,-0.002044667024165392
68.43537700,68435377,0.0011512236669659615,68435377,0.0011512236669659615
68.43798500,68437985,-0.004175260663032532,68437985,-0.004175260663032532
68.44059200,68440592,0.0011512236669659615,68440592,0.0011512236669659615
68.44257300,68442573,8.59266147017479e-05,68442573,8.59266147017479e-05
68.44517700,68445177,-0.002044667024165392,68445177,-0.002044667024165392
68.44778800,68447788,-0.002044667024165392,68447788,-0.002044667024165392
68.45039100,68450391,0.002216520719230175,68450391,0.002216520719230175
68.45299100,68452991,-0.0009793699719011784,68452991,-0.0009793699719011784
68.45560100,68455601,-0.006305854767560959,68455601,-0.006305854767560959
68.45821400,68458214,-0.002044667024165392,68458214,-0.002044667024165392
68.46081800,68460818,-0.0009793699719011784,68460818,-0.0009793699719011784
68.46279800,68462798,0.0032818177714943886,68462798,0.0032818177714943886
68.46539900,68465399,-0.005240557715296745,68465399,-0.005240557715296745
68.46800600,68468006,8.59266147017479e-05,68468006,8.59266147017479e-05
68.47061100,68470611,-0.0009793699719011784,68470611,-0.0009793699719011784
68.47321600,68473216,-0.002044667024165392,68473216,-0.002044667024165392
68.47582300,68475823,0.0011512236669659615,68475823,0.0011512236669659615
68.47843800,68478438,8.59266147017479e-05,68478438,8.59266147017479e-05
68.48104500,68481045,-0.002044667024165392,68481045,-0.002044667024165392
68.48302300,68483023,-0.004175260663032532,68483023,-0.004175260663032532
68.48562900,68485629,0.0011512236669659615,68485629,0.0011512236669659615
68.48824900,68488249,-0.0009793699719011784,68488249,-0.0009793699719011784
68.49085300,68490853,-0.002044667024165392,68490853,-0.002044667024165392
68.49346100,68493461,-0.0009793699719011784,68493461,-0.0009793699719011784
68.49606500,68496065,-0.0009793699719011784,68496065,-0.0009793699719011784
68.49867000,68498670,-0.002044667024165392,68498670,-0.002044667024165392
68.50128400,68501284,-0.0009793699719011784,68501284,-0.0009793699719011784
68.50326100,68503261,-0.002044667024165392,68503261,-0.002044667024165392
68.50586500,68505865,-0.002044667024165392,68505865,-0.002044667024165392
68.50847600,68508476,-0.002044667024165392,68508476,-0.002044667024165392
68.51108100,68511081,-0.0009793699719011784,68511081,-0.0009793699719011784
68.51368400,68513684,0.004347114823758602,68513684,0.004347114823758602
68.51630000,68516300,-0.002044667024165392,68516300,-0.002044667024165392
68.51890300,68518903,-0.0009793699719011784,68518903,-0.0009793699719011784
68.52151100,68521511,-0.0009793699719011784,68521511,-0.0009793699719011784
68.52348900,68523489,-0.002044667024165392,68523489,-0.002044667024165392
68.52609500,68526095,-0.0031099640764296055,68526095,-0.0031099640764296055
68.52870300,68528703,-0.0009793699719011784,68528703,-0.0009793699719011784
68.53130900,68531309,0.002216520719230175,68531309,0.002216520719230175
68.53390900,68533909,-0.002044667024165392,68533909,-0.002044667024165392
68.53651700,68536517,0.0011512236669659615,68536517,0.0011512236669659615
68.53912100,68539121,-0.0031099640764296055,68539121,-0.0031099640764296055
68.54173000,68541730,8.59266147017479e-05,68541730,8.59266147017479e-05
68.54371500,68543715,-0.006305854767560959,68543715,-0.006305854767560959
68.54631600,68546316,0.002216520719230175,68546316,0.002216520719230175
68.54892300,68548923,-0.004175260663032532,68548923,-0.004175260663032532
68.55152700,68551527,-0.0009793699719011784,68551527,-0.0009793699719011784
68.55412900,68554129,-0.0009793699719011784,68554129,-0.0009793699719011784
68.55673100,68556731,-0.005240557715296745,68556731,-0.005240557715296745
68.55934200,68559342,-0.0009793699719011784,68559342,-0.0009793699719011784
68.56195500,68561955,0.0011512236669659615,68561955,0.0011512236669659615
68.56394200,68563942,-0.002044667024165392,68563942,-0.002044667024165392
68.56654500,68566545,-0.0009793699719011784,68566545,-0.0009793699719011784
68.56915200,68569152,8.59266147017479e-05,68569152,8.59266147017479e-05
68.57175300,68571753,8.59266147017479e-05,68571753,8.59266147017479e-05
68.57436200,68574362,-0.0031099640764296055,68574362,-0.0031099640764296055
68.57696800,68576968,8.59266147017479e-05,68576968,8.59266147017479e-05
68.57957000,68579570,8.59266147017479e-05,68579570,8.59266147017479e-05
68.58218100,68582181,-0.005240557715296745,68582181,-0.005240557715296745
68.58415600,68584156,-0.0009793699719011784,68584156,-0.0009793699719011784
68.58675900,68586759,8.59266147017479e-05,68586759,8.59266147017479e-05
68.58936400,68589364,-0.0009793699719011784,68589364,-0.0009793699719011784
68.59197100,68591971,-0.004175260663032532,68591971,-0.004175260663032532
68.59457000,68594570,-0.002044667024165392,68594570,-0.002044667024165392
68.59718000,68597180,-0.002044667024165392,68597180,-0.002044667024165392
68.59978500,68599785,8.59266147017479e-05,68599785,8.59266147017479e-05
68.60239100,68602391,-0.0009793699719011784,68602391,-0.0009793699719011784
68.60437100,68604371,-0.0031099640764296055,68604371,-0.0031099640764296055
68.60697300,68606973,-0.002044667024165392,68606973,-0.002044667024165392
68.60957800,68609578,-0.002044667024165392,68609578,-0.002044667024165392
68.61218500,68612185,-0.0009793699719011784,68612185,-0.0009793699719011784
68.61478800,68614788,8.59266147017479e-05,68614788,8.59266147017479e-05
68.61740000,68617400,0.002216520719230175,68617400,0.002216520719230175
68.62000600,68620006,-0.002044667024165392,68620006,-0.002044667024165392
68.62260700,68622607,-0.0031099640764296055,68622607,-0.0031099640764296055
68.62459000,68624590,-0.0009793699719011784,68624590,-0.0009793699719011784
68.62719700,68627197,-0.002044667024165392,68627197,-0.002044667024165392
68.62980900,68629809,-0.0009793699719011784,68629809,-0.0009793699719011784
68.63241300,68632413,-0.002044667024165392,68632413,-0.002044667024165392
68.63501400,68635014,-0.0009793699719011784,68635014,-0.0009793699719011784
68.63762100,68637621,-0.0009793699719011784,68637621,-0.0009793699719011784
68.64023300,68640233,0.0032818177714943886,68640233,0.0032818177714943886
68.64283900,68642839,-0.002044667024165392,68642839,-0.002044667024165392
68.64481900,68644819,-0.002044667024165392,68644819,-0.002044667024165392
68.64742100,68647421,8.59266147017479e-05,68647421,8.59266147017479e-05
68.65003200,68650032,8.59266147017479e-05,68650032,8.59266147017479e-05
68.65263300,68652633,8.59266147017479e-05,68652633,8.59266147017479e-05
68.65524200,68655242,-0.002044667024165392,68655242,-0.002044667024165392
68.65784600,68657846,8.59266147017479e-05,68657846,8.59266147017479e-05
68.66045000,68660450,-0.002044667024165392,68660450,-0.002044667024165392
68.66305100,68663051,-0.0031099640764296055,68663051,-0.0031099640764296055
68.66565400,68665654,-0.0031099640764296055,68665654,-0.0031099640764296055
68.66763300,68667633,0.0032818177714943886,68667633,0.0032818177714943886
68.67024400,68670244,-0.0009793699719011784,68670244,-0.0009793699719011784
68.67284600,68672846,-0.006305854767560959,68672846,-0.006305854767560959
68.67544700,68675447,0.0011512236669659615,68675447,0.0011512236669659615
68.67805800,68678058,-0.002044667024165392,68678058,-0.002044667024165392
68.68066500,68680665,-0.002044667024165392,68680665,-0.002044667024165392
68.68327000,68683270,-0.002044667024165392,68683270,-0.002044667024165392
68.68587800,68685878,-0.006305854767560959,68685878,-0.006305854767560959
68.68785100,68687851,-0.0031099640764296055,68687851,-0.0031099640764296055
68.69045600,68690456,-0.0009793699719011784,68690456,-0.0009793699719011784
68.69305900,68693059,-0.0009793699719011784,68693059,-0.0009793699719011784
68.69565600,68695656,0.0011512236669659615,68695656,0.0011512236669659615
68.69826300,68698263,8.59266147017479e-05,68698263,8.59266147017479e-05
68.70087100,68700871,-0.002044667024165392,68700871,-0.002044667024165392
68.70347700,68703477,-0.0009793699719011784,68703477,-0.0009793699719011784
68.70608000,68706080,-0.0031099640764296055,68706080,-0.0031099640764296055
68.70806300,68708063,-0.002044667024165392,68708063,-0.002044667024165392
68.71067500,68710675,0.0011512236669659615,68710675,0.0011512236669659615
68.71328000,68713280,-0.0031099640764296055,68713280,-0.0031099640764296055
68.71588200,68715882,-0.002044667024165392,68715882,-0.002044667024165392
68.71849100,68718491,0.0032818177714943886,68718491,0.0032818177714943886
68.72109400,68721094,-0.0031099640764296055,68721094,-0.0031099640764296055
68.72369900,68723699,0.0011512236669659615,68723699,0.0011512236669659615
68.72630500,68726305,0.002216520719230175,68726305,0.002216520719230175
68.72828000,68728280,-0.002044667024165392,68728280,-0.002044667024165392
68.73089200,68730892,-0.002044667024165392,68730892,-0.002044667024165392
68.73350100,68733501,0.002216520719230175,68733501,0.002216520719230175
68.73610500,68736105,-0.0031099640764296055,68736105,-0.0031099640764296055
68.73871100,68738711,0.0011512236669659615,68738711,0.0011512236669659615
68.74131100,68741311,-0.0009793699719011784,68741311,-0.0009793699719011784
68.74391200,68743912,-0.0009793699719011784,68743912,-0.0009793699719011784
68.74651900,68746519,0.0011512236669659615,68746519,0.0011512236669659615
68.74849300,68748493,8.59266147017479e-05,68748493,8.59266147017479e-05
68.75110400,68751104,-0.004175260663032532,68751104,-0.004175260663032532
68.75372200,68753722,-0.0009793699719011784,68753722,-0.0009793699719011784
68.75632400,68756324,-0.002044667024165392,68756324,-0.002044667024165392
68.75892400,68758924,-0.004175260663032532,68758924,-0.004175260663032532
68.76153400,68761534,-0.005240557715296745,68761534,-0.005240557715296745
68.76414200,68764142,-0.002044667024165392,68764142,-0.002044667024165392
68.76674600,68766746,-0.004175260663032532,68766746,-0.004175260663032532
68.76872900,68768729,-0.005240557715296745,68768729,-0.005240557715296745
68.77133600,68771336,8.59266147017479e-05,68771336,8.59266147017479e-05
68.77394800,68773948,-0.0031099640764296055,68773948,-0.0031099640764296055
68.77655100,68776551,-0.0031099640764296055,68776551,-0.0031099640764296055
68.77915200,68779152,-0.002044667024165392,68779152,-0.002044667024165392
68.78175300,68781753,-0.0031099640764296055,68781753,-0.0031099640764296055
68.78436200,68784362,-0.002044667024165392,68784362,-0.002044667024165392
68.78697000,68786970,8.59266147017479e-05,68786970,8.59266147017479e-05
68.78894500,68788945,-0.002044667024165392,68788945,-0.002044667024165392
68.79155100,68791551,-0.0009793699719011784,68791551,-0.0009793699719011784
68.79415500,68794155,8.59266147017479e-05,68794155,8.59266147017479e-05
68.79675500,68796755,-0.004175260663032532,68796755,-0.004175260663032532
68.79936800,68799368,-0.0009793699719011784,68799368,-0.0009793699719011784
68.80196800,68801968,-0.004175260663032532,68801968,-0.004175260663032532
68.80457600,68804576,0.0011512236669659615,68804576,0.0011512236669659615
68.80718600,68807186,-0.0009793699719011784,68807186,-0.0009793699719011784
68.80979300,68809793,-0.0031099640764296055,68809793,-0.0031099640764296055
68.81177800,68811778,0.0011512236669659615,68811778,0.0011512236669659615
68.81438400,68814384,0.0011512236669659615,68814384,0.0011512236669659615
68.81698300,68816983,-0.0009793699719011784,68816983,-0.0009793699719011784
68.81958900,68819589,-0.005240557715296745,68819589,-0.005240557715296745
68.82219100,68822191,-0.0009793699719011784,68822191,-0.0009793699719011784
68.82479600,68824796,-0.005240557715296745,68824796,-0.005240557715296745
68.82740000,68827400,-0.0031099640764296055,68827400,-0.0031099640764296055
68.83000800,68830008,-0.0009793699719011784,68830008,-0.0009793699719011784
68.83199200,68831992,-0.0009793699719011784,68831992,-0.0009793699719011784
68.83459600,68834596,8.59266147017479e-05,68834596,8.59266147017479e-05
68.83719800,68837198,8.59266147017479e-05,68837198,8.59266147017479e-05
68.83981000,68839810,8.59266147017479e-05,68839810,8.59266147017479e-05
68.84241400,68842414,8.59266147017479e-05,68842414,8.59266147017479e-05
68.84501700,68845017,-0.0009793699719011784,68845017,-0.0009793699719011784
68.84762100,68847621,0.0011512236669659615,68847621,0.0011512236669659615
68.85023100,68850231,-0.0031099640764296055,68850231,-0.0031099640764296055
68.85220500,68852205,-0.006305854767560959,68852205,-0.006305854767560959
68.85480600,68854806,-0.0009793699719011784,68854806,-0.0009793699719011784
68.85741000,68857410,0.0011512236669659615,68857410,0.0011512236669659615
68.86001500,68860015,-0.004175260663032532,68860015,-0.004175260663032532
68.86262900,68862629,8.59266147017479e-05,68862629,8.59266147017479e-05
68.86523600,68865236,-0.004175260663032532,68865236,-0.004175260663032532
68.86783800,68867838,0.004347114823758602,68867838,0.004347114823758602
68.87044800,68870448,-0.0009793699719011784,68870448,-0.0009793699719011784
68.87242800,68872428,0.002216520719230175,68872428,0.002216520719230175
68.87503900,68875039,-0.0031099640764296055,68875039,-0.0031099640764296055
68.87763900,68877639,-0.0031099640764296055,68877639,-0.0031099640764296055
68.88024400,68880244,-0.0009793699719011784,68880244,-0.0009793699719011784
68.88284700,68882847,-0.0009793699719011784,68882847,-0.0009793699719011784
68.88546200,68885462,-0.002044667024165392,68885462,-0.002044667024165392
68.88806400,68888064,-0.002044667024165392,68888064,-0.002044667024165392
68.89067600,68890676,8.59266147017479e-05,68890676,8.59266147017479e-05
68.89265600,68892656,-0.0031099640764296055,68892656,-0.0031099640764296055
68.89526200,68895262,8.59266147017479e-05,68895262,8.59266147017479e-05
68.89786600,68897866,-0.0009793699719011784,68897866,-0.0009793699719011784
68.90048000,68900480,-0.0009793699719011784,68900480,-0.0009793699719011784
68.90308300,68903083,-0.0031099640764296055,68903083,-0.0031099640764296055
68.90568700,68905687,-0.002044667024165392,68905687,-0.002044667024165392
68.90829100,68908291,-0.005240557715296745,68908291,-0.005240557715296745
68.91090000,68910900,0.005412411876022816,68910900,0.005412411876022816
68.91288100,68912881,-0.0031099640764296055,68912881,-0.0031099640764296055
68.91549200,68915492,-0.0009793699719011784,68915492,-0.0009793699719011784
68.91809600,68918096,-0.002044667024165392,68918096,-0.002044667024165392
68.92069800,68920698,-0.004175260663032532,68920698,-0.004175260663032532
68.92330200,68923302,-0.002044667024165392,68923302,-0.002044667024165392
68.92591300,68925913,-0.0031099640764296055,68925913,-0.0031099640764296055
68.92851200,68928512,-0.002044667024165392,68928512,-0.002044667024165392
68.93113100,68931131,0.0011512236669659615,68931131,0.0011512236669659615
68.93311100,68933111,8.59266147017479e-05,68933111,8.59266147017479e-05
68.93571600,68935716,-0.0009793699719011784,68935716,-0.0009793699719011784
68.93832200,68938322,-0.0031099640764296055,68938322,-0.0031099640764296055
68.94093100,68940931,0.002216520719230175,68940931,0.002216520719230175
68.94354200,68943542,8.59266147017479e-05,68943542,8.59266147017479e-05
68.94614500,68946145,-0.002044667024165392,68946145,-0.002044667024165392
68.94875000,68948750,8.59266147017479e-05,68948750,8.59266147017479e-05
68.95135600,68951356,-0.0009793699719011784,68951356,-0.0009793699719011784
68.95334100,68953341,8.59266147017479e-05,68953341,8.59266147017479e-05
68.95594000,68955940,-0.0031099640764296055,68955940,-0.0031099640764296055
68.95854000,68958540,-0.0031099640764296055,68958540,-0.0031099640764296055
68.96114500,68961145,-0.0009793699719011784,68961145,-0.0009793699719011784
68.96374900,68963749,-0.002044667024165392,68963749,-0.002044667024165392
68.96636100,68966361,-0.004175260663032532,68966361,-0.004175260663032532
68.96896100,68968961,-0.0009793699719011784,68968961,-0.0009793699719011784
68.97156500,68971565,-0.0009793699719011784,68971565,-0.0009793699719011784
68.97354400,68973544,0.002216520719230175,68973544,0.002216520719230175
68.97615200,68976152,-0.0031099640764296055,68976152,-0.0031099640764296055
68.97875200,68978752,8.59266147017479e-05,68978752,8.59266147017479e-05
68.98136200,68981362,-0.006305854767560959,68981362,-0.006305854767560959
68.98397600,68983976,8.59266147017479e-05,68983976,8.59266147017479e-05
68.98659500,68986595,-0.0009793699719011784,68986595,-0.0009793699719011784
68.98919600,68989196,-0.0031099640764296055,68989196,-0.0031099640764296055
68.99180600,68991806,-0.0009793699719011784,68991806,-0.0009793699719011784
68.99378800,68993788,0.0011512236669659615,68993788,0.0011512236669659615
68.99639300,68996393,-0.0009793699719011784,68996393,-0.0009793699719011784
68.99899500,68998995,-0.0031099640764296055,68998995,-0.0031099640764296055
69.00160700,69001607,-0.006305854767560959,69001607,-0.006305854767560959
69.00421300,69004213,-0.0009793699719011784,69004213,-0.0009793699719011784
69.00681800,69006818,8.59266147017479e-05,69006818,8.59266147017479e-05
69.00942200,69009422,-0.0031099640764296055,69009422,-0.0031099640764296055
69.01202600,69012026,8.59266147017479e-05,69012026,8.59266147017479e-05
69.01400700,69014007,8.59266147017479e-05,69014007,8.59266147017479e-05
69.01660900,69016609,-0.004175260663032532,69016609,-0.004175260663032532
69.01921600,69019216,-0.004175260663032532,69019216,-0.004175260663032532
69.02182200,69021822,0.0011512236669659615,69021822,0.0011512236669659615
69.02443100,69024431,-0.0009793699719011784,69024431,-0.0009793699719011784
69.02704900,69027049,0.0011512236669659615,69027049,0.0011512236669659615
69.02965500,69029655,8.59266147017479e-05,69029655,8.59266147017479e-05
69.03227000,69032270,-0.002044667024165392,69032270,-0.002044667024165392
69.03424900,69034249,0.0011512236669659615,69034249,0.0011512236669659615
69.03685400,69036854,8.59266147017479e-05,69036854,8.59266147017479e-05
69.03945600,69039456,-0.002044667024165392,69039456,-0.002044667024165392
69.04206200,69042062,8.59266147017479e-05,69042062,8.59266147017479e-05
69.04466300,69044663,-0.0009793699719011784,69044663,-0.0009793699719011784
69.04727700,69047277,8.59266147017479e-05,69047277,8.59266147017479e-05
69.04987900,69049879,-0.0009793699719011784,69049879,-0.0009793699719011784
69.05249300,69052493,-0.0031099640764296055,69052493,-0.0031099640764296055
69.05447200,69054472,-0.002044667024165392,69054472,-0.002044667024165392
69.05707300,69057073,-0.004175260663032532,69057073,-0.004175260663032532
69.05967300,69059673,-0.0009793699719011784,69059673,-0.0009793699719011784
69.06227400,69062274,-0.0031099640764296055,69062274,-0.0031099640764296055
69.06488100,69064881,-0.0009793699719011784,69064881,-0.0009793699719011784
69.06749400,69067494,-0.0009793699719011784,69067494,-0.0009793699719011784
69.07009700,69070097,-0.002044667024165392,69070097,-0.002044667024165392
69.07270400,69072704,-0.004175260663032532,69072704,-0.004175260663032532
69.07468300,69074683,-0.0009793699719011784,69074683,-0.0009793699719011784
69.07728400,69077284,8.59266147017479e-05,69077284,8.59266147017479e-05
69.07988600,69079886,0.0011512236669659615,69079886,0.0011512236669659615
69.08250500,69082505,-0.0031099640764296055,69082505,-0.0031099640764296055
69.08510700,69085107,-0.004175260663032532,69085107,-0.004175260663032532
69.08771600,69087716,-0.0031099640764296055,69087716,-0.0031099640764296055
69.09031800,69090318,8.59266147017479e-05,69090318,8.59266147017479e-05
69.09292300,69092923,8.59266147017479e-05,69092923,8.59266147017479e-05
69.09490200,69094902,-0.0031099640764296055,69094902,-0.0031099640764296055
69.09751100,69097511,0.0011512236669659615,69097511,0.0011512236669659615
69.10011300,69100113,-0.004175260663032532,69100113,-0.004175260663032532
69.10272600,69102726,-0.0031099640764296055,69102726,-0.0031099640764296055
69.10532800,69105328,-0.002044667024165392,69105328,-0.002044667024165392
69.10793100,69107931,-0.0009793699719011784,69107931,-0.0009793699719011784
69.11053400,69110534,0.0011512236669659615,69110534,0.0011512236669659615
69.11314800,69113148,0.0011512236669659615,69113148,0.0011512236669659615
69.11512800,69115128,-0.004175260663032532,69115128,-0.004175260663032532
69.11773000,69117730,0.0011512236669659615,69117730,0.0011512236669659615
69.12033400,69120334,-0.006305854767560959,69120334,-0.006305854767560959
69.12294200,69122942,8.59266147017479e-05,69122942,8.59266147017479e-05
69.12555100,69125551,-0.0031099640764296055,69125551,-0.0031099640764296055
69.12815600,69128156,0.0032818177714943886,69128156,0.0032818177714943886
69.13076600,69130766,-0.002044667024165392,69130766,-0.002044667024165392
69.13337800,69133378,-0.0031099640764296055,69133378,-0.0031099640764296055
69.13536200,69135362,-0.0031099640764296055,69135362,-0.0031099640764296055
69.13797000,69137970,-0.002044667024165392,69137970,-0.002044667024165392
69.14057200,69140572,-0.0009793699719011784,69140572,-0.0009793699719011784
69.14318200,69143182,0.002216520719230175,69143182,0.002216520719230175
69.14578400,69145784,-0.004175260663032532,69145784,-0.004175260663032532
69.14839200,69148392,8.59266147017479e-05,69148392,8.59266147017479e-05
69.15099400,69150994,-0.0009793699719011784,69150994,-0.0009793699719011784
69.15359900,69153599,-0.004175260663032532,69153599,-0.004175260663032532
69.15558900,69155589,8.59266147017479e-05,69155589,8.59266147017479e-05
69.15819000,69158190,-0.002044667024165392,69158190,-0.002044667024165392
69.16079700,69160797,-0.0031099640764296055,69160797,-0.0031099640764296055
69.16340100,69163401,0.002216520719230175,69163401,0.002216520719230175
69.16600300,69166003,-0.0031099640764296055,69166003,-0.0031099640764296055
69.16861100,69168611,0.0011512236669659615,69168611,0.0011512236669659615
69.17121400,69171214,0.0011512236669659615,69171214,0.0011512236669659615
69.17382200,69173822,8.59266147017479e-05,69173822,8.59266147017479e-05
69.17642500,69176425,-0.002044667024165392,69176425,-0.002044667024165392
69.17840300,69178403,0.0011512236669659615,69178403,0.0011512236669659615
69.18100300,69181003,-0.0031099640764296055,69181003,-0.0031099640764296055
69.18361900,69183619,-0.006305854767560959,69183619,-0.006305854767560959
69.18622200,69186222,0.0011512236669659615,69186222,0.0011512236669659615
69.18882800,69188828,-0.002044667024165392,69188828,-0.002044667024165392
69.19143500,69191435,8.59266147017479e-05,69191435,8.59266147017479e-05
69.19403900,69194039,-0.0031099640764296055,69194039,-0.0031099640764296055
69.19664200,69196642,0.0011512236669659615,69196642,0.0011512236669659615
69.19862600,69198626,-0.006305854767560959,69198626,-0.006305854767560959
69.20122800,69201228,-0.0009793699719011784,69201228,-0.0009793699719011784
69.20383500,69203835,-0.0009793699719011784,69203835,-0.0009793699719011784
69.20644100,69206441,-0.004175260663032532,69206441,-0.004175260663032532
69.20905200,69209052,-0.002044667024165392,69209052,-0.002044667024165392
69.21165300,69211653,0.0011512236669659615,69211653,0.0011512236669659615
69.21426000,69214260,-0.0031099640764296055,69214260,-0.0031099640764296055
69.21686100,69216861,-0.002044667024165392,69216861,-0.002044667024165392
69.21884200,69218842,0.002216520719230175,69218842,0.002216520719230175
69.22144400,69221444,-0.0031099640764296055,69221444,-0.0031099640764296055
69.22404900,69224049,-0.0009793699719011784,69224049,-0.0009793699719011784
69.22665000,69226650,-0.002044667024165392,69226650,-0.002044667024165392
69.22926600,69229266,-0.002044667024165392,69229266,-0.002044667024165392
69.23186800,69231868,-0.002044667024165392,69231868,-0.002044667024165392
69.23447600,69234476,-0.0009793699719011784,69234476,-0.0009793699719011784
69.23707600,69237076,8.59266147017479e-05,69237076,8.59266147017479e-05
69.23906000,69239060,-0.0031099640764296055,69239060,-0.0031099640764296055
69.24166100,69241661,-0.002044667024165392,69241661,-0.002044667024165392
69.24427400,69244274,-0.002044667024165392,69244274,-0.002044667024165392
69.24688200,69246882,-0.004175260663032532,69246882,-0.004175260663032532
69.24949300,69249493,8.59266147017479e-05,69249493,8.59266147017479e-05
69.25210100,69252101,-0.005240557715296745,69252101,-0.005240557715296745
69.25470700,69254707,-0.0009793699719011784,69254707,-0.0009793699719011784
69.25731300,69257313,-0.0009793699719011784,69257313,-0.0009793699719011784
69.25929900,69259299,8.59266147017479e-05,69259299,8.59266147017479e-05
69.26190800,69261908,-0.0009793699719011784,69261908,-0.0009793699719011784
69.26450900,69264509,-0.0031099640764296055,69264509,-0.0031099640764296055
69.26711900,69267119,-0.002044667024165392,69267119,-0.002044667024165392
69.26972000,69269720,8.59266147017479e-05,69269720,8.59266147017479e-05
69.27232700,69272327,-0.0031099640764296055,69272327,-0.0031099640764296055
69.27493100,69274931,-0.002044667024165392,69274931,-0.002044667024165392
69.27753700,69277537,-0.002044667024165392,69277537,-0.002044667024165392
69.27951900,69279519,0.002216520719230175,69279519,0.002216520719230175
69.28212300,69282123,8.59266147017479e-05,69282123,8.59266147017479e-05
69.28473000,69284730,8.59266147017479e-05,69284730,8.59266147017479e-05
69.28733400,69287334,-0.002044667024165392,69287334,-0.002044667024165392
69.28994200,69289942,8.59266147017479e-05,69289942,8.59266147017479e-05
69.29254500,69292545,-0.002044667024165392,69292545,-0.002044667024165392
69.29515300,69295153,-0.0009793699719011784,69295153,-0.0009793699719011784
