timestamp,TimeUS,ACCx
89.21004800,89210048,-0.1149216815829277
89.21057000,89210570,-0.11013327538967133
89.21109800,89211098,-0.11013327538967133
89.21162100,89211621,-0.1149216815829277
89.21214400,89212144,-0.1149216815829277
89.21266800,89212668,-0.12449848651885986
89.21325600,89213256,-0.12928688526153564
89.21378200,89213782,-0.13407529890537262
89.21432800,89214328,-0.12449848651885986
89.21434800,89214348,-0.11971008777618408
89.21483800,89214838,-0.1149216815829277
89.21548600,89215486,-0.11971008777618408
89.21604800,89216048,-0.11971008777618408
89.21657500,89216575,-0.12449848651885986
89.21709700,89217097,-0.12928688526153564
89.21762100,89217621,-0.11971008777618408
89.21819800,89218198,-0.1149216815829277
89.21867400,89218674,-0.11013327538967133
89.21919500,89219195,-0.1149216815829277
89.21971800,89219718,-0.1149216815829277
89.22024500,89220245,-0.1149216815829277
89.22077300,89220773,-0.11971008777618408
89.22130100,89221301,-0.11971008777618408
89.22182100,89221821,-0.1149216815829277
89.22234300,89222343,-0.11013327538967133
89.22302700,89223027,-0.11013327538967133
89.22304700,89223047,-0.1149216815829277
89.22356100,89223561,-0.11971008777618408
89.22407900,89224079,-0.1149216815829277
89.22460400,89224604,-0.11013327538967133
89.22512600,89225126,-0.1149216815829277
89.22570000,89225700,-0.1149216815829277
89.22650600,89226506,-0.1149216815829277
90.48007000,90480070,-0.13407529890537262
90.48009000,90480090,-0.019153613597154617
90.48056700,90480567,-0.038307227194309235
90.48109400,90481094,-0.038307227194309235
90.48161600,90481616,-0.033518824726343155
90.48213800,90482138,-0.05267243832349777
90.48266200,90482662,-0.07661445438861847
90.48325400,90483254,-0.090979665517807
90.48377400,90483774,-0.10055647045373917
90.48429600,90484296,-0.11013327538967133
90.48482600,90484826,-0.1149216815829277
90.48534800,90485348,-0.11971008777618408
90.48605600,90486056,-0.11971008777618408
90.48658100,90486581,-0.1149216815829277
90.48710600,90487106,-0.10534487664699554
90.48765700,90487657,-0.10534487664699554
90.48767900,90487679,-0.11013327538967133
90.48819800,90488198,-0.1149216815829277
90.48868200,90488682,-0.1149216815829277
90.48920800,90489208,-0.1149216815829277
90.48972900,90489729,-0.11013327538967133
90.49025300,90490253,-0.11013327538967133
90.49078400,90490784,-0.1149216815829277
90.49131500,90491315,-0.11971008777618408
90.49183200,90491832,-0.11971008777618408
90.49253800,90492538,-0.11971008777618408
90.49305900,90493059,-0.11971008777618408
90.49358800,90493588,-0.11971008777618408
90.49410900,90494109,-0.11971008777618408
90.49463100,90494631,-0.11971008777618408
90.49515400,90495154,-0.12449848651885986
90.49574100,90495741,-0.12928688526153564
90.49629100,90496291,-0.12928688526153564
90.49631500,90496315,-0.12928688526153564
90.49678400,90496784,-0.14365209639072418
90.49732000,90497320,-0.15801730751991272
90.49784400,90497844,-0.15801730751991272
90.49856000,90498560,-0.15801730751991272
90.49908500,90499085,-0.15322890877723694
90.49960400,90499604,-0.14365209639072418
90.50013500,90500135,-0.12928688526153564
90.50070100,90500701,-0.12449848651885986
90.50119600,90501196,-0.11971008777618408
90.50172400,90501724,-0.11971008777618408
90.50224700,90502247,-0.12449848651885986
90.50277100,90502771,-0.12449848651885986
90.50331800,90503318,-0.11971008777618408
90.50385500,90503855,-0.1149216815829277
90.50387800,90503878,-0.1149216815829277
90.50434800,90504348,-0.11971008777618408
90.50503700,90505037,-0.11971008777618408
90.50556900,90505569,-0.12449848651885986
90.50608900,90506089,-0.12449848651885986
90.50661200,90506612,-0.1149216815829277
90.50713500,90507135,-0.10534487664699554
90.50765800,90507658,-0.10055647045373917
90.50825000,90508250,-0.10534487664699554
90.50877400,90508774,-0.11013327538967133
90.50929600,90509296,-0.11013327538967133
90.50982800,90509828,-0.10534487664699554
90.51036000,90510360,-0.11013327538967133
90.51107900,90511079,-0.1149216815829277
90.51110000,90511100,-0.11971008777618408
90.51160900,90511609,-0.11971008777618408
90.51209900,90512099,-0.1149216815829277
90.51262900,90512629,-0.11013327538967133
90.51320200,90513202,-0.11013327538967133
90.51368300,90513683,-0.10534487664699554
90.51420600,90514206,-0.11013327538967133
90.51473100,90514731,-0.11971008777618408
90.51525600,90515256,-0.12928688526153564
90.51578400,90515784,-0.12928688526153564
90.51634300,90516343,-0.12449848651885986
90.51683900,90516839,-0.12449848651885986
90.51755700,90517557,-0.12928688526153564
90.51757700,90517577,-0.12928688526153564
90.51805600,90518056,-0.13407529890537262
90.51858600,90518586,-0.13407529890537262
90.51911200,90519112,-0.13407529890537262
90.51963100,90519631,-0.12928688526153564
90.52016700,90520167,-0.12449848651885986
90.52075400,90520754,-0.11971008777618408
90.52128000,90521280,-0.12449848651885986
90.52180800,90521808,-0.12449848651885986
90.52234200,90522342,-0.11971008777618408
90.52305100,90523051,-0.11971008777618408
90.52307200,90523072,-0.11971008777618408
90.52355600,90523556,-0.12449848651885986
90.52408300,90524083,-0.12928688526153564
90.52460100,90524601,-0.13407529890537262
90.52513000,90525130,-0.12928688526153564
90.52569800,90525698,-0.11971008777618408
90.52618000,90526180,-0.1149216815829277
90.52670600,90526706,-0.11013327538967133
90.52722500,90527225,-0.11013327538967133
90.52775200,90527752,-0.1149216815829277
90.52828100,90528281,-0.1149216815829277
90.52880700,90528807,-0.11013327538967133
90.52932900,90529329,-0.10534487664699554
90.52991200,90529912,-0.1149216815829277
90.53052900,90530529,-0.11971008777618408
90.53109400,90531094,-0.11971008777618408
90.53161500,90531615,-0.11971008777618408
90.53216300,90532163,-0.12449848651885986
90.53218300,90532183,-0.12928688526153564
90.53266000,90532660,-0.12928688526153564
90.53324900,90533249,-0.12928688526153564
90.53377400,90533774,-0.12449848651885986
90.53429400,90534294,-0.11971008777618408
90.53482800,90534828,-0.1149216815829277
90.53539700,90535397,-0.1149216815829277
90.53607700,90536077,-0.1149216815829277
90.53660100,90536601,-0.11971008777618408
90.53712000,90537120,-0.12449848651885986
90.53764600,90537646,-0.13407529890537262
90.53823300,90538233,-0.13407529890537262
90.53870000,90538700,-0.12928688526153564
90.53925100,90539251,-0.12449848651885986
90.53927200,90539272,-0.12449848651885986
90.53974600,90539746,-0.12928688526153564
90.54027200,90540272,-0.12928688526153564
90.54079900,90540799,-0.13407529890537262
90.54132400,90541324,-0.12928688526153564
90.54184500,90541845,-0.12928688526153564
90.54250200,90542502,-0.12449848651885986
90.54302400,90543024,-0.11971008777618408
90.54358700,90543587,-0.11971008777618408
90.54411000,90544110,-0.12449848651885986
90.54463100,90544631,-0.12449848651885986
90.54515600,90545156,-0.12449848651885986
90.54574200,90545742,-0.12449848651885986
90.54626500,90546265,-0.11971008777618408
90.54678800,90546788,-0.11971008777618408
90.54734100,90547341,-0.12449848651885986
90.54736200,90547362,-0.12928688526153564
90.54783500,90547835,-0.12928688526153564
90.54846000,90548460,-0.11971008777618408
90.54904200,90549042,-0.1149216815829277
90.54956200,90549562,-0.1149216815829277
90.55008600,90550086,-0.1149216815829277
90.55060700,90550607,-0.1149216815829277
90.55114300,90551143,-0.11971008777618408
90.55166400,90551664,-0.12449848651885986
90.55218900,90552189,-0.12449848651885986
90.55271200,90552712,-0.1149216815829277
90.55326200,90553262,-0.10534487664699554
90.55378800,90553788,-0.10534487664699554
90.55431200,90554312,-0.11013327538967133
90.55484500,90554845,-0.11013327538967133
90.55552700,90555527,-0.1149216815829277
90.55554700,90555547,-0.1149216815829277
90.55606100,90556061,-0.11971008777618408
90.55658200,90556582,-0.11971008777618408
90.55710900,90557109,-0.12449848651885986
90.55763200,90557632,-0.12449848651885986
90.55820200,90558202,-0.12449848651885986
90.55868600,90558686,-0.11971008777618408
90.55920900,90559209,-0.1149216815829277
90.55973200,90559732,-0.11013327538967133
90.56025600,90560256,-0.1149216815829277
90.56078900,90560789,-0.1149216815829277
90.56134300,90561343,-0.1149216815829277
90.56183400,90561834,-0.1149216815829277
90.56250200,90562502,-0.11971008777618408
90.56252400,90562524,-0.12449848651885986
90.56303000,90563030,-0.12449848651885986
90.56356600,90563566,-0.11971008777618408
90.56412100,90564121,-0.11971008777618408
90.56461900,90564619,-0.1149216815829277
90.56514400,90565144,-0.10534487664699554
90.56573200,90565732,-0.10055647045373917
90.56619500,90566195,-0.10534487664699554
90.56672100,90566721,-0.11013327538967133
90.56724700,90567247,-0.1149216815829277
90.56777000,90567770,-0.11971008777618408
90.56830500,90568305,-0.11971008777618408
90.56882900,90568829,-0.11971008777618408
90.56938600,90569386,-0.12449848651885986
90.57000700,90570007,-0.12928688526153564
90.57053100,90570531,-0.12449848651885986
90.57106100,90571061,-0.11971008777618408
90.57161000,90571610,-0.11971008777618408
90.57163100,90571631,-0.11971008777618408
90.57210700,90572107,-0.12449848651885986
90.57263000,90572630,-0.12449848651885986
90.57320700,90573207,-0.11971008777618408
90.57368400,90573684,-0.11971008777618408
90.57421100,90574211,-0.1149216815829277
90.57473000,90574730,-0.11013327538967133
90.57526100,90575261,-0.11013327538967133
90.57578900,90575789,-0.1149216815829277
90.57632200,90576322,-0.11971008777618408
90.57684600,90576846,-0.12449848651885986
90.57747900,90577479,-0.11971008777618408
90.57803300,90578033,-0.11013327538967133
90.57856500,90578565,-0.11013327538967133
90.57908400,90579084,-0.1149216815829277
90.57960700,90579607,-0.11971008777618408
90.58013100,90580131,-0.11971008777618408
90.58070000,90580700,-0.1149216815829277
90.58121500,90581215,-0.11971008777618408
90.58123600,90581236,-0.11971008777618408
90.58170800,90581708,-0.11971008777618408
90.58223000,90582230,-0.1149216815829277
90.58275500,90582755,-0.1149216815829277
90.58328800,90583288,-0.11971008777618408
90.58384500,90583845,-0.1149216815829277
90.58433400,90584334,-0.12449848651885986
90.58501200,90585012,-0.12928688526153564
90.58553400,90585534,-0.12449848651885986
90.58606700,90586067,-0.1149216815829277
90.58659500,90586595,-0.1149216815829277
90.58711400,90587114,-0.11971008777618408
90.58763800,90587638,-0.1149216815829277
90.58819800,90588198,-0.11013327538967133
90.58869600,90588696,-0.11013327538967133
90.58922000,90589220,-0.11971008777618408
90.58974100,90589741,-0.12928688526153564
90.59026300,90590263,-0.13407529890537262
90.59082100,90590821,-0.13407529890537262
90.59084300,90590843,-0.12928688526153564
90.59132300,90591323,-0.12928688526153564
90.59184100,90591841,-0.12928688526153564
90.59248100,90592481,-0.13407529890537262
90.59304600,90593046,-0.1388636976480484
90.59357700,90593577,-0.1388636976480484
90.59409700,90594097,-0.12928688526153564
90.59462200,90594622,-0.11971008777618408
90.59514300,90595143,-0.11013327538967133
90.59569800,90595698,-0.10534487664699554
90.59619700,90596197,-0.11013327538967133
90.59672000,90596720,-0.11971008777618408
90.59724300,90597243,-0.11971008777618408
90.59776600,90597766,-0.12449848651885986
90.59830000,90598300,-0.12449848651885986
90.59882900,90598829,-0.11971008777618408
90.59935200,90599352,-0.1149216815829277
90.60002900,90600029,-0.1149216815829277
90.60004900,90600049,-0.11971008777618408
90.60053000,90600530,-0.11971008777618408
90.60106000,90601060,-0.11971008777618408
90.60158700,90601587,-0.1149216815829277
90.60210900,90602109,-0.11013327538967133
90.60263500,90602635,-0.11013327538967133
90.60320400,90603204,-0.11013327538967133
90.60368500,90603685,-0.11013327538967133
90.60420900,90604209,-0.11013327538967133
90.60473000,90604730,-0.1149216815829277
90.60525600,90605256,-0.11971008777618408
90.60578800,90605788,-0.11971008777618408
90.60634600,90606346,-0.1149216815829277
90.60683500,90606835,-0.11971008777618408
90.60750700,90607507,-0.11971008777618408
90.60752800,90607528,-0.1149216815829277
90.60802900,90608029,-0.1149216815829277
90.60856000,90608560,-0.11971008777618408
90.60908600,90609086,-0.12928688526153564
90.60960600,90609606,-0.12928688526153564
90.61013100,90610131,-0.12449848651885986
90.61070200,90610702,-0.12449848651885986
90.61118900,90611189,-0.12449848651885986
90.61170700,90611707,-0.12449848651885986
90.61223200,90612232,-0.11971008777618408
90.61275600,90612756,-0.1149216815829277
90.61329000,90613290,-0.1149216815829277
90.61381300,90613813,-0.1149216815829277
90.61433700,90614337,-0.11971008777618408
90.61500300,90615003,-0.11971008777618408
90.61553400,90615534,-0.11971008777618408
90.61606500,90616065,-0.11971008777618408
90.61662700,90616627,-0.12449848651885986
90.61665000,90616650,-0.12449848651885986
90.61710700,90617107,-0.11971008777618408
90.61763500,90617635,-0.1149216815829277
90.61819800,90618198,-0.1149216815829277
90.61868700,90618687,-0.11971008777618408
90.61920700,90619207,-0.11971008777618408
90.61972900,90619729,-0.12928688526153564
90.62025600,90620256,-0.12928688526153564
90.62078900,90620789,-0.12449848651885986
90.62131900,90621319,-0.11971008777618408
90.62184100,90621841,-0.1149216815829277
90.62248100,90622481,-0.11013327538967133
90.62302800,90623028,-0.11013327538967133
90.62355900,90623559,-0.1149216815829277
90.62408200,90624082,-0.11971008777618408
90.62460400,90624604,-0.11971008777618408
90.62512700,90625127,-0.11971008777618408
90.62569700,90625697,-0.12449848651885986
90.62618100,90626181,-0.12928688526153564
90.62673100,90626731,-0.13407529890537262
90.62675400,90626754,-0.13407529890537262
90.62722700,90627227,-0.12449848651885986
90.62775200,90627752,-0.12449848651885986
90.62828400,90628284,-0.12449848651885986
90.62884400,90628844,-0.12449848651885986
90.62933200,90629332,-0.12449848651885986
90.62991700,90629917,-0.11971008777618408
90.63052700,90630527,-0.11971008777618408
90.63106100,90631061,-0.11971008777618408
90.63158200,90631582,-0.11971008777618408
90.63210600,90632106,-0.1149216815829277
90.63263100,90632631,-0.1149216815829277
90.63319800,90633198,-0.11971008777618408
90.63368300,90633683,-0.1149216815829277
90.63420900,90634209,-0.1149216815829277
90.63472900,90634729,-0.1149216815829277
90.63525400,90635254,-0.11013327538967133
90.63578300,90635783,-0.1149216815829277
90.63633700,90636337,-0.1149216815829277
90.63635800,90636358,-0.1149216815829277
90.63683300,90636833,-0.12449848651885986
90.63743500,90637435,-0.12928688526153564
90.63802700,90638027,-0.12928688526153564
90.63855700,90638557,-0.12928688526153564
90.63908200,90639082,-0.12449848651885986
90.63960300,90639603,-0.12449848651885986
90.64012900,90640129,-0.11971008777618408
90.64070000,90640700,-0.1149216815829277
90.64117800,90641178,-0.1149216815829277
90.64170100,90641701,-0.11971008777618408
90.64222300,90642223,-0.11971008777618408
90.64274700,90642747,-0.12449848651885986
90.64327900,90643279,-0.12928688526153564
90.64380300,90643803,-0.12928688526153564
90.64432100,90644321,-0.12928688526153564
90.64495900,90644959,-0.12928688526153564
90.64497900,90644979,-0.12928688526153564
90.64553800,90645538,-0.13407529890537262
90.64607100,90646071,-0.12928688526153564
90.64659900,90646599,-0.11971008777618408
90.64711900,90647119,-0.11971008777618408
90.64764300,90647643,-0.12449848651885986
90.64819800,90648198,-0.11971008777618408
90.64869600,90648696,-0.11971008777618408
90.64922200,90649222,-0.11971008777618408
90.64974100,90649741,-0.11971008777618408
90.65026800,90650268,-0.1149216815829277
90.65080000,90650800,-0.1149216815829277
90.65133700,90651337,-0.1149216815829277
90.65184500,90651845,-0.1149216815829277
90.65255500,90652555,-0.1149216815829277
90.65257900,90652579,-0.1149216815829277
90.65304800,90653048,-0.1149216815829277
90.65357700,90653577,-0.11013327538967133
90.65409900,90654099,-0.11013327538967133
90.65462100,90654621,-0.10534487664699554
90.65514400,90655144,-0.10534487664699554
90.65569800,90655698,-0.1149216815829277
90.65619300,90656193,-0.1149216815829277
90.65671600,90656716,-0.1149216815829277
90.65723900,90657239,-0.1149216815829277
90.65776300,90657763,-0.11013327538967133
90.65829500,90658295,-0.10534487664699554
90.65882200,90658822,-0.10055647045373917
90.65934300,90659343,-0.10055647045373917
90.66000700,90660007,-0.10055647045373917
90.66054100,90660541,-0.11013327538967133
90.66110500,90661105,-0.11971008777618408
90.66112600,90661126,-0.1149216815829277
90.66159900,90661599,-0.1149216815829277
90.66212400,90662124,-0.1149216815829277
90.66264600,90662646,-0.1149216815829277
90.66323900,90663239,-0.11971008777618408
90.66370200,90663702,-0.11971008777618408
90.66422800,90664228,-0.11971008777618408
90.66474800,90664748,-0.1149216815829277
90.66527000,90665270,-0.1149216815829277
90.66579900,90665799,-0.11971008777618408
90.66632600,90666326,-0.12449848651885986
90.66684700,90666847,-0.12449848651885986
90.66754100,90667541,-0.11971008777618408
90.66806300,90668063,-0.12449848651885986
90.66859300,90668593,-0.12449848651885986
90.66912200,90669122,-0.12449848651885986
90.66963600,90669636,-0.11971008777618408
90.67016300,90670163,-0.11013327538967133
90.67077600,90670776,-0.11013327538967133
90.67080100,90670801,-0.1149216815829277
90.67127500,90671275,-0.11971008777618408
90.67180100,90671801,-0.12449848651885986
90.67232500,90672325,-0.11971008777618408
90.67284700,90672847,-0.1149216815829277
90.67352100,90673521,-0.1149216815829277
90.67407300,90674073,-0.10534487664699554
90.67459700,90674597,-0.10534487664699554
90.67511900,90675119,-0.11013327538967133
90.67570000,90675700,-0.10534487664699554
90.67617300,90676173,-0.10534487664699554
90.67669800,90676698,-0.11013327538967133
90.67722800,90677228,-0.11013327538967133
90.67774500,90677745,-0.11971008777618408
90.67830600,90678306,-0.12928688526153564
90.67832800,90678328,-0.13407529890537262
90.67880700,90678807,-0.12449848651885986
90.67932800,90679328,-0.11971008777618408
90.67993900,90679939,-0.1149216815829277
90.68053100,90680531,-0.1149216815829277
90.68105900,90681059,-0.11971008777618408
90.68158500,90681585,-0.11971008777618408
90.68210700,90682107,-0.12449848651885986
90.68263000,90682630,-0.12449848651885986
90.68319700,90683197,-0.12449848651885986
90.68368600,90683686,-0.11971008777618408
90.68420300,90684203,-0.11971008777618408
90.68472300,90684723,-0.11971008777618408
90.68525100,90685251,-0.11971008777618408
90.68578300,90685783,-0.1149216815829277
90.68631000,90686310,-0.1149216815829277
90.68683100,90686831,-0.1149216815829277
90.68743500,90687435,-0.11971008777618408
90.68745600,90687456,-0.11971008777618408
90.68802600,90688026,-0.11971008777618408
90.68855700,90688557,-0.11971008777618408
90.68908300,90689083,-0.12449848651885986
90.68960600,90689606,-0.12449848651885986
90.69012700,90690127,-0.11971008777618408
90.69069800,90690698,-0.11971008777618408
90.69117800,90691178,-0.12449848651885986
90.69170000,90691700,-0.11971008777618408
90.69222300,90692223,-0.1149216815829277
90.69274700,90692747,-0.11013327538967133
90.69328200,90693282,-0.10534487664699554
90.69380700,90693807,-0.10534487664699554
90.69433100,90694331,-0.10055647045373917
90.69505200,90695052,-0.10055647045373917
90.69507200,90695072,-0.10534487664699554
90.69556100,90695561,-0.11013327538967133
90.69609100,90696091,-0.11013327538967133
90.69661500,90696615,-0.1149216815829277
90.69713800,90697138,-0.1149216815829277
90.69766100,90697661,-0.11013327538967133
90.69824900,90698249,-0.11013327538967133
90.69877400,90698774,-0.10534487664699554
90.69929800,90699298,-0.10055647045373917
90.69982700,90699827,-0.10055647045373917
90.70038900,90700389,-0.10055647045373917
90.70107400,90701074,-0.11013327538967133
90.70109500,90701095,-0.1149216815829277
90.70157200,90701572,-0.11013327538967133
90.70209200,90702092,-0.11013327538967133
90.70261900,90702619,-0.1149216815829277
90.70319700,90703197,-0.12449848651885986
90.70367000,90703670,-0.13407529890537262
90.70419300,90704193,-0.13407529890537262
90.70471500,90704715,-0.12928688526153564
90.70524100,90705241,-0.11971008777618408
90.70577000,90705770,-0.11013327538967133
90.70630200,90706302,-0.10055647045373917
90.70682100,90706821,-0.10534487664699554
90.70734500,90707345,-0.10534487664699554
90.70800200,90708002,-0.11013327538967133
90.70857600,90708576,-0.11013327538967133
90.70909000,90709090,-0.1149216815829277
90.70961300,90709613,-0.1149216815829277
90.71016100,90710161,-0.1149216815829277
90.71018200,90710182,-0.11013327538967133
90.71070000,90710700,-0.1149216815829277
90.71119000,90711190,-0.1149216815829277
90.71171000,90711710,-0.1149216815829277
90.71223600,90712236,-0.1149216815829277
90.71275700,90712757,-0.11013327538967133
90.71328800,90713288,-0.11013327538967133
90.71381300,90713813,-0.1149216815829277
90.71433300,90714333,-0.12449848651885986
90.71503700,90715037,-0.12449848651885986
90.71555800,90715558,-0.11971008777618408
90.71609600,90716096,-0.11971008777618408
90.71661500,90716615,-0.11971008777618408
90.71713800,90717138,-0.11971008777618408
90.71766500,90717665,-0.11971008777618408
90.71828000,90718280,-0.12449848651885986
90.71830200,90718302,-0.12928688526153564
90.71878100,90718781,-0.12449848651885986
90.71930600,90719306,-0.11971008777618408
90.71982700,90719827,-0.1149216815829277
90.72036300,90720363,-0.1149216815829277
90.72104700,90721047,-0.11971008777618408
90.72156800,90721568,-0.11971008777618408
90.72209200,90722092,-0.12928688526153564
90.72261600,90722616,-0.1388636976480484
90.72319800,90723198,-0.1388636976480484
90.72367200,90723672,-0.12928688526153564
90.72418900,90724189,-0.11971008777618408
90.72471300,90724713,-0.1149216815829277
90.72523400,90725234,-0.1149216815829277
90.72577700,90725777,-0.11971008777618408
90.72630400,90726304,-0.11971008777618408
90.72685500,90726855,-0.11971008777618408
90.72687900,90726879,-0.11971008777618408
90.72742400,90727424,-0.12449848651885986
90.72803300,90728033,-0.12928688526153564
90.72857200,90728572,-0.12928688526153564
90.72909400,90729094,-0.12449848651885986
90.72961400,90729614,-0.12449848651885986
90.73014000,90730140,-0.12449848651885986
90.73070500,90730705,-0.1149216815829277
90.73119200,90731192,-0.11013327538967133
90.73171500,90731715,-0.10534487664699554
90.73223800,90732238,-0.10534487664699554
90.73276400,90732764,-0.11013327538967133
90.73329500,90733295,-0.11013327538967133
90.73382500,90733825,-0.1149216815829277
90.73434600,90734346,-0.1149216815829277
90.73505900,90735059,-0.1149216815829277
90.73507900,90735079,-0.11013327538967133
90.73555600,90735556,-0.11013327538967133
90.73608700,90736087,-0.11013327538967133
90.73660700,90736607,-0.11013327538967133
90.73712900,90737129,-0.1149216815829277
90.73765000,90737650,-0.11971008777618408
90.73824000,90738240,-0.12449848651885986
90.73876200,90738762,-0.12449848651885986
90.73928700,90739287,-0.12449848651885986
90.73980900,90739809,-0.11971008777618408
90.74033400,90740334,-0.12449848651885986
90.74108000,90741080,-0.12928688526153564
90.74110200,90741102,-0.12928688526153564
90.74157800,90741578,-0.12928688526153564
90.74209800,90742098,-0.12928688526153564
90.74263200,90742632,-0.12449848651885986
90.74319900,90743199,-0.11971008777618408
90.74368200,90743682,-0.11013327538967133
90.74420300,90744203,-0.10055647045373917
90.74472700,90744727,-0.10055647045373917
90.74525300,90745253,-0.11013327538967133
90.74578900,90745789,-0.11971008777618408
90.74630900,90746309,-0.11971008777618408
90.74683000,90746830,-0.1149216815829277
90.74743000,90747430,-0.1149216815829277
90.74802800,90748028,-0.1149216815829277
90.74855700,90748557,-0.11013327538967133
90.74911000,90749110,-0.11013327538967133
90.74913100,90749131,-0.10534487664699554
90.74960500,90749605,-0.11013327538967133
90.75012900,90750129,-0.10534487664699554
90.75069800,90750698,-0.10055647045373917
90.75118600,90751186,-0.10534487664699554
90.75171200,90751712,-0.11971008777618408
90.75223000,90752230,-0.12928688526153564
90.75276200,90752762,-0.12928688526153564
90.75329200,90753292,-0.12449848651885986
90.75382200,90753822,-0.11971008777618408
90.75434600,90754346,-0.1149216815829277
90.75500400,90755004,-0.10534487664699554
90.75553900,90755539,-0.10055647045373917
90.75607200,90756072,-0.10534487664699554
90.75658900,90756589,-0.1149216815829277
90.75711300,90757113,-0.11971008777618408
90.75763400,90757634,-0.11971008777618408
90.75819900,90758199,-0.11971008777618408
90.75871400,90758714,-0.1149216815829277
90.75873800,90758738,-0.11971008777618408
90.75920700,90759207,-0.11971008777618408
90.75973400,90759734,-0.12449848651885986
90.76025400,90760254,-0.12449848651885986
90.76078900,90760789,-0.12449848651885986
90.76131200,90761312,-0.12449848651885986
90.76183400,90761834,-0.12449848651885986
90.76252900,90762529,-0.12449848651885986
90.76305500,90763055,-0.12449848651885986
90.76358500,90763585,-0.11971008777618408
90.76411100,90764111,-0.11971008777618408
90.76463100,90764631,-0.11971008777618408
90.76516100,90765161,-0.11971008777618408
90.76574300,90765743,-0.1149216815829277
90.76629800,90766298,-0.11013327538967133
90.76631900,90766319,-0.11013327538967133
90.76679700,90766797,-0.11013327538967133
90.76731700,90767317,-0.11013327538967133
90.76784100,90767841,-0.1149216815829277
90.76848800,90768488,-0.1149216815829277
90.76905200,90769052,-0.1149216815829277
90.76957200,90769572,-0.11971008777618408
90.77010400,90770104,-0.11971008777618408
90.77068600,90770686,-0.12449848651885986
90.77115600,90771156,-0.12928688526153564
90.77167700,90771677,-0.13407529890537262
90.77219800,90772198,-0.13407529890537262
90.77272100,90772721,-0.12928688526153564
90.77326700,90773267,-0.11971008777618408
90.77382900,90773829,-0.11013327538967133
90.77438900,90774389,-0.11013327538967133
90.77440900,90774409,-0.11971008777618408
90.77505400,90775054,-0.11971008777618408
90.77557700,90775577,-0.12449848651885986
90.77610800,90776108,-0.12449848651885986
90.77663400,90776634,-0.12928688526153564
90.77715900,90777159,-0.12928688526153564
90.77769200,90777692,-0.12928688526153564
90.77826000,90778260,-0.12928688526153564
90.77878900,90778789,-0.12449848651885986
90.77930900,90779309,-0.1149216815829277
90.77984100,90779841,-0.10534487664699554
90.78055200,90780552,-0.10534487664699554
90.78057200,90780572,-0.11013327538967133
90.78105600,90781056,-0.11971008777618408
90.78158100,90781581,-0.12449848651885986
90.78210100,90782101,-0.11971008777618408
90.78262600,90782626,-0.1149216815829277
90.78320600,90783206,-0.1149216815829277
90.78367900,90783679,-0.1149216815829277
90.78420500,90784205,-0.1149216815829277
90.78472800,90784728,-0.11971008777618408
90.78525000,90785250,-0.11971008777618408
90.78578600,90785786,-0.11971008777618408
90.78634000,90786340,-0.11971008777618408
90.78682900,90786829,-0.11971008777618408
90.78738400,90787384,-0.11971008777618408
90.78806300,90788063,-0.12449848651885986
90.78808400,90788084,-0.12928688526153564
90.78856900,90788569,-0.12449848651885986
90.78909500,90789095,-0.1149216815829277
90.78962200,90789622,-0.11013327538967133
90.79014700,90790147,-0.1149216815829277
90.79073400,90790734,-0.11971008777618408
90.79119900,90791199,-0.11971008777618408
90.79172200,90791722,-0.11971008777618408
90.79224300,90792243,-0.11971008777618408
90.79276500,90792765,-0.11013327538967133
90.79330100,90793301,-0.11013327538967133
90.79382200,90793822,-0.1149216815829277
90.79434500,90794345,-0.11971008777618408
90.79501900,90795019,-0.12449848651885986
90.79554100,90795541,-0.11971008777618408
90.79607400,90796074,-0.11971008777618408
90.79659400,90796594,-0.11971008777618408
90.79714400,90797144,-0.1149216815829277
90.79716500,90797165,-0.1149216815829277
90.79764100,90797641,-0.1149216815829277
90.79819800,90798198,-0.11971008777618408
90.79869200,90798692,-0.1149216815829277
90.79921300,90799213,-0.10534487664699554
90.79973500,90799735,-0.10055647045373917
90.80026100,90800261,-0.10534487664699554
90.80079600,90800796,-0.1149216815829277
90.80132300,90801323,-0.11971008777618408
90.80185200,90801852,-0.11971008777618408
90.80248000,90802480,-0.11971008777618408
90.80303800,90803038,-0.11971008777618408
90.80357100,90803571,-0.11971008777618408
90.80409200,90804092,-0.1149216815829277
90.80461500,90804615,-0.11971008777618408
90.80513900,90805139,-0.11971008777618408
90.80569800,90805698,-0.11971008777618408
90.80619200,90806192,-0.11971008777618408
90.80673800,90806738,-0.1149216815829277
90.80676000,90806760,-0.1149216815829277
90.80723400,90807234,-0.10534487664699554
90.80775600,90807756,-0.10055647045373917
90.80829200,90808292,-0.10055647045373917
90.80884800,90808848,-0.10534487664699554
90.80933700,90809337,-0.11013327538967133
90.81001500,90810015,-0.11013327538967133
90.81053700,90810537,-0.1149216815829277
90.81106500,90811065,-0.11971008777618408
90.81158800,90811588,-0.12449848651885986
90.81211100,90812111,-0.12449848651885986
90.81263500,90812635,-0.12449848651885986
90.81319900,90813199,-0.1149216815829277
90.81369100,90813691,-0.11013327538967133
90.81421400,90814214,-0.1149216815829277
90.81473700,90814737,-0.11971008777618408
90.81526100,90815261,-0.11971008777618408
90.81578900,90815789,-0.11971008777618408
90.81631500,90816315,-0.12928688526153564
90.81686400,90816864,-0.12928688526153564
90.81688800,90816888,-0.11971008777618408
90.81747700,90817477,-0.11013327538967133
90.81802700,90818027,-0.10055647045373917
90.81855900,90818559,-0.10055647045373917
90.81907800,90819078,-0.10534487664699554
90.81960200,90819602,-0.1149216815829277
90.82012600,90820126,-0.11971008777618408
90.82070000,90820700,-0.11971008777618408
90.82117700,90821177,-0.11971008777618408
90.82169700,90821697,-0.1149216815829277
90.82222000,90822220,-0.1149216815829277
90.82274300,90822743,-0.1149216815829277
90.82327800,90823278,-0.11971008777618408
90.82380300,90823803,-0.11971008777618408
90.82432500,90824325,-0.11971008777618408
90.82491200,90824912,-0.11971008777618408
90.82555200,90825552,-0.11971008777618408
90.82557200,90825572,-0.1149216815829277
90.82605700,90826057,-0.1149216815829277
90.82662100,90826621,-0.1149216815829277
90.82711500,90827115,-0.1149216815829277
90.82763600,90827636,-0.11971008777618408
90.82819800,90828198,-0.12449848651885986
90.82868800,90828688,-0.11971008777618408
90.82921100,90829211,-0.11013327538967133
90.82973000,90829730,-0.10534487664699554
90.83025500,90830255,-0.10055647045373917
90.83078800,90830788,-0.10055647045373917
90.83134500,90831345,-0.09576806426048279
90.83183000,90831830,-0.09576806426048279
90.83240200,90832402,-0.10534487664699554
90.83305400,90833054,-0.11013327538967133
90.83307400,90833074,-0.11971008777618408
90.83355800,90833558,-0.12449848651885986
90.83408000,90834080,-0.12928688526153564
90.83460300,90834603,-0.12928688526153564
90.83512600,90835126,-0.12928688526153564
90.83569800,90835698,-0.12449848651885986
90.83617800,90836178,-0.11971008777618408
90.83670000,90836700,-0.11971008777618408
90.83722200,90837222,-0.12928688526153564
90.83774600,90837746,-0.12928688526153564
90.83827900,90838279,-0.12449848651885986
90.83880400,90838804,-0.12449848651885986
90.83932900,90839329,-0.12449848651885986
90.83989700,90839897,-0.12449848651885986
90.84054000,90840540,-0.12928688526153564
90.84106900,90841069,-0.12928688526153564
90.84159000,90841590,-0.12449848651885986
90.84213800,90842138,-0.12449848651885986
90.84215800,90842158,-0.1149216815829277
90.84263400,90842634,-0.11013327538967133
90.84319900,90843199,-0.11013327538967133
90.84368600,90843686,-0.1149216815829277
90.84420800,90844208,-0.1149216815829277
90.84473300,90844733,-0.1149216815829277
90.84525400,90845254,-0.1149216815829277
90.84579400,90845794,-0.1149216815829277
90.84631700,90846317,-0.1149216815829277
90.84683900,90846839,-0.11971008777618408
90.84750800,90847508,-0.12449848651885986
90.84803200,90848032,-0.11971008777618408
90.84856400,90848564,-0.11971008777618408
90.84908700,90849087,-0.1149216815829277
90.84960800,90849608,-0.11971008777618408
90.85013400,90850134,-0.12449848651885986
90.85070000,90850700,-0.12928688526153564
90.85118700,90851187,-0.12928688526153564
90.85171400,90851714,-0.12449848651885986
90.85225900,90852259,-0.12449848651885986
90.85228000,90852280,-0.12449848651885986
90.85276900,90852769,-0.11971008777618408
90.85330100,90853301,-0.1149216815829277
90.85384200,90853842,-0.11013327538967133
90.85434400,90854344,-0.10055647045373917
90.85497800,90854978,-0.10055647045373917
90.85553900,90855539,-0.10534487664699554
90.85607100,90856071,-0.1149216815829277
90.85659100,90856591,-0.11971008777618408
90.85711900,90857119,-0.11971008777618408
90.85763800,90857638,-0.11971008777618408
90.85820100,90858201,-0.11971008777618408
90.85869400,90858694,-0.1149216815829277
90.85921100,90859211,-0.1149216815829277
90.85973700,90859737,-0.11971008777618408
90.86026200,90860262,-0.12449848651885986
90.86079400,90860794,-0.12928688526153564
90.86132200,90861322,-0.13407529890537262
90.86186600,90861866,-0.13407529890537262
90.86188600,90861886,-0.13407529890537262
90.86250400,90862504,-0.13407529890537262
90.86302700,90863027,-0.12928688526153564
90.86355800,90863558,-0.12928688526153564
90.86408600,90864086,-0.13407529890537262
90.86460700,90864607,-0.13407529890537262
90.86513300,90865133,-0.1388636976480484
90.86569900,90865699,-0.1388636976480484
90.86618900,90866189,-0.12928688526153564
90.86671000,90866710,-0.1149216815829277
90.86722900,90867229,-0.11013327538967133
90.86775300,90867753,-0.10534487664699554
90.86828700,90868287,-0.10534487664699554
90.86881400,90868814,-0.11013327538967133
90.86933600,90869336,-0.11971008777618408
90.87003400,90870034,-0.12449848651885986
90.87005400,90870054,-0.11971008777618408
90.87053000,90870530,-0.11971008777618408
90.87107200,90871072,-0.12449848651885986
90.87159100,90871591,-0.11971008777618408
90.87211600,90872116,-0.12449848651885986
90.87263800,90872638,-0.12449848651885986
90.87320100,90873201,-0.12928688526153564
90.87369000,90873690,-0.12449848651885986
90.87421100,90874211,-0.11971008777618408
90.87473500,90874735,-0.11971008777618408
90.87526000,90875260,-0.1149216815829277
90.87579400,90875794,-0.1149216815829277
90.87634600,90876346,-0.11971008777618408
90.87684200,90876842,-0.11971008777618408
90.87755700,90877557,-0.11971008777618408
90.87757700,90877577,-0.1149216815829277
90.87805600,90878056,-0.1149216815829277
90.87858400,90878584,-0.11971008777618408
90.87912100,90879121,-0.11971008777618408
90.87963100,90879631,-0.1149216815829277
90.88015400,90880154,-0.11013327538967133
90.88074200,90880742,-0.11013327538967133
90.88127100,90881271,-0.11013327538967133
90.88179300,90881793,-0.1149216815829277
90.88232900,90882329,-0.1149216815829277
90.88289700,90882897,-0.1149216815829277
90.88355800,90883558,-0.1149216815829277
90.88410500,90884105,-0.11013327538967133
90.88412600,90884126,-0.11013327538967133
90.88460000,90884600,-0.11013327538967133
90.88512900,90885129,-0.10534487664699554
90.88570000,90885700,-0.11013327538967133
90.88617900,90886179,-0.11013327538967133
90.88670100,90886701,-0.10534487664699554
90.88722600,90887226,-0.10534487664699554
90.88775300,90887753,-0.1149216815829277
90.88828200,90888282,-0.11971008777618408
90.88880600,90888806,-0.11971008777618408
90.88933200,90889332,-0.11971008777618408
90.88993900,90889939,-0.11971008777618408
90.89052700,90890527,-0.11971008777618408
90.89105700,90891057,-0.11013327538967133
90.89158000,90891580,-0.10534487664699554
90.89210400,90892104,-0.10055647045373917
90.89262600,90892626,-0.11013327538967133
90.89320600,90893206,-0.1149216815829277
90.89368100,90893681,-0.11971008777618408
90.89423500,90894235,-0.1149216815829277
90.89425600,90894256,-0.11013327538967133
90.89473100,90894731,-0.11013327538967133
90.89525300,90895253,-0.1149216815829277
90.89579100,90895791,-0.11971008777618408
90.89631300,90896313,-0.11971008777618408
90.89683100,90896831,-0.12449848651885986
90.89753100,90897531,-0.11971008777618408
90.89805400,90898054,-0.11971008777618408
90.89858600,90898586,-0.1149216815829277
90.89911200,90899112,-0.11013327538967133
90.89963300,90899633,-0.1149216815829277
90.90015400,90900154,-0.11971008777618408
90.90074000,90900740,-0.11971008777618408
90.90126900,90901269,-0.11971008777618408
90.90182300,90901823,-0.11971008777618408
90.90184400,90901844,-0.11971008777618408
90.90231800,90902318,-0.11971008777618408
90.90284200,90902842,-0.12449848651885986
90.90358900,90903589,-0.12449848651885986
90.90411600,90904116,-0.11971008777618408
90.90463500,90904635,-0.11971008777618408
90.90516200,90905162,-0.1149216815829277
90.90573900,90905739,-0.11013327538967133
90.90626300,90906263,-0.1149216815829277
90.90678500,90906785,-0.11971008777618408
90.90731900,90907319,-0.11971008777618408
90.90784100,90907841,-0.1149216815829277
90.90857900,90908579,-0.1149216815829277
90.90860000,90908600,-0.11971008777618408
90.90907500,90909075,-0.12449848651885986
90.90959800,90909598,-0.12928688526153564
90.91012100,90910121,-0.12928688526153564
90.91070100,90910701,-0.12449848651885986
90.91117600,90911176,-0.1149216815829277
90.91169500,90911695,-0.1149216815829277
90.91221500,90912215,-0.1149216815829277
90.91273900,90912739,-0.11971008777618408
90.91327400,90913274,-0.1149216815829277
90.91379900,90913799,-0.11013327538967133
90.91432600,90914326,-0.11013327538967133
90.91484800,90914848,-0.1149216815829277
90.91553300,90915533,-0.1149216815829277
90.91555400,90915554,-0.1149216815829277
90.91604500,90916045,-0.11971008777618408
90.91656800,90916568,-0.11971008777618408
90.91709200,90917092,-0.11971008777618408
90.91761200,90917612,-0.11971008777618408
90.91820000,90918200,-0.1149216815829277
90.91866500,90918665,-0.11013327538967133
90.91918600,90919186,-0.10534487664699554
90.91970900,90919709,-0.10055647045373917
90.92023200,90920232,-0.11013327538967133
90.92077000,90920770,-0.1149216815829277
90.92129200,90921292,-0.11971008777618408
90.92181200,90921812,-0.11971008777618408
90.92234400,90922344,-0.11971008777618408
90.92305800,90923058,-0.11971008777618408
90.92307900,90923079,-0.11971008777618408
90.92356500,90923565,-0.11971008777618408
90.92409300,90924093,-0.11971008777618408
90.92461400,90924614,-0.11971008777618408
90.92513900,90925139,-0.12449848651885986
90.92569800,90925698,-0.12449848651885986
90.92619200,90926192,-0.12449848651885986
90.92671700,90926717,-0.11971008777618408
90.92724500,90927245,-0.11971008777618408
90.92777100,90927771,-0.11013327538967133
90.92829900,90928299,-0.11013327538967133
90.92882400,90928824,-0.1149216815829277
90.92934700,90929347,-0.12449848651885986
90.93000500,90930005,-0.12928688526153564
90.93053200,90930532,-0.13407529890537262
90.93105800,90931058,-0.12928688526153564
90.93160900,90931609,-0.12449848651885986
90.93210200,90932102,-0.1149216815829277
90.93265300,90932653,-0.1149216815829277
90.93267300,90932673,-0.12449848651885986
90.93320400,90933204,-0.12928688526153564
90.93367700,90933677,-0.13407529890537262
90.93420000,90934200,-0.12928688526153564
90.93472300,90934723,-0.12449848651885986
90.93524800,90935248,-0.1149216815829277
90.93578100,90935781,-0.1149216815829277
90.93630400,90936304,-0.1149216815829277
90.93682900,90936829,-0.1149216815829277
90.93742900,90937429,-0.1149216815829277
90.93803300,90938033,-0.11013327538967133
90.93857800,90938578,-0.11013327538967133
90.93910300,90939103,-0.1149216815829277
90.93962400,90939624,-0.11971008777618408
90.94014900,90940149,-0.1149216815829277
90.94073300,90940733,-0.11013327538967133
90.94120300,90941203,-0.10055647045373917
90.94172400,90941724,-0.10055647045373917
90.94227500,90942275,-0.10534487664699554
90.94229800,90942298,-0.11013327538967133
90.94276800,90942768,-0.11971008777618408
90.94330200,90943302,-0.11971008777618408
90.94383500,90943835,-0.11971008777618408
90.94434600,90944346,-0.11971008777618408
90.94503700,90945037,-0.12449848651885986
90.94556100,90945561,-0.12449848651885986
90.94608900,90946089,-0.12449848651885986
90.94661000,90946610,-0.11971008777618408
90.94713200,90947132,-0.12449848651885986
90.94766300,90947663,-0.12928688526153564
90.94825600,90948256,-0.12449848651885986
90.94878100,90948781,-0.12449848651885986
90.94931200,90949312,-0.11971008777618408
90.94986300,90949863,-0.1149216815829277
90.94988400,90949884,-0.11013327538967133
90.95050400,90950504,-0.10534487664699554
90.95104800,90951048,-0.10055647045373917
90.95157300,90951573,-0.10055647045373917
90.95209300,90952093,-0.11013327538967133
90.95261900,90952619,-0.1149216815829277
90.95319800,90953198,-0.12449848651885986
90.95366900,90953669,-0.12449848651885986
90.95418800,90954188,-0.12928688526153564
90.95471100,90954711,-0.12928688526153564
90.95524000,90955240,-0.12449848651885986
90.95578000,90955780,-0.1149216815829277
90.95629700,90956297,-0.1149216815829277
90.95682000,90956820,-0.11971008777618408
90.95734600,90957346,-0.1149216815829277
90.95805500,90958055,-0.1149216815829277
90.95807500,90958075,-0.11971008777618408
90.95856000,90958560,-0.11971008777618408
90.95908600,90959086,-0.11971008777618408
90.95960700,90959607,-0.12449848651885986
90.96013300,90960133,-0.12928688526153564
90.96070000,90960700,-0.12449848651885986
90.96118700,90961187,-0.11971008777618408
90.96171400,90961714,-0.11971008777618408
90.96223300,90962233,-0.12449848651885986
90.96275800,90962758,-0.11971008777618408
90.96329200,90963292,-0.1149216815829277
90.96381400,90963814,-0.11013327538967133
90.96433900,90964339,-0.11013327538967133
90.96502800,90965028,-0.10534487664699554
90.96505100,90965051,-0.10055647045373917
90.96552800,90965528,-0.10534487664699554
90.96606000,90966060,-0.10534487664699554
90.96658000,90966580,-0.11013327538967133
90.96710400,90967104,-0.1149216815829277
90.96762600,90967626,-0.11971008777618408
90.96819800,90968198,-0.11971008777618408
90.96867900,90968679,-0.11971008777618408
90.96920100,90969201,-0.11971008777618408
90.96972600,90969726,-0.11971008777618408
90.97024800,90970248,-0.12449848651885986
90.97078200,90970782,-0.12449848651885986
90.97130500,90971305,-0.12928688526153564
90.97182900,90971829,-0.12928688526153564
90.97238800,90972388,-0.11971008777618408
90.97303400,90973034,-0.1149216815829277
90.97356500,90973565,-0.11013327538967133
90.97408500,90974085,-0.10534487664699554
90.97463200,90974632,-0.11013327538967133
90.97465200,90974652,-0.1149216815829277
90.97513100,90975131,-0.1149216815829277
90.97570100,90975701,-0.1149216815829277
90.97618400,90976184,-0.11971008777618408
90.97671000,90976710,-0.12449848651885986
90.97723100,90977231,-0.12449848651885986
90.97775800,90977758,-0.1149216815829277
90.97828500,90978285,-0.1149216815829277
90.97881200,90978812,-0.1149216815829277
90.97933400,90979334,-0.1149216815829277
90.97990900,90979909,-0.11971008777618408
90.98053000,90980530,-0.11971008777618408
90.98106100,90981061,-0.1149216815829277
90.98158000,90981580,-0.11013327538967133
90.98210300,90982103,-0.10534487664699554
90.98262500,90982625,-0.11013327538967133
90.98319900,90983199,-0.1149216815829277
90.98368000,90983680,-0.1149216815829277
90.98424600,90984246,-0.11013327538967133
90.98426700,90984267,-0.10534487664699554
90.98474200,90984742,-0.11013327538967133
90.98526400,90985264,-0.11013327538967133
90.98579500,90985795,-0.11013327538967133
90.98632200,90986322,-0.11013327538967133
90.98684300,90986843,-0.10534487664699554
90.98753500,90987535,-0.10534487664699554
90.98805700,90988057,-0.10534487664699554
90.98858700,90988587,-0.10534487664699554
90.98911400,90989114,-0.11013327538967133
90.98963800,90989638,-0.1149216815829277
90.99015800,90990158,-0.11971008777618408
90.99074500,90990745,-0.11971008777618408
90.99126800,90991268,-0.12449848651885986
90.99182000,90991820,-0.11971008777618408
90.99184200,90991842,-0.11971008777618408
90.99231500,90992315,-0.11971008777618408
90.99284100,90992841,-0.11971008777618408
90.99357000,90993570,-0.12449848651885986
90.99410100,90994101,-0.12449848651885986
90.99462100,90994621,-0.1149216815829277
90.99515400,90995154,-0.1149216815829277
90.99574100,90995741,-0.11971008777618408
90.99626400,90996264,-0.11971008777618408
90.99678500,90996785,-0.11971008777618408
90.99732100,90997321,-0.1149216815829277
90.99784400,90997844,-0.11013327538967133
90.99855200,90998552,-0.10055647045373917
90.99857300,90998573,-0.10055647045373917
90.99904900,90999049,-0.10534487664699554
90.99957000,90999570,-0.11013327538967133
91.00009300,91000093,-0.11013327538967133
91.00061800,91000618,-0.11013327538967133
91.00114800,91001148,-0.11013327538967133
91.00167400,91001674,-0.11013327538967133
91.00219400,91002194,-0.1149216815829277
91.00271900,91002719,-0.1149216815829277
91.00326500,91003265,-0.11971008777618408
91.00379300,91003793,-0.11971008777618408
91.00431200,91004312,-0.1149216815829277
91.00484000,91004840,-0.11971008777618408
91.00555300,91005553,-0.11971008777618408
91.00557300,91005573,-0.1149216815829277
91.00606600,91006066,-0.11013327538967133
91.00659800,91006598,-0.10534487664699554
91.00711700,91007117,-0.10534487664699554
91.00764500,91007645,-0.10055647045373917
91.00823500,91008235,-0.10055647045373917
91.00869800,91008698,-0.10055647045373917
91.00922000,91009220,-0.10055647045373917
91.00974100,91009741,-0.10534487664699554
91.01027100,91010271,-0.11013327538967133
91.01079800,91010798,-0.1149216815829277
91.01133600,91011336,-0.1149216815829277
91.01184400,91011844,-0.11971008777618408
91.01247900,91012479,-0.11971008777618408
91.01306800,91013068,-0.11971008777618408
91.01309000,91013090,-0.1149216815829277
91.01357400,91013574,-0.10534487664699554
91.01410300,91014103,-0.10534487664699554
91.01462500,91014625,-0.10534487664699554
91.01515100,91015151,-0.11013327538967133
91.01573500,91015735,-0.11971008777618408
91.01620000,91016200,-0.12928688526153564
91.01672900,91016729,-0.12928688526153564
91.01725200,91017252,-0.12449848651885986
91.01777400,91017774,-0.1149216815829277
91.01830500,91018305,-0.11013327538967133
91.01883300,91018833,-0.11013327538967133
91.01941300,91019413,-0.1149216815829277
91.02003300,91020033,-0.11971008777618408
91.02056000,91020560,-0.12449848651885986
91.02108600,91021086,-0.12928688526153564
91.02160900,91021609,-0.12928688526153564
91.02215700,91022157,-0.12928688526153564
91.02217800,91022178,-0.11971008777618408
91.02265600,91022656,-0.11971008777618408
91.02324000,91023240,-0.11971008777618408
91.02376500,91023765,-0.12449848651885986
91.02428600,91024286,-0.12449848651885986
91.02481600,91024816,-0.11971008777618408
91.02533900,91025339,-0.11971008777618408
91.02592500,91025925,-0.11971008777618408
91.02656200,91026562,-0.1149216815829277
91.02708300,91027083,-0.1149216815829277
91.02760700,91027607,-0.11971008777618408
91.02819000,91028190,-0.11971008777618408
91.02866100,91028661,-0.12449848651885986
91.02918400,91029184,-0.12928688526153564
91.02970700,91029707,-0.13407529890537262
91.03025500,91030255,-0.12449848651885986
91.03027600,91030276,-0.11971008777618408
91.03077100,91030771,-0.1149216815829277
91.03129500,91031295,-0.1149216815829277
91.03181900,91031819,-0.11971008777618408
91.03233900,91032339,-0.12449848651885986
91.03297700,91032977,-0.11971008777618408
91.03356300,91033563,-0.11971008777618408
91.03407900,91034079,-0.1149216815829277
91.03460300,91034603,-0.10534487664699554
91.03512700,91035127,-0.10055647045373917
91.03570000,91035700,-0.10534487664699554
91.03618600,91036186,-0.11013327538967133
91.03670900,91036709,-0.11013327538967133
91.03723000,91037230,-0.11013327538967133
91.03775300,91037753,-0.11013327538967133
91.03828300,91038283,-0.10534487664699554
91.03881100,91038811,-0.10534487664699554
91.03935900,91039359,-0.10534487664699554
91.03938200,91039382,-0.11013327538967133
91.04000700,91040007,-0.1149216815829277
91.04054000,91040540,-0.11013327538967133
91.04107400,91041074,-0.1149216815829277
91.04159200,91041592,-0.11971008777618408
91.04211400,91042114,-0.11971008777618408
91.04263700,91042637,-0.1149216815829277
91.04319800,91043198,-0.1149216815829277
91.04369400,91043694,-0.11971008777618408
91.04421500,91044215,-0.11971008777618408
91.04473500,91044735,-0.11971008777618408
91.04526300,91045263,-0.1149216815829277
91.04578900,91045789,-0.1149216815829277
91.04631900,91046319,-0.1149216815829277
91.04684000,91046840,-0.11971008777618408
91.04751200,91047512,-0.11971008777618408
91.04753400,91047534,-0.12449848651885986
91.04803300,91048033,-0.12928688526153564
91.04857400,91048574,-0.13407529890537262
91.04909600,91049096,-0.13407529890537262
91.04962100,91049621,-0.12449848651885986
91.05014300,91050143,-0.11971008777618408
91.05070000,91050700,-0.12449848651885986
91.05119700,91051197,-0.12449848651885986
91.05172100,91051721,-0.11971008777618408
91.05224500,91052245,-0.12449848651885986
91.05277000,91052770,-0.12449848651885986
91.05329900,91053299,-0.11971008777618408
91.05383000,91053830,-0.1149216815829277
91.05434800,91054348,-0.1149216815829277
91.05503000,91055030,-0.11971008777618408
91.05505000,91055050,-0.11971008777618408
91.05553000,91055530,-0.12449848651885986
91.05605800,91056058,-0.12449848651885986
91.05658700,91056587,-0.1149216815829277
91.05711100,91057111,-0.10534487664699554
91.05763900,91057639,-0.10055647045373917
91.05820100,91058201,-0.10534487664699554
91.05868600,91058686,-0.11013327538967133
91.05920900,91059209,-0.1149216815829277
91.05973100,91059731,-0.1149216815829277
91.06025600,91060256,-0.11013327538967133
91.06079000,91060790,-0.10534487664699554
91.06131100,91061311,-0.11013327538967133
91.06183200,91061832,-0.1149216815829277
91.06237900,91062379,-0.11971008777618408
91.06303000,91063030,-0.11971008777618408
91.06356400,91063564,-0.12449848651885986
91.06408800,91064088,-0.12928688526153564
91.06463900,91064639,-0.13407529890537262
91.06465900,91064659,-0.13407529890537262
91.06513700,91065137,-0.1388636976480484
91.06570000,91065700,-0.13407529890537262
91.06618900,91066189,-0.11971008777618408
91.06671000,91066710,-0.11013327538967133
91.06723300,91067233,-0.11013327538967133
91.06775500,91067755,-0.11013327538967133
91.06829100,91068291,-0.1149216815829277
91.06881400,91068814,-0.1149216815829277
91.06933800,91069338,-0.1149216815829277
91.07000400,91070004,-0.11971008777618408
91.07053000,91070530,-0.11971008777618408
91.07106400,91071064,-0.11971008777618408
91.07158600,91071586,-0.12449848651885986
91.07210800,91072108,-0.12449848651885986
91.07263400,91072634,-0.1149216815829277
91.07319800,91073198,-0.11013327538967133
91.07368700,91073687,-0.10534487664699554
91.07420600,91074206,-0.10534487664699554
91.07475900,91074759,-0.11971008777618408
91.07478100,91074781,-0.12928688526153564
91.07525400,91075254,-0.12928688526153564
91.07578500,91075785,-0.12928688526153564
91.07631100,91076311,-0.12928688526153564
91.07683600,91076836,-0.12449848651885986
91.07748100,91077481,-0.11971008777618408
91.07803500,91078035,-0.11971008777618408
91.07856800,91078568,-0.11971008777618408
91.07908900,91079089,-0.11971008777618408
91.07961100,91079611,-0.1149216815829277
91.08013500,91080135,-0.1149216815829277
91.08069700,91080697,-0.1149216815829277
91.08119100,91081191,-0.11013327538967133
91.08171700,91081717,-0.1149216815829277
91.08223800,91082238,-0.11013327538967133
91.08276300,91082763,-0.11013327538967133
91.08329200,91083292,-0.11013327538967133
91.08381900,91083819,-0.11013327538967133
91.08436400,91084364,-0.1149216815829277
91.08438600,91084386,-0.1149216815829277
91.08501000,91085010,-0.11971008777618408
91.08553200,91085532,-0.11971008777618408
91.08606100,91086061,-0.12449848651885986
91.08658200,91086582,-0.12928688526153564
91.08710900,91087109,-0.12928688526153564
91.08763000,91087630,-0.11971008777618408
91.08819800,91088198,-0.11971008777618408
91.08868900,91088689,-0.11971008777618408
91.08921600,91089216,-0.12449848651885986
91.08974200,91089742,-0.12928688526153564
91.09026300,91090263,-0.12928688526153564
91.09079600,91090796,-0.12928688526153564
91.09132100,91091321,-0.12449848651885986
91.09184600,91091846,-0.12449848651885986
91.09254100,91092541,-0.11971008777618408
91.09256300,91092563,-0.1149216815829277
91.09303200,91093032,-0.1149216815829277
91.09356400,91093564,-0.11971008777618408
91.09409100,91094091,-0.12449848651885986
91.09461000,91094610,-0.12449848651885986
91.09514500,91095145,-0.12449848651885986
91.09570300,91095703,-0.11971008777618408
91.09619500,91096195,-0.11971008777618408
91.09671700,91096717,-0.11971008777618408
91.09724000,91097240,-0.12449848651885986
91.09776400,91097764,-0.12928688526153564
91.09829200,91098292,-0.12449848651885986
91.09881600,91098816,-0.11971008777618408
91.09933800,91099338,-0.1149216815829277
91.10006100,91100061,-0.11971008777618408
91.10008100,91100081,-0.11971008777618408
91.10055500,91100555,-0.1149216815829277
91.10108700,91101087,-0.1149216815829277
91.10161300,91101613,-0.11971008777618408
91.10213300,91102133,-0.12449848651885986
91.10266200,91102662,-0.12928688526153564
91.10324400,91103244,-0.12928688526153564
91.10377400,91103774,-0.12449848651885986
91.10429500,91104295,-0.11971008777618408
91.10482100,91104821,-0.12449848651885986
91.10533800,91105338,-0.11971008777618408
91.10605100,91106051,-0.1149216815829277
91.10657500,91106575,-0.11971008777618408
91.10712400,91107124,-0.11971008777618408
91.10714400,91107144,-0.11971008777618408
91.10762000,91107620,-0.1149216815829277
91.10820300,91108203,-0.1149216815829277
91.10867800,91108678,-0.11013327538967133
91.10919300,91109193,-0.11013327538967133
91.10971700,91109717,-0.1149216815829277
91.11024600,91110246,-0.12449848651885986
91.11077000,91110770,-0.12928688526153564
91.11130300,91111303,-0.12449848651885986
91.11182400,91111824,-0.11971008777618408
91.11235300,91112353,-0.1149216815829277
91.11300100,91113001,-0.10534487664699554
91.11356500,91113565,-0.11013327538967133
91.11409300,91114093,-0.1149216815829277
91.11461400,91114614,-0.11971008777618408
91.11514000,91115140,-0.11971008777618408
91.11570200,91115702,-0.11971008777618408
91.11621800,91116218,-0.1149216815829277
91.11623900,91116239,-0.1149216815829277
91.11671100,91116711,-0.1149216815829277
91.11723300,91117233,-0.1149216815829277
91.11776300,91117763,-0.11971008777618408
91.11829700,91118297,-0.11971008777618408
91.11882400,91118824,-0.12449848651885986
91.11934400,91119344,-0.12928688526153564
91.12003000,91120030,-0.12449848651885986
91.12055300,91120553,-0.11971008777618408
91.12108000,91121080,-0.12928688526153564
91.12160200,91121602,-0.13407529890537262
91.12212400,91122124,-0.13407529890537262
91.12264700,91122647,-0.12449848651885986
91.12323800,91123238,-0.11971008777618408
91.12370400,91123704,-0.11971008777618408
91.12422400,91124224,-0.11971008777618408
91.12474900,91124749,-0.11013327538967133
91.12527200,91125272,-0.10534487664699554
91.12582900,91125829,-0.10055647045373917
91.12585300,91125853,-0.11013327538967133
91.12633000,91126330,-0.11971008777618408
91.12690300,91126903,-0.12449848651885986
91.12753200,91127532,-0.11971008777618408
91.12805500,91128055,-0.1149216815829277
91.12858700,91128587,-0.11013327538967133
91.12910700,91129107,-0.10534487664699554
91.12963000,91129630,-0.10534487664699554
91.13015400,91130154,-0.1149216815829277
91.13074000,91130740,-0.11971008777618408
91.13126300,91131263,-0.12449848651885986
91.13179800,91131798,-0.12449848651885986
91.13231900,91132319,-0.12449848651885986
91.13284400,91132844,-0.12928688526153564
91.13357600,91133576,-0.12449848651885986
91.13359800,91133598,-0.11971008777618408
91.13407100,91134071,-0.11971008777618408
91.13459200,91134592,-0.11971008777618408
91.13511700,91135117,-0.1149216815829277
91.13569700,91135697,-0.1149216815829277
91.13616900,91136169,-0.11971008777618408
91.13669000,91136690,-0.12449848651885986
91.13721200,91137212,-0.11971008777618408
91.13773800,91137738,-0.11013327538967133
91.13826700,91138267,-0.11013327538967133
91.13879700,91138797,-0.11013327538967133
91.13932100,91139321,-0.1149216815829277
91.13984100,91139841,-0.1149216815829277
91.14052700,91140527,-0.11971008777618408
91.14054800,91140548,-0.11971008777618408
91.14104700,91141047,-0.11971008777618408
91.14160700,91141607,-0.11971008777618408
91.14209800,91142098,-0.1149216815829277
91.14262800,91142628,-0.11013327538967133
91.14320100,91143201,-0.1149216815829277
91.14368000,91143680,-0.12449848651885986
91.14420200,91144202,-0.12928688526153564
91.14472600,91144726,-0.13407529890537262
91.14525300,91145253,-0.13407529890537262
91.14578700,91145787,-0.12928688526153564
91.14634300,91146343,-0.12449848651885986
91.14683100,91146831,-0.11971008777618408
91.14743100,91147431,-0.11971008777618408
91.14802900,91148029,-0.1149216815829277
91.14858400,91148584,-0.11013327538967133
91.14860400,91148604,-0.11013327538967133
91.14908900,91149089,-0.1149216815829277
91.14961000,91149610,-0.11013327538967133
91.15013500,91150135,-0.1149216815829277
91.15069800,91150698,-0.1149216815829277
91.15119400,91151194,-0.1149216815829277
91.15171600,91151716,-0.11013327538967133
91.15223700,91152237,-0.11013327538967133
91.15276700,91152767,-0.10534487664699554
91.15329100,91153291,-0.10534487664699554
91.15381900,91153819,-0.11013327538967133
91.15434200,91154342,-0.11013327538967133
91.15503900,91155039,-0.1149216815829277
91.15556000,91155560,-0.11971008777618408
91.15609100,91156091,-0.1149216815829277
91.15661400,91156614,-0.11013327538967133
91.15713600,91157136,-0.10055647045373917
91.15768400,91157684,-0.10055647045373917
91.15770500,91157705,-0.10534487664699554
91.15824300,91158243,-0.11013327538967133
91.15876500,91158765,-0.1149216815829277
91.15928400,91159284,-0.11971008777618408
91.15981500,91159815,-0.11971008777618408
91.16033400,91160334,-0.11971008777618408
91.16093000,91160930,-0.11971008777618408
91.16153500,91161535,-0.11971008777618408
91.16206200,91162062,-0.12449848651885986
91.16258300,91162583,-0.11971008777618408
91.16310500,91163105,-0.11971008777618408
91.16363700,91163637,-0.11971008777618408
91.16416400,91164164,-0.11971008777618408
91.16468400,91164684,-0.11971008777618408
91.16521100,91165211,-0.11971008777618408
91.16578400,91165784,-0.1149216815829277
91.16581000,91165810,-0.11013327538967133
91.16628500,91166285,-0.11013327538967133
91.16681600,91166816,-0.1149216815829277
91.16733500,91167335,-0.11971008777618408
91.16803500,91168035,-0.1149216815829277
91.16857100,91168571,-0.1149216815829277
91.16908700,91169087,-0.1149216815829277
91.16961200,91169612,-0.11971008777618408
91.17013400,91170134,-0.11971008777618408
91.17069800,91170698,-0.11971008777618408
91.17118500,91171185,-0.11971008777618408
91.17170600,91171706,-0.11971008777618408
91.17222900,91172229,-0.12928688526153564
91.17275400,91172754,-0.13407529890537262
91.17328800,91173288,-0.13407529890537262
91.17381200,91173812,-0.13407529890537262
91.17433100,91174331,-0.12449848651885986
91.17493800,91174938,-0.1149216815829277
91.17496000,91174960,-0.11013327538967133
91.17552600,91175526,-0.11013327538967133
91.17606000,91176060,-0.11013327538967133
91.17658700,91176587,-0.1149216815829277
91.17711000,91177110,-0.11971008777618408
91.17763600,91177636,-0.11971008777618408
91.17819900,91178199,-0.11971008777618408
91.17868600,91178686,-0.1149216815829277
91.17920500,91179205,-0.11971008777618408
91.17972700,91179727,-0.12449848651885986
91.18025200,91180252,-0.11971008777618408
91.18078300,91180783,-0.1149216815829277
91.18130600,91181306,-0.1149216815829277
91.18182700,91181827,-0.1149216815829277
91.18235100,91182351,-0.11013327538967133
91.18305500,91183055,-0.10534487664699554
91.18307600,91183076,-0.11013327538967133
91.18356000,91183560,-0.1149216815829277
91.18408200,91184082,-0.11971008777618408
91.18460400,91184604,-0.11971008777618408
91.18512700,91185127,-0.12449848651885986
91.18570100,91185701,-0.12449848651885986
91.18617900,91186179,-0.12449848651885986
91.18670100,91186701,-0.12449848651885986
91.18722400,91187224,-0.12449848651885986
91.18774700,91187747,-0.11971008777618408
91.18828100,91188281,-0.11971008777618408
91.18880200,91188802,-0.11971008777618408
91.18932900,91189329,-0.12449848651885986
91.18991200,91189912,-0.12449848651885986
91.19055700,91190557,-0.11971008777618408
91.19057700,91190577,-0.11971008777618408
91.19106500,91191065,-0.12449848651885986
91.19158800,91191588,-0.12449848651885986
91.19210800,91192108,-0.1149216815829277
91.19263100,91192631,-0.1149216815829277
91.19319800,91193198,-0.1149216815829277
91.19368500,91193685,-0.1149216815829277
91.19421200,91194212,-0.11971008777618408
91.19473400,91194734,-0.1149216815829277
91.19525900,91195259,-0.11013327538967133
91.19579200,91195792,-0.11013327538967133
91.19631400,91196314,-0.11013327538967133
91.19683900,91196839,-0.1149216815829277
91.19752900,91197529,-0.11971008777618408
91.19804800,91198048,-0.12928688526153564
91.19857700,91198577,-0.12928688526153564
91.19909900,91199099,-0.12449848651885986
91.19964700,91199647,-0.11971008777618408
91.19966700,91199667,-0.12449848651885986
91.20014500,91200145,-0.12449848651885986
91.20073500,91200735,-0.12449848651885986
91.20119800,91201198,-0.11971008777618408
91.20172800,91201728,-0.11971008777618408
91.20224500,91202245,-0.1149216815829277
91.20277700,91202777,-0.11013327538967133
91.20332300,91203323,-0.10534487664699554
91.20383500,91203835,-0.10055647045373917
91.20452700,91204527,-0.10055647045373917
91.20505200,91205052,-0.10534487664699554
91.20557400,91205574,-0.11013327538967133
91.20610300,91206103,-0.1149216815829277
91.20662400,91206624,-0.11971008777618408
91.20715500,91207155,-0.11971008777618408
91.20767900,91207679,-0.1149216815829277
91.20828900,91208289,-0.11013327538967133
91.20831000,91208310,-0.11013327538967133
91.20878800,91208788,-0.11013327538967133
91.20931100,91209311,-0.11013327538967133
91.20983600,91209836,-0.11971008777618408
91.21050300,91210503,-0.12449848651885986
91.21106800,91211068,-0.12928688526153564
91.21158900,91211589,-0.13407529890537262
91.21211100,91212111,-0.12928688526153564
91.21263300,91212633,-0.12928688526153564
91.21320500,91213205,-0.12449848651885986
91.21368800,91213688,-0.1149216815829277
91.21421300,91214213,-0.1149216815829277
91.21473400,91214734,-0.11971008777618408
91.21526800,91215268,-0.12928688526153564
91.21579700,91215797,-0.12449848651885986
91.21635200,91216352,-0.12449848651885986
91.21637300,91216373,-0.11971008777618408
91.21684800,91216848,-0.1149216815829277
91.21753300,91217533,-0.11013327538967133
91.21805900,91218059,-0.11013327538967133
91.21858600,91218586,-0.1149216815829277
91.21910900,91219109,-0.1149216815829277
91.21963200,91219632,-0.11013327538967133
91.22015500,91220155,-0.11013327538967133
91.22074500,91220745,-0.11013327538967133
91.22126200,91221262,-0.10534487664699554
91.22178000,91221780,-0.11013327538967133
91.22231200,91222312,-0.1149216815829277
91.22283400,91222834,-0.11971008777618408
91.22345100,91223451,-0.11971008777618408
91.22347200,91223472,-0.11971008777618408
91.22403700,91224037,-0.11971008777618408
91.22456400,91224564,-0.11971008777618408
91.22508300,91225083,-0.11971008777618408
91.22560600,91225606,-0.11971008777618408
91.22613700,91226137,-0.11971008777618408
91.22666500,91226665,-0.11971008777618408
91.22718700,91227187,-0.11971008777618408
91.22771600,91227716,-0.12449848651885986
91.22825900,91228259,-0.12449848651885986
91.22878900,91228789,-0.11971008777618408
91.22931200,91229312,-0.11971008777618408
91.22984100,91229841,-0.1149216815829277
91.23055600,91230556,-0.1149216815829277
91.23057600,91230576,-0.11971008777618408
91.23105700,91231057,-0.11971008777618408
91.23157900,91231579,-0.11971008777618408
91.23210100,91232101,-0.11971008777618408
91.23262500,91232625,-0.11971008777618408
91.23320100,91233201,-0.11971008777618408
91.23367600,91233676,-0.11971008777618408
91.23419700,91234197,-0.1149216815829277
91.23472000,91234720,-0.11013327538967133
91.23524500,91235245,-0.1149216815829277
91.23577200,91235772,-0.11971008777618408
91.23633200,91236332,-0.1149216815829277
91.23682100,91236821,-0.1149216815829277
91.23734800,91237348,-0.1149216815829277
91.23798000,91237980,-0.11971008777618408
91.23855700,91238557,-0.12449848651885986
91.23911600,91239116,-0.12928688526153564
91.23913700,91239137,-0.12449848651885986
91.23960800,91239608,-0.1149216815829277
91.24013000,91240130,-0.1149216815829277
91.24069900,91240699,-0.11971008777618408
91.24118800,91241188,-0.11971008777618408
91.24170400,91241704,-0.1149216815829277
91.24222600,91242226,-0.11013327538967133
91.24275000,91242750,-0.1149216815829277
91.24328300,91243283,-0.12449848651885986
91.24380900,91243809,-0.13407529890537262
91.24432500,91244325,-0.1388636976480484
91.24489100,91244891,-0.1388636976480484
91.24550200,91245502,-0.12928688526153564
91.24604400,91246044,-0.12449848651885986
91.24656400,91246564,-0.11971008777618408
91.24708700,91247087,-0.11013327538967133
91.24760900,91247609,-0.11013327538967133
91.24819200,91248192,-0.11013327538967133
91.24866100,91248661,-0.11013327538967133
91.24921500,91249215,-0.11013327538967133
91.24923800,91249238,-0.10055647045373917
91.24970900,91249709,-0.10055647045373917
91.25023400,91250234,-0.11013327538967133
91.25076800,91250768,-0.1149216815829277
91.25129900,91251299,-0.1149216815829277
91.25182500,91251825,-0.11013327538967133
91.25234600,91252346,-0.11013327538967133
91.25300300,91253003,-0.11013327538967133
91.25354700,91253547,-0.11013327538967133
91.25406600,91254066,-0.11013327538967133
91.25459100,91254591,-0.11013327538967133
91.25511600,91255116,-0.1149216815829277
91.25570000,91255700,-0.11971008777618408
91.25616800,91256168,-0.12449848651885986
91.25669200,91256692,-0.12928688526153564
91.25721400,91257214,-0.12928688526153564
91.25773800,91257738,-0.1388636976480484
91.25826800,91258268,-0.14365209639072418
91.25884400,91258844,-0.1388636976480484
91.25886700,91258867,-0.12928688526153564
91.25931300,91259313,-0.11971008777618408
91.25984200,91259842,-0.1149216815829277
91.26050400,91260504,-0.1149216815829277
91.26105100,91261051,-0.11971008777618408
91.26157400,91261574,-0.12449848651885986
91.26209500,91262095,-0.12449848651885986
91.26261900,91262619,-0.11971008777618408
91.26320000,91263200,-0.11013327538967133
91.26368800,91263688,-0.10534487664699554
91.26421500,91264215,-0.10534487664699554
91.26473400,91264734,-0.11013327538967133
91.26526800,91265268,-0.11013327538967133
91.26579700,91265797,-0.11013327538967133
91.26632400,91266324,-0.11013327538967133
91.26684700,91266847,-0.11013327538967133
91.26753100,91267531,-0.10534487664699554
91.26755100,91267551,-0.10534487664699554
91.26803800,91268038,-0.10534487664699554
91.26857100,91268571,-0.11013327538967133
91.26910100,91269101,-0.11971008777618408
91.26961600,91269616,-0.11971008777618408
91.27014300,91270143,-0.1149216815829277
91.27071600,91270716,-0.11013327538967133
91.27119600,91271196,-0.1149216815829277
91.27172200,91271722,-0.1149216815829277
91.27223800,91272238,-0.1149216815829277
91.27276900,91272769,-0.11971008777618408
91.27330000,91273300,-0.11971008777618408
91.27382300,91273823,-0.11971008777618408
91.27434400,91274344,-0.11971008777618408
91.27500300,91275003,-0.11971008777618408
91.27502300,91275023,-0.11013327538967133
91.27552700,91275527,-0.11013327538967133
91.27605800,91276058,-0.1149216815829277
91.27658300,91276583,-0.1149216815829277
91.27710300,91277103,-0.12449848651885986
91.27762600,91277626,-0.12449848651885986
91.27819800,91278198,-0.1149216815829277
91.27868300,91278683,-0.1149216815829277
91.27920300,91279203,-0.11971008777618408
91.27972400,91279724,-0.11971008777618408
91.28024800,91280248,-0.12449848651885986
91.28078100,91280781,-0.12449848651885986
91.28133700,91281337,-0.11971008777618408
91.28182400,91281824,-0.12449848651885986
91.28235000,91282350,-0.12449848651885986
91.28300800,91283008,-0.11971008777618408
91.28355100,91283551,-0.1149216815829277
91.28409800,91284098,-0.10534487664699554
91.28412000,91284120,-0.10055647045373917
91.28459700,91284597,-0.10534487664699554
91.28511900,91285119,-0.11013327538967133
91.28569800,91285698,-0.11013327538967133
91.28617100,91286171,-0.11013327538967133
91.28669500,91286695,-0.1149216815829277
91.28722000,91287220,-0.11013327538967133
91.28774000,91287740,-0.10534487664699554
91.28827000,91288270,-0.10534487664699554
91.28879600,91288796,-0.11013327538967133
91.28932300,91289323,-0.10534487664699554
91.28985300,91289853,-0.11013327538967133
91.29047400,91290474,-0.11013327538967133
91.29105400,91291054,-0.11971008777618408
91.29157400,91291574,-0.12928688526153564
91.29209700,91292097,-0.13407529890537262
91.29262100,91292621,-0.12928688526153564
91.29320400,91293204,-0.12928688526153564
91.29367300,91293673,-0.12449848651885986
91.29422700,91294227,-0.12928688526153564
91.29424700,91294247,-0.12928688526153564
91.29471700,91294717,-0.12449848651885986
91.29524400,91295244,-0.11971008777618408
91.29577800,91295778,-0.1149216815829277
91.29629900,91296299,-0.11013327538967133
91.29682100,91296821,-0.11013327538967133
91.29735100,91297351,-0.10534487664699554
91.29800000,91298000,-0.10055647045373917
91.29854300,91298543,-0.10534487664699554
91.29906800,91299068,-0.1149216815829277
91.29958900,91299589,-0.12449848651885986
91.30011200,91300112,-0.12928688526153564
91.30069300,91300693,-0.12928688526153564
91.30116800,91301168,-0.12928688526153564
91.30169100,91301691,-0.12928688526153564
91.30221700,91302217,-0.12449848651885986
91.30275100,91302751,-0.11971008777618408
91.30327500,91303275,-0.11971008777618408
91.30383200,91303832,-0.11971008777618408
91.30385700,91303857,-0.11971008777618408
91.30432500,91304325,-0.11013327538967133
91.30484900,91304849,-0.11013327538967133
91.30547600,91305476,-0.1149216815829277
91.30604700,91306047,-0.11971008777618408
91.30656900,91306569,-0.12449848651885986
91.30708900,91307089,-0.11971008777618408
91.30761300,91307613,-0.1149216815829277
91.30820300,91308203,-0.11013327538967133
91.30866800,91308668,-0.11013327538967133
91.30919900,91309199,-0.1149216815829277
91.30971900,91309719,-0.1149216815829277
91.31024400,91310244,-0.1149216815829277
91.31077600,91310776,-0.11013327538967133
91.31130000,91311300,-0.11013327538967133
91.31182000,91311820,-0.11013327538967133
91.31234500,91312345,-0.11013327538967133
91.31302700,91313027,-0.11013327538967133
91.31304800,91313048,-0.1149216815829277
91.31353100,91313531,-0.11971008777618408
91.31405600,91314056,-0.12928688526153564
91.31457600,91314576,-0.12449848651885986
91.31509800,91315098,-0.1149216815829277
91.31562200,91315622,-0.1149216815829277
91.31616100,91316161,-0.1149216815829277
91.31668300,91316683,-0.1149216815829277
91.31720800,91317208,-0.12449848651885986
91.31772900,91317729,-0.12928688526153564
91.31826900,91318269,-0.12449848651885986
91.31879100,91318791,-0.11971008777618408
91.31931600,91319316,-0.11013327538967133
91.31985100,91319851,-0.10534487664699554
91.32052900,91320529,-0.11013327538967133
91.32054900,91320549,-0.1149216815829277
91.32104800,91321048,-0.11971008777618408
91.32157200,91321572,-0.12928688526153564
91.32209300,91322093,-0.12928688526153564
91.32261800,91322618,-0.12449848651885986
91.32320000,91323200,-0.11971008777618408
91.32367100,91323671,-0.11971008777618408
91.32419200,91324192,-0.11971008777618408
91.32471300,91324713,-0.11971008777618408
91.32524100,91325241,-0.12449848651885986
91.32576800,91325768,-0.12449848651885986
91.32633000,91326330,-0.12928688526153564
91.32682300,91326823,-0.12928688526153564
91.32734500,91327345,-0.12928688526153564
91.32802900,91328029,-0.1388636976480484
91.32855800,91328558,-0.1388636976480484
91.32910900,91329109,-0.1388636976480484
91.32913000,91329130,-0.14365209639072418
91.32960200,91329602,-0.13407529890537262
91.33012500,91330125,-0.12928688526153564
91.33070000,91330700,-0.12928688526153564
91.33118200,91331182,-0.11971008777618408
91.33170100,91331701,-0.1149216815829277
91.33222300,91332223,-0.1149216815829277
91.33274600,91332746,-0.1149216815829277
91.33327900,91333279,-0.1149216815829277
91.33380300,91333803,-0.1149216815829277
91.33432500,91334325,-0.11013327538967133
91.33493000,91334930,-0.11013327538967133
91.33553300,91335533,-0.11013327538967133
91.33606200,91336062,-0.1149216815829277
91.33658600,91336586,-0.11971008777618408
91.33710900,91337109,-0.12449848651885986
91.33763300,91337633,-0.12928688526153564
91.33819800,91338198,-0.12449848651885986
91.33871500,91338715,-0.12449848651885986
91.33873600,91338736,-0.12449848651885986
91.33921300,91339213,-0.11971008777618408
91.33973400,91339734,-0.1149216815829277
91.34026500,91340265,-0.1149216815829277
91.34079300,91340793,-0.1149216815829277
91.34132800,91341328,-0.12449848651885986
91.34184800,91341848,-0.12928688526153564
91.34253300,91342533,-0.13407529890537262
91.34305800,91343058,-0.13407529890537262
91.34358500,91343585,-0.12928688526153564
91.34410700,91344107,-0.11971008777618408
91.34462800,91344628,-0.1149216815829277
91.34515000,91345150,-0.1149216815829277
91.34574600,91345746,-0.1149216815829277
91.34626500,91346265,-0.11971008777618408
91.34681000,91346810,-0.11971008777618408
91.34683100,91346831,-0.11971008777618408
91.34732300,91347323,-0.1149216815829277
91.34784400,91347844,-0.11013327538967133
91.34855600,91348556,-0.1149216815829277
91.34908000,91349080,-0.1149216815829277
91.34960200,91349602,-0.1149216815829277
91.35012600,91350126,-0.1149216815829277
91.35069800,91350698,-0.11971008777618408
91.35118500,91351185,-0.11971008777618408
91.35172000,91351720,-0.11971008777618408
91.35223500,91352235,-0.1149216815829277
91.35276400,91352764,-0.1149216815829277
91.35329300,91353293,-0.11013327538967133
91.35382300,91353823,-0.1149216815829277
91.35434300,91354343,-0.1149216815829277
91.35503300,91355033,-0.11971008777618408
91.35505300,91355053,-0.11971008777618408
91.35553800,91355538,-0.11971008777618408
91.35606800,91356068,-0.12449848651885986
91.35659000,91356590,-0.12449848651885986
91.35711100,91357111,-0.1149216815829277
91.35763500,91357635,-0.11013327538967133
91.35820300,91358203,-0.10534487664699554
91.35869000,91358690,-0.10055647045373917
91.35921300,91359213,-0.10055647045373917
91.35973600,91359736,-0.10055647045373917
91.36025900,91360259,-0.10055647045373917
91.36079100,91360791,-0.10055647045373917
91.36131700,91361317,-0.11013327538967133
91.36183600,91361836,-0.1149216815829277
91.36255900,91362559,-0.11971008777618408
91.36258000,91362580,-0.11971008777618408
91.36305500,91363055,-0.1149216815829277
91.36359500,91363595,-0.11013327538967133
91.36411900,91364119,-0.11013327538967133
91.36464100,91364641,-0.1149216815829277
91.36516700,91365167,-0.12449848651885986
91.36575300,91365753,-0.12928688526153564
91.36628100,91366281,-0.12928688526153564
91.36680300,91366803,-0.12928688526153564
91.36733100,91367331,-0.12928688526153564
91.36805500,91368055,-0.12449848651885986
91.36807500,91368075,-0.12449848651885986
91.36856000,91368560,-0.12449848651885986
91.36908300,91369083,-0.12928688526153564
91.36960500,91369605,-0.13407529890537262
91.37014100,91370141,-0.13407529890537262
91.37070000,91370700,-0.12928688526153564
91.37119100,91371191,-0.12449848651885986
91.37171200,91371712,-0.11971008777618408
91.37223400,91372234,-0.11013327538967133
91.37275900,91372759,-0.11013327538967133
91.37329300,91373293,-0.1149216815829277
91.37381700,91373817,-0.11971008777618408
91.37433700,91374337,-0.1149216815829277
91.37503800,91375038,-0.10534487664699554
91.37555800,91375558,-0.10534487664699554
91.37609100,91376091,-0.1149216815829277
91.37664000,91376640,-0.12449848651885986
91.37666000,91376660,-0.12928688526153564
91.37713600,91377136,-0.12928688526153564
91.37766200,91377662,-0.11971008777618408
91.37824500,91378245,-0.11971008777618408
91.37877200,91378772,-0.11971008777618408
91.37929500,91379295,-0.1149216815829277
91.37982000,91379820,-0.10534487664699554
91.38034100,91380341,-0.10055647045373917
91.38104900,91381049,-0.10534487664699554
91.38156800,91381568,-0.1149216815829277
91.38209100,91382091,-0.11971008777618408
91.38261500,91382615,-0.12449848651885986
91.38319800,91383198,-0.12928688526153564
91.38366700,91383667,-0.12928688526153564
91.38419000,91384190,-0.13407529890537262
91.38473800,91384738,-0.13407529890537262
91.38475800,91384758,-0.12449848651885986
91.38523700,91385237,-0.11971008777618408
91.38576700,91385767,-0.11013327538967133
91.38629400,91386294,-0.11013327538967133
91.38682700,91386827,-0.11013327538967133
91.38735300,91387353,-0.11013327538967133
91.38800600,91388006,-0.11013327538967133
91.38854600,91388546,-0.11971008777618408
91.38906900,91389069,-0.12449848651885986
91.38959000,91389590,-0.12449848651885986
91.39011300,91390113,-0.11971008777618408
91.39069800,91390698,-0.11971008777618408
91.39117000,91391170,-0.12449848651885986
91.39168900,91391689,-0.12928688526153564
91.39221000,91392210,-0.12449848651885986
91.39273300,91392733,-0.1149216815829277
91.39326800,91393268,-0.11013327538967133
91.39379700,91393797,-0.11013327538967133
91.39434100,91394341,-0.11013327538967133
91.39436200,91394362,-0.11013327538967133
91.39484900,91394849,-0.11013327538967133
91.39552900,91395529,-0.10534487664699554
91.39605900,91396059,-0.10534487664699554
91.39658200,91396582,-0.10534487664699554
91.39710800,91397108,-0.11013327538967133
91.39762800,91397628,-0.12449848651885986
91.39819800,91398198,-0.12928688526153564
91.39868100,91398681,-0.12928688526153564
91.39920800,91399208,-0.11971008777618408
91.39972800,91399728,-0.1149216815829277
91.40025400,91400254,-0.1149216815829277
91.40078500,91400785,-0.11971008777618408
91.40131400,91401314,-0.11971008777618408
91.40183400,91401834,-0.1149216815829277
91.40253500,91402535,-0.1149216815829277
91.40255900,91402559,-0.11971008777618408
91.40303000,91403030,-0.11971008777618408
91.40356500,91403565,-0.12449848651885986
91.40409400,91404094,-0.12928688526153564
91.40461400,91404614,-0.12928688526153564
91.40514700,91405147,-0.12449848651885986
91.40569600,91405696,-0.11971008777618408
91.40619900,91406199,-0.11971008777618408
91.40672100,91406721,-0.11971008777618408
91.40725100,91407251,-0.12449848651885986
91.40776800,91407768,-0.12449848651885986
91.40830200,91408302,-0.11971008777618408
91.40882700,91408827,-0.12449848651885986
91.40935000,91409350,-0.12449848651885986
91.41006000,91410060,-0.11971008777618408
91.41008100,91410081,-0.11971008777618408
91.41055500,91410555,-0.1149216815829277
91.41108800,91411088,-0.1149216815829277
91.41161300,91411613,-0.11971008777618408
91.41213100,91412131,-0.12449848651885986
91.41265800,91412658,-0.11971008777618408
91.41324100,91413241,-0.1149216815829277
91.41376800,91413768,-0.1149216815829277
91.41429200,91414292,-0.12449848651885986
91.41481200,91414812,-0.1388636976480484
91.41533600,91415336,-0.1388636976480484
91.41605200,91416052,-0.1388636976480484
91.41659500,91416595,-0.12928688526153564
91.41661700,91416617,-0.12928688526153564
91.41709400,91417094,-0.13407529890537262
91.41761500,91417615,-0.12928688526153564
91.41820000,91418200,-0.11971008777618408
91.41866900,91418669,-0.11971008777618408
91.41919000,91419190,-0.11971008777618408
91.41971300,91419713,-0.11971008777618408
91.42023700,91420237,-0.11971008777618408
91.42077200,91420772,-0.11971008777618408
91.42129300,91421293,-0.12928688526153564
91.42181700,91421817,-0.12928688526153564
91.42234500,91422345,-0.12449848651885986
91.42302600,91423026,-0.11971008777618408
91.42356200,91423562,-0.1149216815829277
91.42408500,91424085,-0.11013327538967133
91.42460500,91424605,-0.10534487664699554
91.42513600,91425136,-0.10055647045373917
91.42569800,91425698,-0.10055647045373917
91.42621800,91426218,-0.10055647045373917
91.42623900,91426239,-0.11013327538967133
91.42671300,91426713,-0.11971008777618408
91.42723400,91427234,-0.11971008777618408
91.42776100,91427761,-0.12449848651885986
91.42829000,91428290,-0.12928688526153564
91.42881800,91428818,-0.12928688526153564
91.42933800,91429338,-0.11971008777618408
91.42993700,91429937,-0.10534487664699554
91.43053100,91430531,-0.10534487664699554
91.43105700,91431057,-0.1149216815829277
91.43158800,91431588,-0.11971008777618408
91.43211000,91432110,-0.12928688526153564
91.43263300,91432633,-0.12928688526153564
91.43319900,91433199,-0.12449848651885986
91.43368600,91433686,-0.11971008777618408
91.43420600,91434206,-0.1149216815829277
91.43472800,91434728,-0.1149216815829277
91.43525300,91435253,-0.1149216815829277
91.43581000,91435810,-0.1149216815829277
91.43583200,91435832,-0.11971008777618408
91.43631300,91436313,-0.11971008777618408
91.43683700,91436837,-0.11971008777618408
91.43750500,91437505,-0.1149216815829277
91.43804900,91438049,-0.10534487664699554
91.43858400,91438584,-0.10534487664699554
91.43910600,91439106,-0.10534487664699554
91.43962800,91439628,-0.1149216815829277
91.44015500,91440155,-0.11971008777618408
91.44073800,91440738,-0.1149216815829277
91.44126400,91441264,-0.11013327538967133
91.44178500,91441785,-0.10534487664699554
91.44231300,91442313,-0.10055647045373917
91.44283600,91442836,-0.10055647045373917
91.44348300,91443483,-0.10534487664699554
91.44350900,91443509,-0.1149216815829277
91.44404300,91444043,-0.12449848651885986
91.44456500,91444565,-0.11971008777618408
91.44508500,91445085,-0.11971008777618408
91.44560800,91445608,-0.11971008777618408
91.44614000,91446140,-0.11971008777618408
91.44666400,91446664,-0.11971008777618408
91.44718600,91447186,-0.11971008777618408
91.44770900,91447709,-0.12928688526153564
91.44826200,91448262,-0.13407529890537262
91.44879200,91448792,-0.1388636976480484
91.44931200,91449312,-0.1388636976480484
91.44983300,91449833,-0.12928688526153564
91.45053200,91450532,-0.11971008777618408
91.45055200,91450552,-0.1149216815829277
91.45104800,91451048,-0.11013327538967133
91.45157800,91451578,-0.11013327538967133
91.45209500,91452095,-0.1149216815829277
91.45262000,91452620,-0.1149216815829277
91.45320000,91453200,-0.11013327538967133
91.45366700,91453667,-0.11013327538967133
91.45419000,91454190,-0.11971008777618408
91.45471400,91454714,-0.12449848651885986
91.45523600,91455236,-0.11971008777618408
91.45577100,91455771,-0.11971008777618408
91.45633000,91456330,-0.1149216815829277
91.45692700,91456927,-0.1149216815829277
91.45751600,91457516,-0.11971008777618408
91.45806900,91458069,-0.11971008777618408
91.45808900,91458089,-0.1149216815829277
91.45857300,91458573,-0.1149216815829277
91.45910000,91459100,-0.11013327538967133
91.45962100,91459621,-0.11013327538967133
91.46014400,91460144,-0.1149216815829277
91.46074000,91460740,-0.11971008777618408
91.46126600,91461266,-0.12449848651885986
91.46178400,91461784,-0.12449848651885986
91.46231700,91462317,-0.11013327538967133
91.46284100,91462841,-0.09576806426048279
91.46354900,91463549,-0.10055647045373917
91.46407400,91464074,-0.11013327538967133
91.46459500,91464595,-0.1149216815829277
91.46514800,91465148,-0.11971008777618408
91.46516800,91465168,-0.12449848651885986
91.46569900,91465699,-0.12928688526153564
91.46617500,91466175,-0.12928688526153564
91.46669700,91466697,-0.12928688526153564
91.46722000,91467220,-0.12928688526153564
91.46774400,91467744,-0.12449848651885986
91.46827600,91468276,-0.12449848651885986
91.46880200,91468802,-0.12449848651885986
91.46932400,91469324,-0.12449848651885986
91.46988100,91469881,-0.11971008777618408
91.47054500,91470545,-0.1149216815829277
91.47107700,91471077,-0.1149216815829277
91.47160200,91471602,-0.1149216815829277
91.47212200,91472122,-0.11013327538967133
91.47264600,91472646,-0.10534487664699554
91.47323300,91473233,-0.10055647045373917
91.47370100,91473701,-0.10055647045373917
91.47424800,91474248,-0.10055647045373917
91.47426800,91474268,-0.11013327538967133
91.47474500,91474745,-0.11971008777618408
91.47527200,91475272,-0.11971008777618408
91.47580300,91475803,-0.1149216815829277
91.47632600,91476326,-0.1149216815829277
91.47685000,91476850,-0.11971008777618408
91.47751100,91477511,-0.12449848651885986
91.47803200,91478032,-0.11971008777618408
91.47856300,91478563,-0.11971008777618408
91.47908600,91479086,-0.11971008777618408
91.47960800,91479608,-0.12928688526153564
91.48013100,91480131,-0.12928688526153564
91.48070100,91480701,-0.12928688526153564
91.48118400,91481184,-0.11971008777618408
91.48170600,91481706,-0.1149216815829277
91.48222800,91482228,-0.10534487664699554
91.48275200,91482752,-0.10055647045373917
91.48328600,91483286,-0.10055647045373917
91.48384600,91483846,-0.10534487664699554
91.48436100,91484361,-0.11013327538967133
91.48438400,91484384,-0.1149216815829277
91.48497600,91484976,-0.11971008777618408
91.48553600,91485536,-0.11971008777618408
91.48606400,91486064,-0.1149216815829277
91.48658600,91486586,-0.11013327538967133
91.48710900,91487109,-0.1149216815829277
91.48763100,91487631,-0.11971008777618408
91.48819800,91488198,-0.11971008777618408
91.48868500,91488685,-0.11971008777618408
91.48921400,91489214,-0.1149216815829277
91.48974000,91489740,-0.1149216815829277
91.49026500,91490265,-0.1149216815829277
91.49079500,91490795,-0.11971008777618408
91.49132400,91491324,-0.11971008777618408
91.49184500,91491845,-0.1149216815829277
91.49253600,91492536,-0.11013327538967133
91.49255600,91492556,-0.11013327538967133
91.49303000,91493030,-0.11013327538967133
91.49356100,91493561,-0.11971008777618408
91.49408700,91494087,-0.11971008777618408
91.49460700,91494607,-0.12449848651885986
91.49513900,91495139,-0.12928688526153564
91.49570200,91495702,-0.12928688526153564
91.49619100,91496191,-0.12449848651885986
91.49671100,91496711,-0.11971008777618408
91.49723300,91497233,-0.12449848651885986
91.49776200,91497762,-0.12928688526153564
91.49829500,91498295,-0.11971008777618408
91.49882400,91498824,-0.1149216815829277
91.49934500,91499345,-0.1149216815829277
91.49998600,91499986,-0.1149216815829277
91.50056500,91500565,-0.12449848651885986
91.50058500,91500585,-0.12449848651885986
91.50107300,91501073,-0.12449848651885986
91.50159500,91501595,-0.11971008777618408
91.50211500,91502115,-0.12449848651885986
91.50264000,91502640,-0.12449848651885986
91.50320800,91503208,-0.11971008777618408
91.50369100,91503691,-0.1149216815829277
91.50421200,91504212,-0.1149216815829277
91.50473400,91504734,-0.11971008777618408
91.50525800,91505258,-0.11971008777618408
91.50579200,91505792,-0.1149216815829277
91.50634800,91506348,-0.1149216815829277
91.50684600,91506846,-0.1149216815829277
91.50750400,91507504,-0.1149216815829277
91.50803600,91508036,-0.1149216815829277
91.50856600,91508566,-0.11971008777618408
91.50912200,91509122,-0.11971008777618408
91.50963500,91509635,-0.12449848651885986
91.50965500,91509655,-0.11971008777618408
91.51013300,91510133,-0.11971008777618408
91.51069800,91510698,-0.11971008777618408
91.51118400,91511184,-0.11971008777618408
91.51170500,91511705,-0.11971008777618408
91.51222800,91512228,-0.11971008777618408
91.51275000,91512750,-0.12928688526153564
91.51328700,91513287,-0.1388636976480484
91.51381000,91513810,-0.12928688526153564
91.51433000,91514330,-0.12449848651885986
91.51487100,91514871,-0.11971008777618408
91.51553100,91515531,-0.11971008777618408
91.51606500,91516065,-0.11971008777618408
91.51659200,91516592,-0.11971008777618408
91.51711500,91517115,-0.11971008777618408
91.51764800,91517648,-0.11971008777618408
91.51823300,91518233,-0.11971008777618408
91.51870000,91518700,-0.11971008777618408
91.51925500,91519255,-0.11971008777618408
91.51927600,91519276,-0.12449848651885986
91.51974900,91519749,-0.11971008777618408
91.52027400,91520274,-0.11971008777618408
91.52080300,91520803,-0.12928688526153564
91.52133500,91521335,-0.12928688526153564
91.52191100,91521911,-0.12449848651885986
91.52253200,91522532,-0.12449848651885986
91.52305700,91523057,-0.12449848651885986
91.52358600,91523586,-0.11971008777618408
91.52411300,91524113,-0.1149216815829277
91.52463500,91524635,-0.1149216815829277
91.52516000,91525160,-0.1149216815829277
91.52574200,91525742,-0.1149216815829277
91.52626600,91526266,-0.1149216815829277
91.52679300,91526793,-0.11013327538967133
91.52734200,91527342,-0.11013327538967133
91.52736200,91527362,-0.11013327538967133
91.52784100,91527841,-0.11013327538967133
91.52851700,91528517,-0.11013327538967133
91.52907900,91529079,-0.11013327538967133
91.52959900,91529599,-0.10534487664699554
91.53013500,91530135,-0.10534487664699554
91.53069800,91530698,-0.11013327538967133
91.53118900,91531189,-0.11971008777618408
91.53171000,91531710,-0.11971008777618408
91.53223300,91532233,-0.11971008777618408
91.53275900,91532759,-0.11971008777618408
91.53329200,91533292,-0.11971008777618408
91.53381400,91533814,-0.11971008777618408
91.53433700,91534337,-0.1149216815829277
91.53500800,91535008,-0.11013327538967133
91.53502900,91535029,-0.11013327538967133
91.53554500,91535545,-0.10534487664699554
91.53607500,91536075,-0.10534487664699554
91.53659300,91536593,-0.11013327538967133
91.53711600,91537116,-0.1149216815829277
91.53763900,91537639,-0.1149216815829277
91.53820000,91538200,-0.11971008777618408
91.53869500,91538695,-0.12449848651885986
91.53921900,91539219,-0.12449848651885986
91.53974100,91539741,-0.12449848651885986
91.54026900,91540269,-0.11971008777618408
91.54079600,91540796,-0.1149216815829277
91.54132100,91541321,-0.11013327538967133
91.54184700,91541847,-0.11013327538967133
91.54255600,91542556,-0.1149216815829277
91.54257700,91542577,-0.1149216815829277
91.54305100,91543051,-0.1149216815829277
91.54358200,91543582,-0.1149216815829277
91.54410400,91544104,-0.11971008777618408
91.54462700,91544627,-0.11971008777618408
91.54514900,91545149,-0.11971008777618408
91.54574400,91545744,-0.12449848651885986
91.54626600,91546266,-0.12928688526153564
91.54678900,91546789,-0.12928688526153564
91.54732000,91547320,-0.12928688526153564
91.54784200,91547842,-0.11971008777618408
91.54852500,91548525,-0.11971008777618408
91.54907400,91549074,-0.12449848651885986
91.54909400,91549094,-0.12928688526153564
91.54956900,91549569,-0.12928688526153564
91.55009200,91550092,-0.12449848651885986
91.55061500,91550615,-0.12449848651885986
91.55114700,91551147,-0.11971008777618408
91.55167100,91551671,-0.11971008777618408
91.55219500,91552195,-0.1149216815829277
91.55271600,91552716,-0.10534487664699554
91.55326700,91553267,-0.090979665517807
91.55379100,91553791,-0.08140286058187485
91.55431100,91554311,-0.08619125932455063
91.55484600,91554846,-0.09576806426048279
91.55552600,91555526,-0.10534487664699554
91.55605700,91556057,-0.11013327538967133
91.55657800,91556578,-0.11013327538967133
91.55710300,91557103,-0.1149216815829277
91.55762600,91557626,-0.1149216815829277
91.55819800,91558198,-0.1149216815829277
91.55822300,91558223,-0.11971008777618408
91.55868200,91558682,-0.11971008777618408
91.55920300,91559203,-0.1149216815829277
91.55972400,91559724,-0.1149216815829277
91.56024900,91560249,-0.11013327538967133
91.56078200,91560782,-0.10534487664699554
91.56133600,91561336,-0.10534487664699554
91.56200600,91562006,-0.11013327538967133
91.56253700,91562537,-0.11013327538967133
91.56305700,91563057,-0.11971008777618408
91.56359000,91563590,-0.12449848651885986
91.56411500,91564115,-0.11971008777618408
91.56463600,91564636,-0.11971008777618408
91.56516300,91565163,-0.12449848651885986
91.56577100,91565771,-0.12449848651885986
91.56579300,91565793,-0.12449848651885986
91.56627900,91566279,-0.12449848651885986
91.56679900,91566799,-0.11971008777618408
91.56732900,91567329,-0.11971008777618408
91.56792700,91567927,-0.1149216815829277
91.56855200,91568552,-0.1149216815829277
91.56907700,91569077,-0.11971008777618408
91.56959900,91569599,-0.12449848651885986
91.57012200,91570122,-0.13407529890537262
91.57069800,91570698,-0.13407529890537262
91.57117200,91571172,-0.13407529890537262
91.57169200,91571692,-0.12928688526153564
91.57221400,91572214,-0.12928688526153564
91.57273700,91572737,-0.12449848651885986
91.57326900,91573269,-0.11971008777618408
91.57382800,91573828,-0.11971008777618408
91.57431300,91574313,-0.11971008777618408
91.57487200,91574872,-0.11971008777618408
91.57489300,91574893,-0.11971008777618408
91.57552700,91575527,-0.11971008777618408
91.57606400,91576064,-0.1149216815829277
91.57659300,91576593,-0.1149216815829277
91.57711600,91577116,-0.11971008777618408
91.57763700,91577637,-0.11971008777618408
91.57819800,91578198,-0.11971008777618408
91.57869100,91578691,-0.11971008777618408
91.57921700,91579217,-0.11971008777618408
91.57973700,91579737,-0.11971008777618408
91.58026200,91580262,-0.11971008777618408
91.58079300,91580793,-0.11971008777618408
91.58132200,91581322,-0.11971008777618408
91.58184300,91581843,-0.11971008777618408
91.58253900,91582539,-0.11971008777618408
91.58255900,91582559,-0.11971008777618408
91.58303600,91583036,-0.1149216815829277
91.58358500,91583585,-0.11013327538967133
91.58410700,91584107,-0.11013327538967133
91.58462900,91584629,-0.11013327538967133
91.58515400,91585154,-0.11013327538967133
91.58573900,91585739,-0.11971008777618408
91.58626400,91586264,-0.11971008777618408
91.58678700,91586787,-0.12449848651885986
91.58731700,91587317,-0.1149216815829277
91.58784300,91587843,-0.11013327538967133
91.58857500,91588575,-0.11013327538967133
91.58859600,91588596,-0.1149216815829277
91.58907800,91589078,-0.11971008777618408
91.58961500,91589615,-0.1149216815829277
91.59013600,91590136,-0.10534487664699554
91.59070700,91590707,-0.10534487664699554
91.59118800,91591188,-0.11013327538967133
91.59171400,91591714,-0.1149216815829277
91.59224000,91592240,-0.1149216815829277
91.59276000,91592760,-0.1149216815829277
91.59329400,91593294,-0.11971008777618408
91.59381600,91593816,-0.11971008777618408
91.59433800,91594338,-0.11971008777618408
91.59500700,91595007,-0.12449848651885986
91.59552900,91595529,-0.12928688526153564
91.59605900,91596059,-0.12449848651885986
91.59660900,91596609,-0.11971008777618408
91.59663000,91596630,-0.1149216815829277
91.59710600,91597106,-0.11013327538967133
91.59763200,91597632,-0.10534487664699554
91.59820100,91598201,-0.11013327538967133
91.59868300,91598683,-0.1149216815829277
91.59920400,91599204,-0.1149216815829277
91.59972800,91599728,-0.11971008777618408
91.60025300,91600253,-0.12449848651885986
91.60078700,91600787,-0.12928688526153564
91.60131200,91601312,-0.13407529890537262
91.60183700,91601837,-0.13407529890537262
91.60252800,91602528,-0.12928688526153564
91.60305500,91603055,-0.12449848651885986
91.60359700,91603597,-0.11971008777618408
91.60412700,91604127,-0.11013327538967133
91.60464700,91604647,-0.10534487664699554
91.60517100,91605171,-0.10534487664699554
91.60579700,91605797,-0.1149216815829277
91.60581800,91605818,-0.12449848651885986
91.60629700,91606297,-0.12928688526153564
91.60682100,91606821,-0.12928688526153564
91.60734900,91607349,-0.12449848651885986
91.60802900,91608029,-0.12449848651885986
91.60855800,91608558,-0.11971008777618408
91.60908000,91609080,-0.11971008777618408
91.60960300,91609603,-0.12449848651885986
91.61012800,91610128,-0.12928688526153564
91.61070000,91610700,-0.12449848651885986
91.61118100,91611181,-0.1149216815829277
91.61170300,91611703,-0.1149216815829277
91.61222500,91612225,-0.1149216815829277
91.61274700,91612747,-0.1149216815829277
91.61330900,91613309,-0.1149216815829277
91.61333300,91613333,-0.11971008777618408
91.61382900,91613829,-0.11971008777618408
91.61440600,91614406,-0.11971008777618408
91.61503800,91615038,-0.11971008777618408
91.61556400,91615564,-0.12449848651885986
91.61609200,91616092,-0.12449848651885986
91.61661500,91616615,-0.11971008777618408
91.61713900,91617139,-0.11971008777618408
91.61766300,91617663,-0.11971008777618408
91.61824600,91618246,-0.11971008777618408
91.61877300,91618773,-0.11013327538967133
91.61929200,91619292,-0.11013327538967133
91.61982800,91619828,-0.11013327538967133
91.62037400,91620374,-0.11013327538967133
91.62039400,91620394,-0.11013327538967133
91.62105200,91621052,-0.1149216815829277
91.62156900,91621569,-0.11971008777618408
91.62209500,91622095,-0.11971008777618408
91.62261400,91622614,-0.12449848651885986
91.62319900,91623199,-0.12449848651885986
91.62366700,91623667,-0.11971008777618408
91.62418900,91624189,-0.11971008777618408
91.62471100,91624711,-0.1149216815829277
91.62523400,91625234,-0.1149216815829277
91.62577100,91625771,-0.11971008777618408
91.62629600,91626296,-0.12928688526153564
91.62682500,91626825,-0.12928688526153564
91.62734700,91627347,-0.11971008777618408
91.62803800,91628038,-0.1149216815829277
91.62805800,91628058,-0.10534487664699554
91.62854500,91628545,-0.10055647045373917
91.62906900,91629069,-0.09576806426048279
91.62958800,91629588,-0.09576806426048279
91.63011500,91630115,-0.10055647045373917
91.63069700,91630697,-0.10534487664699554
91.63117000,91631170,-0.11013327538967133
91.63169100,91631691,-0.1149216815829277
91.63221300,91632213,-0.12449848651885986
91.63273600,91632736,-0.12928688526153564
91.63326800,91633268,-0.13407529890537262
91.63379300,91633793,-0.13407529890537262
91.63431300,91634313,-0.12928688526153564
91.63484100,91634841,-0.12449848651885986
91.63555200,91635552,-0.1149216815829277
91.63557200,91635572,-0.10534487664699554
91.63606200,91636062,-0.10055647045373917
91.63658900,91636589,-0.10534487664699554
91.63711000,91637110,-0.11013327538967133
91.63763400,91637634,-0.11013327538967133
91.63820900,91638209,-0.11013327538967133
91.63868800,91638688,-0.10534487664699554
91.63921500,91639215,-0.10534487664699554
91.63973600,91639736,-0.10534487664699554
91.64026300,91640263,-0.10534487664699554
91.64079300,91640793,-0.10534487664699554
91.64134800,91641348,-0.10534487664699554
91.64184800,91641848,-0.10534487664699554
91.64252900,91642529,-0.11013327538967133
91.64305200,91643052,-0.1149216815829277
91.64358200,91643582,-0.1149216815829277
91.64410400,91644104,-0.11971008777618408
91.64465200,91644652,-0.11971008777618408
91.64467100,91644671,-0.11971008777618408
91.64515600,91645156,-0.11971008777618408
91.64574600,91645746,-0.11971008777618408
91.64626400,91646264,-0.12449848651885986
91.64678800,91646788,-0.11971008777618408
91.64732300,91647323,-0.1149216815829277
91.64784700,91647847,-0.10534487664699554
91.64855200,91648552,-0.10534487664699554
91.64907700,91649077,-0.11013327538967133
91.64959600,91649596,-0.1149216815829277
91.65012500,91650125,-0.11971008777618408
91.65070000,91650700,-0.11971008777618408
91.65118600,91651186,-0.12449848651885986
91.65173400,91651734,-0.12928688526153564
91.65175600,91651756,-0.12928688526153564
91.65223500,91652235,-0.12449848651885986
91.65275800,91652758,-0.1149216815829277
91.65328800,91653288,-0.1149216815829277
91.65381400,91653814,-0.1149216815829277
91.65433500,91654335,-0.1149216815829277
91.65504100,91655041,-0.11013327538967133
91.65556600,91655566,-0.11013327538967133
91.65609600,91656096,-0.1149216815829277
91.65661700,91656617,-0.1149216815829277
91.65713800,91657138,-0.11971008777618408
91.65766200,91657662,-0.12449848651885986
91.65825600,91658256,-0.11971008777618408
91.65878100,91658781,-0.1149216815829277
91.65933200,91659332,-0.1149216815829277
91.65935200,91659352,-0.11971008777618408
91.65983200,91659832,-0.11971008777618408
91.66039900,91660399,-0.11971008777618408
91.66105500,91661055,-0.11971008777618408
91.66158000,91661580,-0.11971008777618408
91.66209900,91662099,-0.11971008777618408
91.66262800,91662628,-0.1149216815829277
91.66319800,91663198,-0.1149216815829277
91.66367800,91663678,-0.1149216815829277
91.66420200,91664202,-0.11971008777618408
91.66472400,91664724,-0.11971008777618408
91.66524700,91665247,-0.12449848651885986
91.66577700,91665777,-0.11971008777618408
91.66634200,91666342,-0.11013327538967133
91.66706500,91667065,-0.10534487664699554
91.66708800,91667088,-0.11013327538967133
91.66756400,91667564,-0.1149216815829277
91.66808500,91668085,-0.11971008777618408
91.66861600,91668616,-0.11971008777618408
91.66913500,91669135,-0.11971008777618408
91.66965800,91669658,-0.11971008777618408
91.67018200,91670182,-0.11971008777618408
91.67076200,91670762,-0.11013327538967133
91.67129100,91671291,-0.10534487664699554
91.67181500,91671815,-0.11013327538967133
91.67234300,91672343,-0.11971008777618408
91.67303400,91673034,-0.11971008777618408
91.67305500,91673055,-0.1149216815829277
91.67356400,91673564,-0.1149216815829277
91.67408800,91674088,-0.11971008777618408
91.67460900,91674609,-0.11971008777618408
91.67513400,91675134,-0.11971008777618408
91.67570100,91675701,-0.11971008777618408
91.67618800,91676188,-0.11971008777618408
91.67671500,91676715,-0.11971008777618408
91.67723800,91677238,-0.11971008777618408
91.67776400,91677764,-0.11971008777618408
91.67829600,91678296,-0.1149216815829277
91.67881800,91678818,-0.1149216815829277
91.67933800,91679338,-0.11013327538967133
91.68000400,91680004,-0.11013327538967133
91.68055300,91680553,-0.10534487664699554
91.68057400,91680574,-0.10534487664699554
91.68108700,91681087,-0.11013327538967133
91.68160600,91681606,-0.1149216815829277
91.68212700,91682127,-0.11971008777618408
91.68265200,91682652,-0.11971008777618408
91.68324200,91683242,-0.11971008777618408
91.68376700,91683767,-0.11013327538967133
91.68428700,91684287,-0.10055647045373917
91.68482100,91684821,-0.10534487664699554
91.68534500,91685345,-0.1149216815829277
91.68611600,91686116,-0.12449848651885986
91.68613700,91686137,-0.12449848651885986
91.68661800,91686618,-0.1149216815829277
91.68713800,91687138,-0.11013327538967133
91.68766100,91687661,-0.10534487664699554
91.68824800,91688248,-0.10055647045373917
91.68878000,91688780,-0.10055647045373917
91.68930400,91689304,-0.11013327538967133
91.68982300,91689823,-0.1149216815829277
91.69040600,91690406,-0.11013327538967133
91.69104700,91691047,-0.11013327538967133
91.69157100,91691571,-0.1149216815829277
91.69209500,91692095,-0.11971008777618408
91.69262000,91692620,-0.1149216815829277
91.69319800,91693198,-0.1149216815829277
91.69369800,91693698,-0.11013327538967133
91.69371900,91693719,-0.1149216815829277
91.69419400,91694194,-0.1149216815829277
91.69471500,91694715,-0.1149216815829277
91.69524000,91695240,-0.1149216815829277
91.69576900,91695769,-0.12449848651885986
91.69630000,91696300,-0.12928688526153564
91.69681800,91696818,-0.12928688526153564
91.69735000,91697350,-0.11971008777618408
91.69800400,91698004,-0.1149216815829277
91.69855000,91698550,-0.10534487664699554
91.69907600,91699076,-0.10055647045373917
91.69959600,91699596,-0.10055647045373917
91.70012300,91700123,-0.10534487664699554
91.70070100,91700701,-0.11013327538967133
91.70118200,91701182,-0.1149216815829277
91.70170600,91701706,-0.11971008777618408
91.70222800,91702228,-0.12449848651885986
91.70275400,91702754,-0.12928688526153564
91.70333000,91703330,-0.12449848651885986
91.70335100,91703351,-0.12449848651885986
91.70380700,91703807,-0.12928688526153564
91.70433000,91704330,-0.12928688526153564
91.70491000,91704910,-0.12449848651885986
91.70553300,91705533,-0.12449848651885986
91.70606300,91706063,-0.12449848651885986
91.70658800,91706588,-0.11971008777618408
91.70710700,91707107,-0.11971008777618408
91.70763200,91707632,-0.11971008777618408
91.70819800,91708198,-0.12449848651885986
91.70868900,91708689,-0.12449848651885986
91.70920900,91709209,-0.12449848651885986
91.70973500,91709735,-0.12449848651885986
91.71025700,91710257,-0.11971008777618408
91.71079400,91710794,-0.11971008777618408
91.71131800,91711318,-0.11971008777618408
91.71184100,91711841,-0.11971008777618408
91.71250700,91712507,-0.11971008777618408
91.71253100,91712531,-0.12449848651885986
91.71304800,91713048,-0.12449848651885986
91.71358000,91713580,-0.11971008777618408
91.71410600,91714106,-0.11971008777618408
91.71462700,91714627,-0.12928688526153564
91.71515200,91715152,-0.13407529890537262
91.71573700,91715737,-0.13407529890537262
91.71626200,91716262,-0.1388636976480484
91.71679200,91716792,-0.13407529890537262
91.71732800,91717328,-0.12928688526153564
91.71784400,91717844,-0.12928688526153564
91.71854400,91718544,-0.12449848651885986
91.71856700,91718567,-0.12449848651885986
91.71904100,91719041,-0.11971008777618408
91.71956100,91719561,-0.11971008777618408
91.72008500,91720085,-0.1149216815829277
91.72060900,91720609,-0.11971008777618408
91.72114400,91721144,-0.11971008777618408
91.72166500,91721665,-0.11971008777618408
91.72218600,91722186,-0.11971008777618408
91.72271000,91722710,-0.1149216815829277
91.72326200,91723262,-0.11013327538967133
91.72378900,91723789,-0.11013327538967133
91.72430900,91724309,-0.11013327538967133
91.72484100,91724841,-0.1149216815829277
91.72547800,91725478,-0.1149216815829277
91.72608300,91726083,-0.1149216815829277
91.72610500,91726105,-0.1149216815829277
91.72658100,91726581,-0.11971008777618408
91.72710300,91727103,-0.12449848651885986
91.72762600,91727626,-0.12928688526153564
91.72820000,91728200,-0.12449848651885986
91.72868900,91728689,-0.1149216815829277
91.72921300,91729213,-0.11013327538967133
91.72973500,91729735,-0.10534487664699554
91.73026100,91730261,-0.11013327538967133
91.73079400,91730794,-0.12449848651885986
91.73134300,91731343,-0.12449848651885986
91.73183900,91731839,-0.11971008777618408
91.73251000,91732510,-0.11013327538967133
91.73303100,91733031,-0.10534487664699554
91.73356200,91733562,-0.11013327538967133
91.73408900,91734089,-0.1149216815829277
91.73461000,91734610,-0.11971008777618408
91.73513700,91735137,-0.1149216815829277
91.73570100,91735701,-0.1149216815829277
91.73572300,91735723,-0.11013327538967133
91.73618900,91736189,-0.11013327538967133
91.73670900,91736709,-0.11013327538967133
91.73723400,91737234,-0.10534487664699554
91.73775700,91737757,-0.10534487664699554
91.73828900,91738289,-0.10055647045373917
91.73881300,91738813,-0.10055647045373917
91.73933700,91739337,-0.11013327538967133
91.74001100,91740011,-0.11013327538967133
91.74054000,91740540,-0.10534487664699554
91.74108000,91741080,-0.10055647045373917
91.74159900,91741599,-0.09576806426048279
91.74212000,91742120,-0.10534487664699554
91.74264300,91742643,-0.11013327538967133
91.74323300,91743233,-0.11013327538967133
91.74369700,91743697,-0.1149216815829277
91.74421900,91744219,-0.11971008777618408
91.74474200,91744742,-0.12449848651885986
91.74528900,91745289,-0.12449848651885986
91.74531000,91745310,-0.11971008777618408
91.74580100,91745801,-0.11013327538967133
91.74632400,91746324,-0.10534487664699554
91.74684600,91746846,-0.10534487664699554
91.74751800,91747518,-0.1149216815829277
91.74804000,91748040,-0.11971008777618408
91.74857700,91748577,-0.11971008777618408
91.74910500,91749105,-0.11971008777618408
91.74962400,91749624,-0.11971008777618408
91.75014900,91750149,-0.1149216815829277
91.75073900,91750739,-0.1149216815829277
91.75120300,91751203,-0.1149216815829277
91.75173300,91751733,-0.11971008777618408
91.75224900,91752249,-0.12449848651885986
91.75277500,91752775,-0.12928688526153564
91.75330500,91753305,-0.13407529890537262
91.75386600,91753866,-0.1388636976480484
91.75442600,91754426,-0.12928688526153564
91.75444900,91754449,-0.11971008777618408
91.75503100,91755031,-0.1149216815829277
91.75555300,91755553,-0.1149216815829277
91.75608300,91756083,-0.11013327538967133
91.75660500,91756605,-0.11013327538967133
91.75712900,91757129,-0.11013327538967133
91.75765000,91757650,-0.1149216815829277
91.75824000,91758240,-0.1149216815829277
91.75876400,91758764,-0.11013327538967133
91.75928900,91759289,-0.10534487664699554
91.75981200,91759812,-0.11013327538967133
91.76033500,91760335,-0.1149216815829277
91.76104700,91761047,-0.1149216815829277
91.76107200,91761072,-0.1149216815829277
91.76154300,91761543,-0.11013327538967133
91.76206700,91762067,-0.11013327538967133
91.76258900,91762589,-0.1149216815829277
91.76311400,91763114,-0.1149216815829277
91.76364600,91763646,-0.12449848651885986
91.76417200,91764172,-0.12449848651885986
91.76469300,91764693,-0.11971008777618408
91.76522000,91765220,-0.10534487664699554
91.76576200,91765762,-0.11013327538967133
91.76629600,91766296,-0.11971008777618408
91.76681400,91766814,-0.12449848651885986
91.76734400,91767344,-0.12449848651885986
91.76806700,91768067,-0.12449848651885986
91.76808800,91768088,-0.11971008777618408
91.76857000,91768570,-0.11971008777618408
91.76909700,91769097,-0.11971008777618408
91.76961700,91769617,-0.12449848651885986
91.77014800,91770148,-0.12928688526153564
91.77073500,91770735,-0.12928688526153564
91.77120400,91771204,-0.13407529890537262
91.77172600,91771726,-0.12928688526153564
91.77224800,91772248,-0.12449848651885986
91.77277000,91772770,-0.11971008777618408
91.77330300,91773303,-0.11971008777618408
91.77382900,91773829,-0.11971008777618408
91.77440600,91774406,-0.11971008777618408
91.77503200,91775032,-0.12449848651885986
91.77556100,91775561,-0.11971008777618408
91.77609400,91776094,-0.11013327538967133
91.77664400,91776644,-0.11013327538967133
91.77666600,91776666,-0.11013327538967133
91.77713800,91777138,-0.11013327538967133
91.77766200,91777662,-0.11013327538967133
91.77824900,91778249,-0.11013327538967133
91.77877600,91778776,-0.1149216815829277
91.77929700,91779297,-0.1149216815829277
91.77982500,91779825,-0.1149216815829277
91.78034700,91780347,-0.12449848651885986
91.78105900,91781059,-0.12928688526153564
91.78158800,91781588,-0.12449848651885986
91.78211000,91782110,-0.11971008777618408
91.78263400,91782634,-0.11971008777618408
91.78319900,91783199,-0.1149216815829277
91.78371200,91783712,-0.11013327538967133
91.78373200,91783732,-0.10534487664699554
91.78420500,91784205,-0.10055647045373917
91.78472700,91784727,-0.10055647045373917
91.78525000,91785250,-0.10055647045373917
91.78578500,91785785,-0.10534487664699554
91.78630900,91786309,-0.11013327538967133
91.78683400,91786834,-0.1149216815829277
91.78743800,91787438,-0.1149216815829277
91.78803000,91788030,-0.11013327538967133
91.78856300,91788563,-0.10534487664699554
91.78908700,91789087,-0.11013327538967133
91.78961400,91789614,-0.1149216815829277
91.79013500,91790135,-0.11971008777618408
91.79070000,91790700,-0.11971008777618408
91.79118900,91791189,-0.11971008777618408
91.79171100,91791711,-0.12449848651885986
91.79223400,91792234,-0.12449848651885986
91.79276100,91792761,-0.12928688526153564
91.79329100,91793291,-0.12928688526153564
91.79384500,91793845,-0.12928688526153564
91.79386900,91793869,-0.12449848651885986
91.79434400,91794344,-0.11971008777618408
91.79502900,91795029,-0.11971008777618408
91.79555100,91795551,-0.12449848651885986
91.79608200,91796082,-0.12449848651885986
91.79660900,91796609,-0.12449848651885986
91.79712900,91797129,-0.11971008777618408
91.79765100,91797651,-0.11971008777618408
91.79824100,91798241,-0.1149216815829277
91.79876300,91798763,-0.11013327538967133
91.79928200,91799282,-0.11013327538967133
91.79980800,91799808,-0.11971008777618408
91.80032800,91800328,-0.11971008777618408
91.80098400,91800984,-0.11971008777618408
91.80100600,91801006,-0.11971008777618408
91.80154100,91801541,-0.1149216815829277
91.80206200,91802062,-0.1149216815829277
91.80259200,91802592,-0.1149216815829277
91.80311400,91803114,-0.1149216815829277
91.80365800,91803658,-0.11971008777618408
91.80418400,91804184,-0.1149216815829277
91.80470300,91804703,-0.1149216815829277
91.80523000,91805230,-0.1149216815829277
91.80576700,91805767,-0.11971008777618408
91.80629200,91806292,-0.11971008777618408
91.80681100,91806811,-0.11971008777618408
91.80733700,91807337,-0.1149216815829277
91.80802800,91808028,-0.11013327538967133
91.80804800,91808048,-0.11013327538967133
91.80854500,91808545,-0.11013327538967133
91.80906700,91809067,-0.10055647045373917
91.80959100,91809591,-0.10055647045373917
91.81011300,91810113,-0.10534487664699554
91.81070000,91810700,-0.10534487664699554
91.81116600,91811166,-0.10055647045373917
91.81169700,91811697,-0.10534487664699554
91.81221800,91812218,-0.10534487664699554
91.81274200,91812742,-0.10534487664699554
91.81327500,91813275,-0.11013327538967133
91.81380400,91813804,-0.1149216815829277
91.81432100,91814321,-0.11971008777618408
91.81484300,91814843,-0.11971008777618408
91.81553200,91815532,-0.11971008777618408
91.81609000,91816090,-0.11971008777618408
91.81611200,91816112,-0.11971008777618408
91.81658700,91816587,-0.1149216815829277
91.81711000,91817110,-0.1149216815829277
91.81763600,91817636,-0.1149216815829277
91.81819800,91818198,-0.1149216815829277
91.81868400,91818684,-0.11971008777618408
91.81920700,91819207,-0.11971008777618408
91.81973500,91819735,-0.1149216815829277
91.82025500,91820255,-0.11013327538967133
91.82079100,91820791,-0.10534487664699554
91.82135000,91821350,-0.10534487664699554
91.82183800,91821838,-0.10534487664699554
91.82240700,91822407,-0.10534487664699554
91.82302900,91823029,-0.10055647045373917
91.82355800,91823558,-0.09576806426048279
91.82410900,91824109,-0.09576806426048279
91.82460200,91824602,-0.10534487664699554
91.82512800,91825128,-0.1149216815829277
91.82570500,91825705,-0.12449848651885986
91.82620700,91826207,-0.12928688526153564
91.82622800,91826228,-0.12928688526153564
91.82670600,91826706,-0.12928688526153564
91.82722700,91827227,-0.12449848651885986
91.82775400,91827754,-0.11971008777618408
91.82828200,91828282,-0.1149216815829277
91.82880900,91828809,-0.11013327538967133
91.82933200,91829332,-0.11013327538967133
91.83003900,91830039,-0.1149216815829277
91.83055700,91830557,-0.1149216815829277
91.83109200,91831092,-0.1149216815829277
91.83160900,91831609,-0.1149216815829277
91.83213100,91832131,-0.10534487664699554
91.83265500,91832655,-0.10055647045373917
91.83324400,91833244,-0.10055647045373917
91.83379200,91833792,-0.10534487664699554
91.83381700,91833817,-0.1149216815829277
91.83428700,91834287,-0.12449848651885986
91.83482300,91834823,-0.12928688526153564
91.83534200,91835342,-0.11971008777618408
91.83604900,91836049,-0.1149216815829277
91.83657000,91836570,-0.11013327538967133
91.83709400,91837094,-0.11971008777618408
91.83761800,91837618,-0.12928688526153564
91.83820000,91838200,-0.13407529890537262
91.83867200,91838672,-0.12928688526153564
91.83919600,91839196,-0.12449848651885986
91.83971800,91839718,-0.12449848651885986
91.84024400,91840244,-0.11971008777618408
91.84077300,91840773,-0.11971008777618408
91.84129800,91841298,-0.11971008777618408
91.84182300,91841823,-0.1149216815829277
91.84236900,91842369,-0.1149216815829277
91.84238900,91842389,-0.11971008777618408
91.84303500,91843035,-0.12449848651885986
91.84357000,91843570,-0.12449848651885986
91.84409000,91844090,-0.11971008777618408
91.84461100,91844611,-0.1149216815829277
91.84513300,91845133,-0.11013327538967133
91.84570100,91845701,-0.1149216815829277
91.84618800,91846188,-0.11971008777618408
91.84671200,91846712,-0.11971008777618408
91.84723100,91847231,-0.11013327538967133
91.84775900,91847759,-0.10534487664699554
91.84829300,91848293,-0.10055647045373917
91.84881400,91848814,-0.10534487664699554
91.84933700,91849337,-0.11013327538967133
91.85005600,91850056,-0.11971008777618408
91.85007700,91850077,-0.12449848651885986
91.85055200,91850552,-0.12928688526153564
91.85108200,91851082,-0.12928688526153564
91.85160800,91851608,-0.11971008777618408
91.85212800,91852128,-0.1149216815829277
91.85265500,91852655,-0.1149216815829277
91.85324000,91853240,-0.1149216815829277
91.85377500,91853775,-0.11971008777618408
91.85429700,91854297,-0.11971008777618408
91.85482000,91854820,-0.1149216815829277
91.85534300,91855343,-0.1149216815829277
91.85605400,91856054,-0.1149216815829277
91.85607700,91856077,-0.1149216815829277
91.85654800,91856548,-0.1149216815829277
91.85707200,91857072,-0.1149216815829277
91.85759400,91857594,-0.1149216815829277
91.85818500,91858185,-0.1149216815829277
91.85866100,91858661,-0.1149216815829277
91.85918000,91859180,-0.1149216815829277
91.85970300,91859703,-0.11971008777618408
91.86022500,91860225,-0.11971008777618408
91.86077400,91860774,-0.1149216815829277
91.86129300,91861293,-0.1149216815829277
91.86181700,91861817,-0.11013327538967133
91.86234700,91862347,-0.10534487664699554
91.86302600,91863026,-0.11013327538967133
91.86355800,91863558,-0.1149216815829277
91.86408600,91864086,-0.11971008777618408
91.86463000,91864630,-0.12449848651885986
91.86465100,91864651,-0.11971008777618408
91.86512700,91865127,-0.1149216815829277
91.86569700,91865697,-0.1149216815829277
91.86618500,91866185,-0.11971008777618408
91.86670300,91866703,-0.12449848651885986
91.86722600,91867226,-0.12928688526153564
91.86774900,91867749,-0.12928688526153564
91.86828000,91868280,-0.12449848651885986
91.86880600,91868806,-0.1149216815829277
91.86932800,91869328,-0.1149216815829277
91.86994800,91869948,-0.1149216815829277
91.87053900,91870539,-0.11971008777618408
91.87106700,91871067,-0.12449848651885986
91.87158800,91871588,-0.12928688526153564
91.87211000,91872110,-0.12928688526153564
91.87263600,91872636,-0.12449848651885986
91.87320100,91873201,-0.11971008777618408
91.87368600,91873686,-0.11971008777618408
91.87423500,91874235,-0.11971008777618408
91.87425600,91874256,-0.1149216815829277
91.87473200,91874732,-0.1149216815829277
91.87525400,91875254,-0.1149216815829277
91.87579100,91875791,-0.11013327538967133
91.87634600,91876346,-0.10534487664699554
91.87704100,91877041,-0.11013327538967133
91.87756400,91877564,-0.11013327538967133
91.87808800,91878088,-0.1149216815829277
91.87861800,91878618,-0.11971008777618408
91.87914300,91879143,-0.1149216815829277
91.87966300,91879663,-0.11013327538967133
91.88018600,91880186,-0.11013327538967133
91.88076200,91880762,-0.11013327538967133
91.88131300,91881313,-0.11013327538967133
91.88133400,91881334,-0.10534487664699554
91.88180800,91881808,-0.10055647045373917
91.88233300,91882333,-0.10055647045373917
91.88303300,91883033,-0.10055647045373917
91.88356300,91883563,-0.10534487664699554
91.88408300,91884083,-0.11013327538967133
91.88460500,91884605,-0.11013327538967133
91.88512900,91885129,-0.11013327538967133
91.88570100,91885701,-0.10534487664699554
91.88618000,91886180,-0.11013327538967133
91.88670300,91886703,-0.1149216815829277
91.88722600,91887226,-0.1149216815829277
91.88774800,91887748,-0.1149216815829277
91.88828300,91888283,-0.11013327538967133
91.88880800,91888808,-0.11013327538967133
91.88933900,91889339,-0.11013327538967133
91.89004200,91890042,-0.11013327538967133
91.89006300,91890063,-0.11013327538967133
91.89054900,91890549,-0.1149216815829277
91.89107900,91891079,-0.1149216815829277
91.89160000,91891600,-0.1149216815829277
91.89212000,91892120,-0.1149216815829277
91.89264400,91892644,-0.11971008777618408
91.89323800,91893238,-0.11971008777618408
91.89370200,91893702,-0.11971008777618408
91.89422100,91894221,-0.11971008777618408
91.89474700,91894747,-0.12449848651885986
91.89526800,91895268,-0.11971008777618408
91.89580200,91895802,-0.11971008777618408
91.89632600,91896326,-0.1149216815829277
91.89684700,91896847,-0.1149216815829277
91.89756700,91897567,-0.1149216815829277
91.89758700,91897587,-0.11013327538967133
91.89805900,91898059,-0.10534487664699554
91.89859100,91898591,-0.10534487664699554
91.89911600,91899116,-0.1149216815829277
91.89963800,91899638,-0.11971008777618408
91.90016000,91900160,-0.11971008777618408
91.90074700,91900747,-0.12449848651885986
91.90127400,91901274,-0.12449848651885986
91.90179900,91901799,-0.11971008777618408
91.90232100,91902321,-0.11971008777618408
91.90284700,91902847,-0.11971008777618408
91.90350900,91903509,-0.12449848651885986
91.90409500,91904095,-0.12928688526153564
91.90411500,91904115,-0.12449848651885986
91.90459100,91904591,-0.11971008777618408
91.90511100,91905111,-0.11971008777618408
91.90569500,91905695,-0.11971008777618408
91.90616700,91906167,-0.1149216815829277
91.90668600,91906686,-0.11013327538967133
91.90721000,91907210,-0.11013327538967133
91.90773200,91907732,-0.1149216815829277
91.90827000,91908270,-0.12449848651885986
91.90879300,91908793,-0.12928688526153564
91.90931200,91909312,-0.13407529890537262
91.90984300,91909843,-0.12928688526153564
91.91052700,91910527,-0.12449848651885986
91.91106000,91911060,-0.12449848651885986
91.91159100,91911591,-0.12449848651885986
91.91211300,91912113,-0.12928688526153564
91.91266100,91912661,-0.12928688526153564
91.91268200,91912682,-0.11971008777618408
91.91319800,91913198,-0.11971008777618408
91.91368800,91913688,-0.1149216815829277
91.91421600,91914216,-0.11013327538967133
91.91473700,91914737,-0.11013327538967133
