timestamp,TimeUS,GYROx
89.21006600,89210066,0.0007114782929420471
89.21057500,89210575,0.0007114782929420471
89.21110600,89211106,0.0007114782929420471
89.21162700,89211627,0.0007114782929420471
89.21215000,89212150,0.0017756978049874306
89.21267500,89212675,0.0017756978049874306
89.21326700,89213267,0.0017756978049874306
89.21378800,89213788,0.0017756978049874306
89.21433300,89214333,0.0007114782929420471
89.21435300,89214353,-0.00035274121910333633
89.21484400,89214844,0.0017756978049874306
89.21549200,89215492,0.0017756978049874306
89.21605400,89216054,-0.00035274121910333633
89.21658100,89216581,0.0017756978049874306
89.21710200,89217102,0.0017756978049874306
89.21762700,89217627,0.0007114782929420471
89.21820500,89218205,0.0017756978049874306
89.21868000,89218680,0.0017756978049874306
89.21920100,89219201,0.0017756978049874306
89.21972300,89219723,0.0017756978049874306
89.22025100,89220251,0.0007114782929420471
89.22078200,89220782,0.0007114782929420471
89.22130700,89221307,0.0017756978049874306
89.22182700,89221827,0.0017756978049874306
89.22234800,89222348,0.0007114782929420471
89.22303300,89223033,0.0007114782929420471
89.22305200,89223052,0.0007114782929420471
89.22356800,89223568,0.0007114782929420471
89.22408400,89224084,0.0007114782929420471
89.22461000,89224610,0.0017756978049874306
89.22513200,89225132,0.0007114782929420471
89.22570600,89225706,0.0007114782929420471
89.22651200,89226512,0.0017756978049874306
90.48007600,90480076,0.0017756978049874306
90.48009500,90480095,0.0017756978049874306
90.48057300,90480573,0.0017756978049874306
90.48110000,90481100,0.0017756978049874306
90.48162200,90481622,0.0017756978049874306
90.48214400,90482144,0.0017756978049874306
90.48266800,90482668,0.0017756978049874306
90.48326100,90483261,0.0017756978049874306
90.48378100,90483781,0.0017756978049874306
90.48430200,90484302,0.0017756978049874306
90.48483200,90484832,0.0017756978049874306
90.48535300,90485353,0.0017756978049874306
90.48606300,90486063,0.0017756978049874306
90.48658700,90486587,0.0017756978049874306
90.48711100,90487111,0.0017756978049874306
90.48766300,90487663,0.0017756978049874306
90.48768500,90487685,0.0017756978049874306
90.48820500,90488205,0.0017756978049874306
90.48868900,90488689,0.0017756978049874306
90.48921400,90489214,0.0017756978049874306
90.48973500,90489735,0.0017756978049874306
90.49025900,90490259,0.0017756978049874306
90.49079100,90490791,0.0017756978049874306
90.49132300,90491323,0.0017756978049874306
90.49183700,90491837,0.0017756978049874306
90.49254400,90492544,0.0017756978049874306
90.49306500,90493065,0.0017756978049874306
90.49359500,90493595,0.0017756978049874306
90.49411500,90494115,0.0017756978049874306
90.49463700,90494637,0.0017756978049874306
90.49516000,90495160,0.0017756978049874306
90.49575100,90495751,0.0017756978049874306
90.49629700,90496297,0.0017756978049874306
90.49632000,90496320,0.0017756978049874306
90.49679000,90496790,0.0017756978049874306
90.49732600,90497326,0.0017756978049874306
90.49785000,90497850,0.0017756978049874306
90.49856600,90498566,0.0017756978049874306
90.49909100,90499091,0.0017756978049874306
90.49961000,90499610,0.0017756978049874306
90.50014100,90500141,0.0017756978049874306
90.50070800,90500708,0.0017756978049874306
90.50120200,90501202,0.0017756978049874306
90.50173000,90501730,0.0017756978049874306
90.50225400,90502254,0.0017756978049874306
90.50277700,90502777,0.0017756978049874306
90.50332500,90503325,0.0017756978049874306
90.50386100,90503861,0.0017756978049874306
90.50388400,90503884,0.0017756978049874306
90.50435400,90504354,0.0017756978049874306
90.50504300,90505043,0.0017756978049874306
90.50557400,90505574,0.0017756978049874306
90.50609500,90506095,0.0017756978049874306
90.50661800,90506618,0.0017756978049874306
90.50714000,90507140,0.0017756978049874306
90.50766500,90507665,-0.0024811802431941032
90.50825700,90508257,0.0007114782929420471
90.50878300,90508783,0.0007114782929420471
90.50930200,90509302,-0.0035453997552394867
90.50983600,90509836,-0.00035274121910333633
90.51036500,90510365,-0.00035274121910333633
90.51108600,90511086,0.0007114782929420471
90.51110600,90511106,0.0007114782929420471
90.51161500,90511615,0.0017756978049874306
90.51210500,90512105,0.0007114782929420471
90.51263500,90512635,0.0007114782929420471
90.51320800,90513208,0.0007114782929420471
90.51369000,90513690,0.0017756978049874306
90.51421100,90514211,0.002839917317032814
90.51473700,90514737,0.0007114782929420471
90.51526100,90515261,0.0007114782929420471
90.51579000,90515790,0.0007114782929420471
90.51635000,90516350,0.0007114782929420471
90.51684500,90516845,0.0017756978049874306
90.51756200,90517562,0.0007114782929420471
90.51758200,90517582,-0.00035274121910333633
90.51806100,90518061,0.002839917317032814
90.51859300,90518593,0.002839917317032814
90.51912000,90519120,-0.00035274121910333633
90.51963700,90519637,-0.0014169607311487198
90.52017300,90520173,-0.0014169607311487198
90.52076100,90520761,-0.0014169607311487198
90.52128600,90521286,0.0017756978049874306
90.52181400,90521814,0.002839917317032814
90.52234800,90522348,0.0007114782929420471
90.52305700,90523057,0.0017756978049874306
90.52307900,90523079,0.0017756978049874306
90.52356300,90523563,0.0007114782929420471
90.52408900,90524089,0.0007114782929420471
90.52460700,90524607,0.0017756978049874306
90.52513700,90525137,0.0007114782929420471
90.52570500,90525705,-0.00035274121910333633
90.52618700,90526187,0.0007114782929420471
90.52671200,90526712,0.0007114782929420471
90.52723100,90527231,0.0007114782929420471
90.52775800,90527758,-0.0014169607311487198
90.52828800,90528288,0.0007114782929420471
90.52881400,90528814,0.002839917317032814
90.52933400,90529334,-0.00035274121910333633
90.52991800,90529918,-0.00035274121910333633
90.53053500,90530535,0.0017756978049874306
90.53110200,90531102,0.0007114782929420471
90.53162000,90531620,-0.00035274121910333633
90.53216900,90532169,0.0017756978049874306
90.53218800,90532188,0.0017756978049874306
90.53266600,90532666,0.0017756978049874306
90.53325700,90533257,0.0017756978049874306
90.53378000,90533780,0.0007114782929420471
90.53429900,90534299,0.0007114782929420471
90.53483400,90534834,0.0007114782929420471
90.53540300,90535403,0.002839917317032814
90.53608400,90536084,0.002839917317032814
90.53660700,90536607,0.002839917317032814
90.53712600,90537126,0.0017756978049874306
90.53765200,90537652,0.0007114782929420471
90.53824000,90538240,0.0007114782929420471
90.53870600,90538706,0.0007114782929420471
90.53925700,90539257,0.0007114782929420471
90.53927700,90539277,-0.00035274121910333633
90.53975100,90539751,0.0007114782929420471
90.54027800,90540278,0.0017756978049874306
90.54080600,90540806,0.0007114782929420471
90.54133000,90541330,0.0007114782929420471
90.54185000,90541850,0.0017756978049874306
90.54250800,90542508,-0.00035274121910333633
90.54303000,90543030,-0.00035274121910333633
90.54359500,90543595,0.0017756978049874306
90.54411600,90544116,0.0017756978049874306
90.54463600,90544636,0.0017756978049874306
90.54516200,90545162,0.0007114782929420471
90.54575100,90545751,0.0007114782929420471
90.54627100,90546271,0.0007114782929420471
90.54679400,90546794,0.0017756978049874306
90.54734700,90547347,0.0007114782929420471
90.54736900,90547369,-0.00035274121910333633
90.54784000,90547840,-0.00035274121910333633
90.54846700,90548467,0.0007114782929420471
90.54904800,90549048,0.0017756978049874306
90.54956800,90549568,0.0017756978049874306
90.55009300,90550093,0.0017756978049874306
90.55061300,90550613,-0.00035274121910333633
90.55115000,90551150,-0.00035274121910333633
90.55166900,90551669,0.0017756978049874306
90.55219500,90552195,0.0017756978049874306
90.55271900,90552719,0.0017756978049874306
90.55326800,90553268,0.002839917317032814
90.55379400,90553794,0.0017756978049874306
90.55431800,90554318,-0.00035274121910333633
90.55485100,90554851,0.0017756978049874306
90.55553300,90555533,0.0039041368290781975
90.55555200,90555552,0.002839917317032814
90.55606700,90556067,0.0017756978049874306
90.55658800,90556588,0.002839917317032814
90.55711500,90557115,0.0017756978049874306
90.55763700,90557637,0.0017756978049874306
90.55820900,90558209,0.0017756978049874306
90.55869400,90558694,0.002839917317032814
90.55921600,90559216,0.0017756978049874306
90.55973700,90559737,0.0017756978049874306
90.56026200,90560262,0.002839917317032814
90.56079800,90560798,0.0017756978049874306
90.56135200,90561352,0.0007114782929420471
90.56184000,90561840,0.0017756978049874306
90.56250800,90562508,0.002839917317032814
90.56253000,90562530,0.0017756978049874306
90.56303600,90563036,-0.00035274121910333633
90.56357400,90563574,-0.0014169607311487198
90.56412800,90564128,0.0017756978049874306
90.56462400,90564624,0.002839917317032814
90.56515200,90565152,-0.00035274121910333633
90.56573900,90565739,0.0007114782929420471
90.56620300,90566203,0.0017756978049874306
90.56672700,90566727,-0.00035274121910333633
90.56725300,90567253,0.0007114782929420471
90.56777500,90567775,0.002839917317032814
90.56831200,90568312,0.0017756978049874306
90.56883500,90568835,0.0017756978049874306
90.56939200,90569392,0.0017756978049874306
90.57001300,90570013,0.0017756978049874306
90.57053600,90570536,0.0017756978049874306
90.57106700,90571067,0.0007114782929420471
90.57161600,90571616,-0.00035274121910333633
90.57163600,90571636,0.0007114782929420471
90.57211300,90572113,0.0007114782929420471
90.57263800,90572638,0.0007114782929420471
90.57321400,90573214,0.0007114782929420471
90.57369100,90573691,0.0007114782929420471
90.57421700,90574217,0.002839917317032814
90.57473600,90574736,0.0017756978049874306
90.57526700,90575267,-0.00035274121910333633
90.57579600,90575796,0.0017756978049874306
90.57632800,90576328,0.002839917317032814
90.57685100,90576851,0.0007114782929420471
90.57748500,90577485,0.0017756978049874306
90.57803800,90578038,0.002839917317032814
90.57857600,90578576,0.0017756978049874306
90.57909000,90579090,0.0007114782929420471
90.57961300,90579613,0.0007114782929420471
90.58013700,90580137,0.0017756978049874306
90.58070700,90580707,0.0007114782929420471
90.58122200,90581222,0.0017756978049874306
90.58124200,90581242,0.002839917317032814
90.58171400,90581714,0.0017756978049874306
90.58223600,90582236,0.0007114782929420471
90.58276100,90582761,-0.00035274121910333633
90.58329800,90583298,0.0007114782929420471
90.58385100,90583851,0.0017756978049874306
90.58434000,90584340,0.0017756978049874306
90.58501800,90585018,0.002839917317032814
90.58554000,90585540,0.0017756978049874306
90.58607500,90586075,-0.00035274121910333633
90.58660100,90586601,-0.00035274121910333633
90.58711900,90587119,0.0007114782929420471
90.58764400,90587644,-0.0014169607311487198
90.58820500,90588205,0.0007114782929420471
90.58870400,90588704,0.002839917317032814
90.58922600,90589226,0.0017756978049874306
90.58974700,90589747,0.0007114782929420471
90.59026800,90590268,0.0017756978049874306
90.59082800,90590828,0.0017756978049874306
90.59084800,90590848,0.002839917317032814
90.59132900,90591329,0.0017756978049874306
90.59184600,90591846,0.0017756978049874306
90.59248600,90592486,0.0017756978049874306
90.59305200,90593052,0.0017756978049874306
90.59358300,90593583,-0.00035274121910333633
90.59410300,90594103,-0.00035274121910333633
90.59462800,90594628,-0.00035274121910333633
90.59514900,90595149,0.0007114782929420471
90.59570500,90595705,0.0017756978049874306
90.59620200,90596202,0.0017756978049874306
90.59672600,90596726,0.002839917317032814
90.59725200,90597252,0.0007114782929420471
90.59777100,90597771,0.0017756978049874306
90.59830800,90598308,0.002839917317032814
90.59883600,90598836,0.0007114782929420471
90.59935900,90599359,0.0007114782929420471
90.60003400,90600034,0.0039041368290781975
90.60005400,90600054,0.0007114782929420471
90.60053600,90600536,-0.00035274121910333633
90.60106700,90601067,0.0007114782929420471
90.60159300,90601593,0.0007114782929420471
90.60211500,90602115,0.0017756978049874306
90.60264100,90602641,0.0017756978049874306
90.60321100,90603211,0.0007114782929420471
90.60369300,90603693,0.0007114782929420471
90.60421600,90604216,0.0017756978049874306
90.60473500,90604735,0.0017756978049874306
90.60526200,90605262,0.0007114782929420471
90.60579600,90605796,-0.00035274121910333633
90.60635200,90606352,-0.00035274121910333633
90.60684100,90606841,-0.00035274121910333633
90.60751300,90607513,-0.0014169607311487198
90.60753300,90607533,-0.00035274121910333633
90.60803500,90608035,0.0007114782929420471
90.60856600,90608566,0.0007114782929420471
90.60909200,90609092,0.0007114782929420471
90.60961200,90609612,-0.00035274121910333633
90.61013700,90610137,-0.00035274121910333633
90.61070900,90610709,-0.00035274121910333633
90.61119500,90611195,-0.00035274121910333633
90.61171300,90611713,0.0007114782929420471
90.61223900,90612239,0.0007114782929420471
90.61276100,90612761,-0.00035274121910333633
90.61329800,90613298,-0.00035274121910333633
90.61382200,90613822,-0.00035274121910333633
90.61434300,90614343,-0.00035274121910333633
90.61500900,90615009,-0.00035274121910333633
90.61553900,90615539,0.0007114782929420471
90.61607100,90616071,0.0017756978049874306
90.61663500,90616635,0.0017756978049874306
90.61665500,90616655,0.0017756978049874306
90.61711300,90617113,0.002839917317032814
90.61764100,90617641,0.002839917317032814
90.61820500,90618205,0.0017756978049874306
90.61869300,90618693,0.0007114782929420471
90.61921300,90619213,0.0017756978049874306
90.61973500,90619735,0.002839917317032814
90.62026200,90620262,0.0007114782929420471
90.62079700,90620797,-0.00035274121910333633
90.62132500,90621325,0.002839917317032814
90.62184700,90621847,0.0007114782929420471
90.62248700,90622487,-0.00035274121910333633
90.62303400,90623034,0.0017756978049874306
90.62356700,90623567,0.0017756978049874306
90.62408800,90624088,0.0017756978049874306
90.62461200,90624612,0.0017756978049874306
90.62513300,90625133,0.0017756978049874306
90.62570400,90625704,0.0017756978049874306
90.62618700,90626187,0.0017756978049874306
90.62673700,90626737,0.002839917317032814
90.62675900,90626759,0.002839917317032814
90.62723300,90627233,0.0017756978049874306
90.62775800,90627758,0.002839917317032814
90.62829000,90628290,0.002839917317032814
90.62885000,90628850,0.0007114782929420471
90.62933800,90629338,0.0017756978049874306
90.62992300,90629923,0.0007114782929420471
90.63053300,90630533,0.0007114782929420471
90.63106900,90631069,0.0007114782929420471
90.63158700,90631587,-0.00035274121910333633
90.63211200,90632112,0.0017756978049874306
90.63263600,90632636,0.002839917317032814
90.63320500,90633205,-0.00035274121910333633
90.63369000,90633690,0.0007114782929420471
90.63421500,90634215,0.002839917317032814
90.63473500,90634735,-0.00035274121910333633
90.63526000,90635260,-0.0014169607311487198
90.63579000,90635790,0.0017756978049874306
90.63634300,90636343,0.0017756978049874306
90.63636300,90636363,0.0017756978049874306
90.63683900,90636839,0.0017756978049874306
90.63744100,90637441,0.0017756978049874306
90.63803200,90638032,0.0007114782929420471
90.63856400,90638564,-0.00035274121910333633
90.63908900,90639089,0.0007114782929420471
90.63960900,90639609,0.0007114782929420471
90.64013400,90640134,0.0007114782929420471
90.64070700,90640707,0.0017756978049874306
90.64118400,90641184,0.0007114782929420471
90.64170600,90641706,-0.00035274121910333633
90.64222900,90642229,-0.00035274121910333633
90.64275300,90642753,-0.00035274121910333633
90.64328600,90643286,0.0007114782929420471
90.64380900,90643809,0.002839917317032814
90.64432700,90644327,0.0007114782929420471
90.64496500,90644965,-0.00035274121910333633
90.64498500,90644985,0.002839917317032814
90.64554300,90645543,0.0017756978049874306
90.64607900,90646079,-0.00035274121910333633
90.64660500,90646605,0.0017756978049874306
90.64712500,90647125,0.0007114782929420471
90.64764900,90647649,0.0007114782929420471
90.64820500,90648205,0.0017756978049874306
90.64870500,90648705,0.0017756978049874306
90.64922800,90649228,0.0007114782929420471
90.64974700,90649747,0.0007114782929420471
90.65027300,90650273,0.0007114782929420471
90.65080700,90650807,0.0017756978049874306
90.65134500,90651345,0.0007114782929420471
90.65185100,90651851,0.0007114782929420471
90.65256400,90652564,0.0007114782929420471
90.65258500,90652585,0.0017756978049874306
90.65305400,90653054,0.0007114782929420471
90.65358300,90653583,0.0017756978049874306
90.65410500,90654105,0.0017756978049874306
90.65462700,90654627,0.0007114782929420471
90.65514900,90655149,0.0007114782929420471
90.65570500,90655705,0.0007114782929420471
90.65620200,90656202,-0.00035274121910333633
90.65672200,90656722,0.0007114782929420471
90.65724600,90657246,0.0017756978049874306
90.65776900,90657769,0.0007114782929420471
90.65830300,90658303,0.0017756978049874306
90.65882800,90658828,0.002839917317032814
90.65934900,90659349,0.002839917317032814
90.66001300,90660013,0.002839917317032814
90.66054900,90660549,0.0017756978049874306
90.66111200,90661112,0.0007114782929420471
90.66113200,90661132,0.0007114782929420471
90.66160400,90661604,0.0017756978049874306
90.66213000,90662130,0.0007114782929420471
90.66265200,90662652,0.0007114782929420471
90.66324600,90663246,0.0007114782929420471
90.66370900,90663709,0.0007114782929420471
90.66423400,90664234,0.0017756978049874306
90.66475400,90664754,0.0017756978049874306
90.66527600,90665276,0.0007114782929420471
90.66580500,90665805,0.0007114782929420471
90.66633400,90666334,0.0017756978049874306
90.66685300,90666853,0.0007114782929420471
90.66754700,90667547,-0.0014169607311487198
90.66806800,90668068,0.0007114782929420471
90.66859900,90668599,0.0017756978049874306
90.66912700,90669127,0.0007114782929420471
90.66964200,90669642,0.002839917317032814
90.67016900,90670169,0.002839917317032814
90.67078300,90670783,0.002839917317032814
90.67080700,90670807,0.0017756978049874306
90.67128200,90671282,0.0007114782929420471
90.67180700,90671807,-0.00035274121910333633
90.67233100,90672331,-0.00035274121910333633
90.67285300,90672853,0.0007114782929420471
90.67352900,90673529,0.002839917317032814
90.67407800,90674078,0.0017756978049874306
90.67460300,90674603,0.0007114782929420471
90.67512500,90675125,0.0007114782929420471
90.67570700,90675707,0.0007114782929420471
90.67618000,90676180,0.0007114782929420471
90.67670400,90676704,-0.00035274121910333633
90.67723400,90677234,0.0007114782929420471
90.67775300,90677753,0.002839917317032814
90.67831300,90678313,0.0007114782929420471
90.67833300,90678333,0.0007114782929420471
90.67881300,90678813,0.002839917317032814
90.67933400,90679334,0.0017756978049874306
90.67994500,90679945,0.0007114782929420471
90.68053700,90680537,0.002839917317032814
90.68106600,90681066,0.0007114782929420471
90.68159100,90681591,0.0007114782929420471
90.68211300,90682113,0.002839917317032814
90.68263700,90682637,0.0017756978049874306
90.68320400,90683204,0.002839917317032814
90.68369200,90683692,0.0017756978049874306
90.68420900,90684209,0.002839917317032814
90.68472900,90684729,0.002839917317032814
90.68525700,90685257,0.0017756978049874306
90.68579000,90685790,0.0017756978049874306
90.68631600,90686316,0.0017756978049874306
90.68683700,90686837,0.0017756978049874306
90.68744100,90687441,0.0017756978049874306
90.68746100,90687461,-0.00035274121910333633
90.68803100,90688031,-0.00035274121910333633
90.68856300,90688563,0.0007114782929420471
90.68909100,90689091,0.0007114782929420471
90.68961200,90689612,-0.00035274121910333633
90.69013300,90690133,0.0017756978049874306
90.69070500,90690705,0.002839917317032814
90.69118700,90691187,0.0007114782929420471
90.69170600,90691706,0.0017756978049874306
90.69222800,90692228,0.0017756978049874306
90.69275300,90692753,0.0017756978049874306
90.69328800,90693288,0.0007114782929420471
90.69381600,90693816,0.0007114782929420471
90.69433700,90694337,0.0007114782929420471
90.69505800,90695058,0.0007114782929420471
90.69507700,90695077,0.0007114782929420471
90.69556700,90695567,0.0017756978049874306
90.69609800,90696098,0.0007114782929420471
90.69662100,90696621,0.0007114782929420471
90.69714500,90697145,0.0017756978049874306
90.69766700,90697667,0.0017756978049874306
90.69825900,90698259,0.0017756978049874306
90.69878100,90698781,0.0007114782929420471
90.69930300,90699303,0.0007114782929420471
90.69983300,90699833,0.0017756978049874306
90.70039500,90700395,0.002839917317032814
90.70108000,90701080,0.0007114782929420471
90.70110100,90701101,0.0017756978049874306
90.70157800,90701578,0.002839917317032814
90.70209800,90702098,0.0007114782929420471
90.70262500,90702625,0.002839917317032814
90.70320400,90703204,0.0017756978049874306
90.70367600,90703676,0.0007114782929420471
90.70419900,90704199,0.0007114782929420471
90.70472100,90704721,0.0007114782929420471
90.70524700,90705247,0.0007114782929420471
90.70577700,90705777,0.0007114782929420471
90.70630800,90706308,0.0007114782929420471
90.70682700,90706827,-0.00035274121910333633
90.70735100,90707351,0.0007114782929420471
90.70800800,90708008,0.0007114782929420471
90.70858600,90708586,0.0007114782929420471
90.70909500,90709095,0.0007114782929420471
90.70961900,90709619,0.0007114782929420471
90.71016700,90710167,0.0007114782929420471
90.71018900,90710189,0.0007114782929420471
90.71070700,90710707,-0.00035274121910333633
90.71119600,90711196,-0.0014169607311487198
90.71171500,90711715,-0.0014169607311487198
90.71224300,90712243,0.0007114782929420471
90.71276200,90712762,0.0007114782929420471
90.71329500,90713295,0.0007114782929420471
90.71382000,90713820,0.002839917317032814
90.71433900,90714339,0.0017756978049874306
90.71504300,90715043,-0.00035274121910333633
90.71556500,90715565,-0.00035274121910333633
90.71610200,90716102,0.0007114782929420471
90.71662300,90716623,0.0017756978049874306
90.71714300,90717143,0.0007114782929420471
90.71767100,90717671,0.0007114782929420471
90.71828700,90718287,0.0007114782929420471
90.71830700,90718307,0.0007114782929420471
90.71878700,90718787,0.0007114782929420471
90.71931200,90719312,0.0007114782929420471
90.71983300,90719833,0.0007114782929420471
90.72036900,90720369,0.0007114782929420471
90.72105400,90721054,0.0017756978049874306
90.72160500,90721605,0.0017756978049874306
90.72209800,90722098,0.002839917317032814
90.72262700,90722627,0.002839917317032814
90.72320500,90723205,0.002839917317032814
90.72368000,90723680,0.0007114782929420471
90.72419500,90724195,-0.00035274121910333633
90.72471900,90724719,0.0017756978049874306
90.72524000,90725240,0.0017756978049874306
90.72578600,90725786,0.0017756978049874306
90.72631000,90726310,0.002839917317032814
90.72686100,90726861,0.0007114782929420471
90.72688400,90726884,-0.00035274121910333633
90.72743100,90727431,-0.00035274121910333633
90.72803800,90728038,0.0007114782929420471
90.72857900,90728579,0.0017756978049874306
90.72910000,90729100,0.002839917317032814
90.72962000,90729620,0.0017756978049874306
90.73014500,90730145,0.0007114782929420471
90.73071100,90730711,0.0007114782929420471
90.73119900,90731199,0.0007114782929420471
90.73172100,90731721,0.0007114782929420471
90.73224400,90732244,0.0007114782929420471
90.73277000,90732770,0.0007114782929420471
90.73330400,90733304,0.0017756978049874306
90.73383100,90733831,0.0007114782929420471
90.73435100,90734351,-0.00035274121910333633
90.73506500,90735065,0.002839917317032814
90.73508500,90735085,0.002839917317032814
90.73556200,90735562,-0.00035274121910333633
90.73609600,90736096,0.002839917317032814
90.73661300,90736613,0.002839917317032814
90.73713400,90737134,-0.00035274121910333633
90.73765600,90737656,0.0017756978049874306
90.73824800,90738248,0.002839917317032814
90.73877100,90738771,0.002839917317032814
90.73929300,90739293,0.0017756978049874306
90.73981500,90739815,0.0017756978049874306
90.74034000,90740340,0.0017756978049874306
90.74108700,90741087,0.0017756978049874306
90.74110700,90741107,0.0017756978049874306
90.74158400,90741584,0.0007114782929420471
90.74210400,90742104,0.0007114782929420471
90.74263800,90742638,0.0007114782929420471
90.74320600,90743206,0.0007114782929420471
90.74369100,90743691,0.0007114782929420471
90.74420900,90744209,0.0007114782929420471
90.74473300,90744733,0.0017756978049874306
90.74525900,90745259,0.0017756978049874306
90.74579500,90745795,0.002839917317032814
90.74631700,90746317,0.0007114782929420471
90.74683700,90746837,0.0017756978049874306
90.74743600,90747436,0.0017756978049874306
90.74803400,90748034,0.002839917317032814
90.74856300,90748563,0.0017756978049874306
90.74911600,90749116,0.0017756978049874306
90.74913600,90749136,0.0017756978049874306
90.74961100,90749611,0.0017756978049874306
90.75013500,90750135,0.002839917317032814
90.75070900,90750709,0.0017756978049874306
90.75119300,90751193,0.0007114782929420471
90.75171800,90751718,0.0007114782929420471
90.75223500,90752235,0.0017756978049874306
90.75276800,90752768,0.002839917317032814
90.75329900,90753299,0.0017756978049874306
90.75382900,90753829,0.0017756978049874306
90.75435200,90754352,0.0017756978049874306
90.75500900,90755009,0.0007114782929420471
90.75554500,90755545,0.0007114782929420471
90.75608000,90756080,0.0007114782929420471
90.75659500,90756595,0.0007114782929420471
90.75711900,90757119,-0.00035274121910333633
90.75764000,90757640,0.0017756978049874306
90.75820800,90758208,0.0017756978049874306
90.75872000,90758720,-0.00035274121910333633
90.75874300,90758743,0.0017756978049874306
90.75921300,90759213,0.0017756978049874306
90.75974000,90759740,-0.00035274121910333633
90.76025900,90760259,0.0007114782929420471
90.76079700,90760797,0.002839917317032814
90.76131800,90761318,0.002839917317032814
90.76184000,90761840,0.0017756978049874306
90.76253500,90762535,0.0017756978049874306
90.76306100,90763061,0.0007114782929420471
90.76359100,90763591,0.0007114782929420471
90.76411800,90764118,-0.00035274121910333633
90.76463900,90764639,0.0007114782929420471
90.76516600,90765166,0.0017756978049874306
90.76575400,90765754,0.0017756978049874306
90.76630400,90766304,0.0007114782929420471
90.76632400,90766324,0.0007114782929420471
90.76680300,90766803,0.0017756978049874306
90.76732200,90767322,0.002839917317032814
90.76784700,90767847,0.0017756978049874306
90.76849400,90768494,0.002839917317032814
90.76905800,90769058,0.002839917317032814
90.76957800,90769578,0.0007114782929420471
90.77010900,90770109,0.0017756978049874306
90.77069200,90770692,0.0017756978049874306
90.77116300,90771163,0.0007114782929420471
90.77168200,90771682,0.002839917317032814
90.77220400,90772204,0.002839917317032814
90.77272700,90772727,0.0017756978049874306
90.77327500,90773275,0.0007114782929420471
90.77383500,90773835,0.0017756978049874306
90.77439500,90774395,0.002839917317032814
90.77441400,90774414,0.0017756978049874306
90.77505900,90775059,0.0017756978049874306
90.77558200,90775582,0.0007114782929420471
90.77611500,90776115,-0.00035274121910333633
90.77664100,90776641,0.0007114782929420471
90.77716500,90777165,0.0007114782929420471
90.77769900,90777699,0.0007114782929420471
90.77826600,90778266,0.0007114782929420471
90.77879600,90778796,-0.00035274121910333633
90.77931500,90779315,-0.0014169607311487198
90.77984700,90779847,-0.00035274121910333633
90.78055800,90780558,0.0017756978049874306
90.78057700,90780577,-0.00035274121910333633
90.78106200,90781062,0.0007114782929420471
90.78158700,90781587,0.002839917317032814
90.78210800,90782108,0.0007114782929420471
90.78263200,90782632,0.0007114782929420471
90.78321700,90783217,0.002839917317032814
90.78368600,90783686,0.0007114782929420471
90.78421100,90784211,-0.00035274121910333633
90.78473500,90784735,-0.00035274121910333633
90.78525600,90785256,-0.00035274121910333633
90.78579300,90785793,0.0017756978049874306
90.78634600,90786346,0.002839917317032814
90.78683500,90786835,0.0017756978049874306
90.78739000,90787390,0.0007114782929420471
90.78806900,90788069,-0.00035274121910333633
90.78808900,90788089,-0.00035274121910333633
90.78857600,90788576,0.0007114782929420471
90.78910100,90789101,0.0017756978049874306
90.78962900,90789629,0.0017756978049874306
90.79015300,90790153,0.0017756978049874306
90.79074100,90790741,0.002839917317032814
90.79120600,90791206,0.0007114782929420471
90.79172700,90791727,-0.00035274121910333633
90.79224900,90792249,0.002839917317032814
90.79277100,90792771,0.0017756978049874306
90.79331100,90793311,-0.00035274121910333633
90.79383200,90793832,0.0017756978049874306
90.79435000,90794350,0.0017756978049874306
90.79502500,90795025,-0.00035274121910333633
90.79554600,90795546,-0.00035274121910333633
90.79608000,90796080,-0.00035274121910333633
90.79660000,90796600,-0.00035274121910333633
90.79715000,90797150,0.0017756978049874306
90.79717200,90797172,0.0017756978049874306
90.79764600,90797646,0.0007114782929420471
90.79820500,90798205,0.0007114782929420471
90.79870000,90798700,0.0017756978049874306
90.79921900,90799219,0.0017756978049874306
90.79974100,90799741,0.0017756978049874306
90.80026800,90800268,0.0017756978049874306
90.80080400,90800804,0.0017756978049874306
90.80133300,90801333,0.0017756978049874306
90.80185800,90801858,0.002839917317032814
90.80248600,90802486,0.0017756978049874306
90.80304300,90803043,0.0017756978049874306
90.80357700,90803577,0.0017756978049874306
90.80409700,90804097,0.002839917317032814
90.80462000,90804620,0.002839917317032814
90.80514500,90805145,0.002839917317032814
90.80570500,90805705,0.002839917317032814
90.80619800,90806198,0.0039041368290781975
90.80674600,90806746,0.0039041368290781975
90.80676500,90806765,0.0017756978049874306
90.80723900,90807239,0.002839917317032814
90.80776200,90807762,0.002839917317032814
90.80829800,90808298,0.0007114782929420471
90.80885500,90808855,0.0007114782929420471
90.80934500,90809345,0.0007114782929420471
90.81002100,90810021,0.0007114782929420471
90.81054300,90810543,0.0017756978049874306
90.81107400,90811074,0.0017756978049874306
90.81159400,90811594,0.0017756978049874306
90.81211700,90812117,0.002839917317032814
90.81264000,90812640,0.0017756978049874306
90.81320900,90813209,0.0017756978049874306
90.81369700,90813697,0.0017756978049874306
90.81422000,90814220,0.0017756978049874306
90.81474200,90814742,0.0017756978049874306
90.81526700,90815267,0.0007114782929420471
90.81579500,90815795,0.0007114782929420471
90.81632100,90816321,0.002839917317032814
90.81687000,90816870,0.0039041368290781975
90.81689400,90816894,0.0007114782929420471
90.81748300,90817483,0.0007114782929420471
90.81803300,90818033,0.0017756978049874306
90.81856500,90818565,-0.00035274121910333633
90.81908400,90819084,-0.00035274121910333633
90.81960700,90819607,0.0017756978049874306
90.82013100,90820131,0.002839917317032814
90.82070700,90820707,0.0017756978049874306
90.82118500,90821185,0.0017756978049874306
90.82170300,90821703,0.0007114782929420471
90.82222600,90822226,0.0007114782929420471
90.82275000,90822750,0.0017756978049874306
90.82328700,90823287,0.0007114782929420471
90.82380900,90823809,0.0007114782929420471
90.82433100,90824331,0.0007114782929420471
90.82491800,90824918,0.0017756978049874306
90.82555800,90825558,0.0017756978049874306
90.82557700,90825577,0.0007114782929420471
90.82606300,90826063,0.0017756978049874306
90.82662700,90826627,0.0017756978049874306
90.82712000,90827120,0.002839917317032814
90.82764100,90827641,0.0039041368290781975
90.82820500,90828205,0.0007114782929420471
90.82869400,90828694,0.0007114782929420471
90.82921700,90829217,0.0017756978049874306
90.82973500,90829735,-0.0014169607311487198
90.83026000,90830260,-0.00035274121910333633
90.83079700,90830797,0.0017756978049874306
90.83135200,90831352,0.0007114782929420471
90.83183600,90831836,0.0007114782929420471
90.83240800,90832408,0.0007114782929420471
90.83306000,90833060,0.0007114782929420471
90.83307900,90833079,0.0017756978049874306
90.83356600,90833566,0.0017756978049874306
90.83408500,90834085,-0.00035274121910333633
90.83460900,90834609,0.0007114782929420471
90.83513200,90835132,0.0017756978049874306
90.83570500,90835705,0.0017756978049874306
90.83618600,90836186,0.002839917317032814
90.83670600,90836706,0.002839917317032814
90.83722800,90837228,0.0007114782929420471
90.83775200,90837752,-0.00035274121910333633
90.83828800,90838288,0.0007114782929420471
90.83881000,90838810,0.002839917317032814
90.83933500,90839335,-0.00035274121910333633
90.83990300,90839903,-0.00035274121910333633
90.84054600,90840546,0.002839917317032814
90.84107500,90841075,-0.00035274121910333633
90.84159600,90841596,-0.0014169607311487198
90.84214400,90842144,0.0017756978049874306
90.84216300,90842163,0.002839917317032814
90.84263900,90842639,0.0017756978049874306
90.84320800,90843208,0.0017756978049874306
90.84369500,90843695,0.0007114782929420471
90.84421300,90844213,0.0007114782929420471
90.84474000,90844740,0.0017756978049874306
90.84526000,90845260,0.0017756978049874306
90.84580000,90845800,0.0017756978049874306
90.84632400,90846324,0.0017756978049874306
90.84684500,90846845,0.002839917317032814
90.84751500,90847515,0.0017756978049874306
90.84803800,90848038,0.0017756978049874306
90.84857000,90848570,0.0007114782929420471
90.84909300,90849093,-0.00035274121910333633
90.84961300,90849613,0.0007114782929420471
90.85013900,90850139,0.002839917317032814
90.85070700,90850707,-0.00035274121910333633
90.85119400,90851194,-0.0014169607311487198
90.85172000,90851720,0.0017756978049874306
90.85226500,90852265,0.0007114782929420471
90.85228500,90852285,-0.00035274121910333633
90.85277600,90852776,0.0017756978049874306
90.85330800,90853308,0.0017756978049874306
90.85384900,90853849,0.0007114782929420471
90.85435000,90854350,0.0007114782929420471
90.85498700,90854987,0.0017756978049874306
90.85554500,90855545,0.0007114782929420471
90.85607900,90856079,0.0007114782929420471
90.85659700,90856597,0.0007114782929420471
90.85712500,90857125,0.0007114782929420471
90.85764300,90857643,0.0007114782929420471
90.85820800,90858208,0.0007114782929420471
90.85870100,90858701,0.002839917317032814
90.85921700,90859217,0.002839917317032814
90.85974400,90859744,0.0017756978049874306
90.86026700,90860267,0.002839917317032814
90.86080100,90860801,0.002839917317032814
90.86132800,90861328,0.0017756978049874306
90.86187200,90861872,-0.0014169607311487198
90.86189300,90861893,-0.00035274121910333633
90.86251200,90862512,0.0017756978049874306
90.86303300,90863033,-0.00035274121910333633
90.86356500,90863565,0.0007114782929420471
90.86409200,90864092,0.002839917317032814
90.86461300,90864613,0.0007114782929420471
90.86513800,90865138,-0.00035274121910333633
90.86570600,90865706,0.0007114782929420471
90.86619700,90866197,0.0007114782929420471
90.86671500,90866715,0.0007114782929420471
90.86723500,90867235,-0.00035274121910333633
90.86775900,90867759,0.0007114782929420471
90.86829300,90868293,0.0017756978049874306
90.86882000,90868820,-0.00035274121910333633
90.86934400,90869344,-0.00035274121910333633
90.87003900,90870039,0.0017756978049874306
90.87005900,90870059,0.0017756978049874306
90.87053500,90870535,0.0007114782929420471
90.87107800,90871078,0.0007114782929420471
90.87159700,90871597,0.0017756978049874306
90.87212200,90872122,0.0007114782929420471
90.87264300,90872643,-0.00035274121910333633
90.87320800,90873208,-0.00035274121910333633
90.87369800,90873698,0.0017756978049874306
90.87421700,90874217,0.0007114782929420471
90.87474200,90874742,0.0007114782929420471
90.87526600,90875266,0.002839917317032814
90.87580000,90875800,0.0017756978049874306
90.87635300,90876353,0.0007114782929420471
90.87684800,90876848,0.0017756978049874306
90.87756200,90877562,0.0017756978049874306
90.87758200,90877582,0.0017756978049874306
90.87806200,90878062,0.0017756978049874306
90.87859000,90878590,0.0017756978049874306
90.87912700,90879127,0.002839917317032814
90.87963700,90879637,0.002839917317032814
90.88016000,90880160,0.002839917317032814
90.88074900,90880749,0.0017756978049874306
90.88127800,90881278,0.0007114782929420471
90.88179900,90881799,0.0007114782929420471
90.88233500,90882335,0.0007114782929420471
90.88290300,90882903,0.0007114782929420471
90.88356400,90883564,0.0017756978049874306
90.88411100,90884111,0.0007114782929420471
90.88413100,90884131,0.0007114782929420471
90.88460600,90884606,0.0017756978049874306
90.88513400,90885134,-0.00035274121910333633
90.88570700,90885707,-0.00035274121910333633
90.88618500,90886185,0.0017756978049874306
90.88670700,90886707,0.0007114782929420471
90.88723200,90887232,0.0017756978049874306
90.88775800,90887758,0.0039041368290781975
90.88829100,90888291,0.002839917317032814
90.88881200,90888812,0.0017756978049874306
90.88933800,90889338,0.0017756978049874306
90.88994500,90889945,0.002839917317032814
90.89053300,90890533,0.002839917317032814
90.89106300,90891063,0.0017756978049874306
90.89158600,90891586,0.0007114782929420471
90.89210900,90892109,0.0017756978049874306
90.89263200,90892632,0.0017756978049874306
90.89321300,90893213,0.0007114782929420471
90.89369000,90893690,0.0007114782929420471
90.89424100,90894241,0.0007114782929420471
90.89426200,90894262,0.0007114782929420471
90.89473600,90894736,0.0017756978049874306
90.89525900,90895259,0.0017756978049874306
90.89579800,90895798,-0.0014169607311487198
90.89632000,90896320,-0.00035274121910333633
90.89683700,90896837,0.0017756978049874306
90.89753600,90897536,0.0007114782929420471
90.89806000,90898060,0.002839917317032814
90.89859200,90898592,0.002839917317032814
90.89911800,90899118,-0.00035274121910333633
90.89963800,90899638,0.0017756978049874306
90.90016000,90900160,0.0017756978049874306
90.90074800,90900748,0.0007114782929420471
90.90127600,90901276,0.0007114782929420471
90.90182900,90901829,0.0007114782929420471
90.90184900,90901849,0.0007114782929420471
90.90232400,90902324,0.0017756978049874306
90.90284800,90902848,0.002839917317032814
90.90359500,90903595,0.002839917317032814
90.90412200,90904122,0.0007114782929420471
90.90464000,90904640,0.0007114782929420471
90.90516800,90905168,0.0007114782929420471
90.90574600,90905746,0.0017756978049874306
90.90626900,90906269,0.0017756978049874306
90.90679100,90906791,0.0017756978049874306
90.90732500,90907325,-0.00035274121910333633
90.90784600,90907846,-0.00035274121910333633
90.90858500,90908585,0.002839917317032814
90.90860500,90908605,0.0017756978049874306
90.90908100,90909081,-0.00035274121910333633
90.90960300,90909603,0.0017756978049874306
90.91013000,90910130,0.0007114782929420471
90.91070800,90910708,-0.00035274121910333633
90.91118400,90911184,0.0007114782929420471
90.91170100,90911701,0.0007114782929420471
90.91222100,90912221,0.0007114782929420471
90.91274400,90912744,0.0017756978049874306
90.91328200,90913282,0.002839917317032814
90.91380500,90913805,0.0017756978049874306
90.91433200,90914332,0.0017756978049874306
90.91485400,90914854,0.0017756978049874306
90.91553900,90915539,0.0017756978049874306
90.91555900,90915559,0.0007114782929420471
90.91605400,90916054,0.0007114782929420471
90.91657400,90916574,0.0017756978049874306
90.91709900,90917099,0.0007114782929420471
90.91761800,90917618,0.002839917317032814
90.91820600,90918206,0.0007114782929420471
90.91867100,90918671,0.0007114782929420471
90.91919200,90919192,0.0039041368290781975
90.91971500,90919715,0.002839917317032814
90.92023800,90920238,0.0007114782929420471
90.92077900,90920779,0.0017756978049874306
90.92133300,90921333,0.002839917317032814
90.92181800,90921818,-0.00035274121910333633
90.92235000,90922350,0.0017756978049874306
90.92306400,90923064,0.0007114782929420471
90.92308400,90923084,0.0007114782929420471
90.92357200,90923572,0.0017756978049874306
90.92409900,90924099,0.0007114782929420471
90.92462000,90924620,0.0007114782929420471
90.92514500,90925145,0.0007114782929420471
90.92570500,90925705,0.0007114782929420471
90.92620000,90926200,0.0007114782929420471
90.92672300,90926723,0.0007114782929420471
90.92725100,90927251,0.0007114782929420471
90.92777700,90927777,0.0007114782929420471
90.92830600,90928306,0.0017756978049874306
90.92883000,90928830,0.0017756978049874306
90.92935300,90929353,0.0017756978049874306
90.93001100,90930011,0.002839917317032814
90.93053800,90930538,0.0017756978049874306
90.93106700,90931067,0.0007114782929420471
90.93161500,90931615,0.002839917317032814
90.93210800,90932108,0.0017756978049874306
90.93265800,90932658,-0.00035274121910333633
90.93267800,90932678,0.002839917317032814
90.93321100,90933211,0.0039041368290781975
90.93368400,90933684,0.002839917317032814
90.93420600,90934206,0.0007114782929420471
90.93472900,90934729,0.0007114782929420471
90.93525500,90935255,0.0017756978049874306
90.93579000,90935790,0.0017756978049874306
90.93631100,90936311,0.0017756978049874306
90.93683500,90936835,0.0017756978049874306
90.93743500,90937435,0.0007114782929420471
90.93803800,90938038,0.0007114782929420471
90.93858500,90938585,0.0017756978049874306
90.93910900,90939109,0.0017756978049874306
90.93963000,90939630,0.0007114782929420471
90.94015400,90940154,0.0017756978049874306
90.94074000,90940740,0.002839917317032814
90.94120900,90941209,0.002839917317032814
90.94172900,90941729,0.0017756978049874306
90.94228100,90942281,0.0007114782929420471
90.94230300,90942303,-0.00035274121910333633
90.94277400,90942774,-0.0024811802431941032
90.94330800,90943308,0.0007114782929420471
90.94384200,90943842,0.0017756978049874306
90.94435200,90944352,-0.00035274121910333633
90.94504300,90945043,0.0007114782929420471
90.94556700,90945567,0.0017756978049874306
90.94609500,90946095,0.0007114782929420471
90.94661600,90946616,0.0007114782929420471
90.94713800,90947138,0.0017756978049874306
90.94766900,90947669,0.0017756978049874306
90.94826500,90948265,0.0017756978049874306
90.94878700,90948787,-0.00035274121910333633
90.94931900,90949319,-0.00035274121910333633
90.94986900,90949869,0.0007114782929420471
90.94988900,90949889,0.0017756978049874306
90.95051000,90950510,0.0017756978049874306
90.95105500,90951055,0.0017756978049874306
90.95157900,90951579,0.0017756978049874306
90.95209800,90952098,0.0007114782929420471
90.95262600,90952626,0.0017756978049874306
90.95320400,90953204,0.0017756978049874306
90.95367500,90953675,0.0017756978049874306
90.95419400,90954194,-0.00035274121910333633
90.95471800,90954718,-0.00035274121910333633
90.95524700,90955247,0.0007114782929420471
90.95578600,90955786,-0.00035274121910333633
90.95630500,90956305,0.0007114782929420471
90.95682600,90956826,0.0017756978049874306
90.95735200,90957352,0.0017756978049874306
90.95806100,90958061,0.0017756978049874306
90.95808100,90958081,0.0007114782929420471
90.95856600,90958566,0.0007114782929420471
90.95909200,90959092,0.0017756978049874306
90.95961200,90959612,0.0017756978049874306
90.96013800,90960138,0.0017756978049874306
90.96070700,90960707,0.002839917317032814
90.96119600,90961196,0.002839917317032814
90.96172000,90961720,0.0017756978049874306
90.96223900,90962239,0.0007114782929420471
90.96276300,90962763,0.0007114782929420471
90.96330000,90963300,0.0007114782929420471
90.96382000,90963820,0.002839917317032814
90.96434400,90964344,0.0039041368290781975
90.96503600,90965036,0.0007114782929420471
90.96505600,90965056,0.0007114782929420471
90.96553400,90965534,0.002839917317032814
90.96606800,90966068,-0.00035274121910333633
90.96658600,90966586,0.0007114782929420471
90.96711000,90967110,0.002839917317032814
90.96763200,90967632,0.0007114782929420471
90.96820500,90968205,-0.00035274121910333633
90.96868500,90968685,0.0017756978049874306
90.96920700,90969207,0.0007114782929420471
90.96973200,90969732,0.0007114782929420471
90.97025300,90970253,0.0007114782929420471
90.97079100,90970791,0.0007114782929420471
90.97131400,90971314,0.0007114782929420471
90.97183500,90971835,0.0017756978049874306
90.97239400,90972394,0.0017756978049874306
90.97303900,90973039,0.0017756978049874306
90.97357100,90973571,0.0017756978049874306
90.97409200,90974092,0.0017756978049874306
90.97463800,90974638,0.0017756978049874306
90.97465700,90974657,0.0017756978049874306
90.97513600,90975136,0.0007114782929420471
90.97570800,90975708,0.0007114782929420471
90.97619100,90976191,0.0017756978049874306
90.97671600,90976716,0.0007114782929420471
90.97723800,90977238,-0.00035274121910333633
90.97776400,90977764,0.0017756978049874306
90.97829200,90978292,0.0017756978049874306
90.97881800,90978818,0.0007114782929420471
90.97933900,90979339,0.0017756978049874306
90.97991500,90979915,0.0017756978049874306
90.98053600,90980536,0.0017756978049874306
90.98106700,90981067,0.002839917317032814
90.98158500,90981585,0.002839917317032814
90.98210800,90982108,0.0017756978049874306
90.98263100,90982631,0.0017756978049874306
90.98320600,90983206,0.0007114782929420471
90.98368800,90983688,0.0007114782929420471
90.98425200,90984252,0.0017756978049874306
90.98427200,90984272,0.002839917317032814
90.98474700,90984747,0.0017756978049874306
90.98527000,90985270,0.0017756978049874306
90.98580100,90985801,0.002839917317032814
90.98632900,90986329,0.002839917317032814
90.98684900,90986849,0.002839917317032814
90.98754100,90987541,0.0007114782929420471
90.98806300,90988063,0.0007114782929420471
90.98859400,90988594,0.0017756978049874306
90.98912100,90989121,0.0007114782929420471
90.98964300,90989643,-0.00035274121910333633
90.99016300,90990163,0.0017756978049874306
90.99075200,90990752,0.0007114782929420471
90.99127400,90991274,-0.00035274121910333633
90.99182600,90991826,0.0007114782929420471
90.99184700,90991847,0.0017756978049874306
90.99232100,90992321,0.0007114782929420471
90.99284600,90992846,0.0017756978049874306
90.99357600,90993576,0.0017756978049874306
90.99410700,90994107,0.0007114782929420471
90.99462700,90994627,0.0017756978049874306
90.99516100,90995161,0.0017756978049874306
90.99574800,90995748,0.0017756978049874306
90.99627100,90996271,0.0017756978049874306
90.99679300,90996793,0.0007114782929420471
90.99732700,90997327,0.0007114782929420471
90.99785000,90997850,0.0007114782929420471
90.99855800,90998558,0.0007114782929420471
90.99857800,90998578,0.0017756978049874306
90.99905500,90999055,0.0017756978049874306
90.99957600,90999576,-0.00035274121910333633
91.00009900,91000099,-0.00035274121910333633
91.00068300,91000683,0.0017756978049874306
91.00115400,91001154,-0.00035274121910333633
91.00167900,91001679,-0.0014169607311487198
91.00220000,91002200,0.002839917317032814
91.00272600,91002726,0.0039041368290781975
91.00327200,91003272,0.002839917317032814
91.00379900,91003799,0.0007114782929420471
91.00431800,91004318,0.0007114782929420471
91.00484700,91004847,0.0017756978049874306
91.00555800,91005558,0.0007114782929420471
91.00557800,91005578,0.0007114782929420471
91.00607500,91006075,0.0007114782929420471
91.00660400,91006604,0.0007114782929420471
91.00712400,91007124,0.0007114782929420471
91.00765100,91007651,0.0007114782929420471
91.00824300,91008243,0.0017756978049874306
91.00870400,91008704,0.0017756978049874306
91.00922900,91009229,0.002839917317032814
91.00974700,91009747,0.002839917317032814
91.01027700,91010277,0.0017756978049874306
91.01080800,91010808,0.0017756978049874306
91.01134300,91011343,0.0007114782929420471
91.01185000,91011850,0.0017756978049874306
91.01248500,91012485,0.0007114782929420471
91.01307300,91013073,0.0007114782929420471
91.01309500,91013095,0.0017756978049874306
91.01358000,91013580,0.0007114782929420471
91.01410800,91014108,-0.0014169607311487198
91.01463000,91014630,0.0007114782929420471
91.01515700,91015157,0.0007114782929420471
91.01574200,91015742,0.0017756978049874306
91.01620600,91016206,0.002839917317032814
91.01673500,91016735,0.0007114782929420471
91.01725700,91017257,0.0007114782929420471
91.01778000,91017780,0.0007114782929420471
91.01831200,91018312,0.0017756978049874306
91.01883900,91018839,0.002839917317032814
91.01941800,91019418,0.0017756978049874306
91.02003900,91020039,0.0017756978049874306
91.02056500,91020565,0.0017756978049874306
91.02109200,91021092,0.0017756978049874306
91.02161400,91021614,-0.00035274121910333633
91.02216300,91022163,-0.0014169607311487198
91.02218300,91022183,0.0007114782929420471
91.02266200,91022662,0.002839917317032814
91.02324700,91023247,0.0007114782929420471
91.02377100,91023771,0.0007114782929420471
91.02429200,91024292,0.0039041368290781975
91.02482400,91024824,0.0007114782929420471
91.02534500,91025345,-0.00035274121910333633
91.02593200,91025932,0.0017756978049874306
91.02656800,91026568,0.0017756978049874306
91.02708800,91027088,0.0007114782929420471
91.02761300,91027613,-0.00035274121910333633
91.02819600,91028196,-0.00035274121910333633
91.02866800,91028668,0.0007114782929420471
91.02918900,91029189,0.0007114782929420471
91.02971200,91029712,0.0007114782929420471
91.03026100,91030261,-0.00035274121910333633
91.03028100,91030281,-0.0014169607311487198
91.03077700,91030777,0.0007114782929420471
91.03130100,91031301,0.0007114782929420471
91.03182500,91031825,0.0007114782929420471
91.03234400,91032344,0.0007114782929420471
91.03298300,91032983,0.0007114782929420471
91.03356900,91033569,0.0017756978049874306
91.03408500,91034085,0.002839917317032814
91.03460900,91034609,0.0017756978049874306
91.03513300,91035133,0.0017756978049874306
91.03570600,91035706,0.0007114782929420471
91.03619200,91036192,-0.00035274121910333633
91.03671500,91036715,0.002839917317032814
91.03723600,91037236,0.0017756978049874306
91.03775800,91037758,0.0007114782929420471
91.03828900,91038289,0.0007114782929420471
91.03881700,91038817,0.0007114782929420471
91.03936700,91039367,0.0017756978049874306
91.03938700,91039387,0.002839917317032814
91.04001400,91040014,0.0017756978049874306
91.04054600,91040546,0.0007114782929420471
91.04108000,91041080,0.0007114782929420471
91.04160000,91041600,0.002839917317032814
91.04212000,91042120,0.0017756978049874306
91.04264300,91042643,-0.00035274121910333633
91.04320500,91043205,-0.00035274121910333633
91.04370000,91043700,-0.00035274121910333633
91.04422100,91044221,0.0017756978049874306
91.04474100,91044741,0.0007114782929420471
91.04526900,91045269,-0.00035274121910333633
91.04579800,91045798,0.0017756978049874306
91.04632500,91046325,0.0017756978049874306
91.04684600,91046846,-0.0014169607311487198
91.04751800,91047518,0.0007114782929420471
91.04754100,91047541,0.0017756978049874306
91.04803900,91048039,-0.0014169607311487198
91.04858000,91048580,0.0007114782929420471
91.04910200,91049102,0.002839917317032814
91.04962700,91049627,0.0017756978049874306
91.05014800,91050148,0.0017756978049874306
91.05070700,91050707,0.0017756978049874306
91.05120300,91051203,0.0007114782929420471
91.05172800,91051728,0.0017756978049874306
91.05225000,91052250,0.0017756978049874306
91.05277600,91052776,0.0007114782929420471
91.05330500,91053305,0.0007114782929420471
91.05383700,91053837,0.0017756978049874306
91.05435400,91054354,0.0017756978049874306
91.05503600,91055036,0.0017756978049874306
91.05505600,91055056,0.0007114782929420471
91.05553600,91055536,-0.00035274121910333633
91.05606400,91056064,-0.0014169607311487198
91.05659300,91056593,-0.0014169607311487198
91.05711600,91057116,0.0017756978049874306
91.05764500,91057645,0.0017756978049874306
91.05820800,91058208,-0.00035274121910333633
91.05869200,91058692,0.0017756978049874306
91.05921500,91059215,0.002839917317032814
91.05973700,91059737,0.0007114782929420471
91.06026100,91060261,0.0017756978049874306
91.06079600,91060796,0.002839917317032814
91.06131700,91061317,0.0007114782929420471
91.06183800,91061838,0.0007114782929420471
91.06238500,91062385,0.0017756978049874306
91.06303600,91063036,0.0007114782929420471
91.06357000,91063570,0.0007114782929420471
91.06409400,91064094,0.0017756978049874306
91.06464400,91064644,0.0017756978049874306
91.06466400,91064664,0.0017756978049874306
91.06514500,91065145,0.0017756978049874306
91.06570700,91065707,0.002839917317032814
91.06619700,91066197,0.0017756978049874306
91.06671600,91066716,0.0007114782929420471
91.06723900,91067239,-0.00035274121910333633
91.06776100,91067761,-0.00035274121910333633
91.06829900,91068299,0.0017756978049874306
91.06882000,91068820,0.0017756978049874306
91.06934300,91069343,-0.00035274121910333633
91.07000900,91070009,0.0017756978049874306
91.07053600,91070536,0.0007114782929420471
91.07107200,91071072,-0.0024811802431941032
91.07159200,91071592,0.0007114782929420471
91.07211300,91072113,0.002839917317032814
91.07264000,91072640,0.0017756978049874306
91.07320500,91073205,0.0017756978049874306
91.07369500,91073695,0.0017756978049874306
91.07421200,91074212,0.0017756978049874306
91.07476500,91074765,0.0017756978049874306
91.07478600,91074786,0.0017756978049874306
91.07526000,91075260,0.0017756978049874306
91.07579100,91075791,0.002839917317032814
91.07631700,91076317,0.0017756978049874306
91.07684200,91076842,0.0007114782929420471
91.07748900,91077489,0.0007114782929420471
91.07804100,91078041,0.0007114782929420471
91.07857400,91078574,0.002839917317032814
91.07909600,91079096,0.002839917317032814
91.07961900,91079619,0.0017756978049874306
91.08014000,91080140,-0.00035274121910333633
91.08070400,91080704,0.0017756978049874306
91.08119700,91081197,0.002839917317032814
91.08172300,91081723,-0.00035274121910333633
91.08224400,91082244,0.0007114782929420471
91.08276900,91082769,0.002839917317032814
91.08329900,91083299,-0.00035274121910333633
91.08382500,91083825,0.0007114782929420471
91.08437100,91084371,0.0017756978049874306
91.08439100,91084391,0.0017756978049874306
91.08501600,91085016,0.0007114782929420471
91.08553700,91085537,0.0007114782929420471
91.08606900,91086069,0.0017756978049874306
91.08658800,91086588,0.0017756978049874306
91.08711500,91087115,0.0017756978049874306
91.08763800,91087638,0.0017756978049874306
91.08820500,91088205,0.0017756978049874306
91.08869500,91088695,0.0017756978049874306
91.08922300,91089223,0.0007114782929420471
91.08974700,91089747,0.0017756978049874306
91.09026800,91090268,0.0017756978049874306
91.09080300,91090803,0.0017756978049874306
91.09132700,91091327,0.0017756978049874306
91.09185300,91091853,0.0007114782929420471
91.09254600,91092546,0.0007114782929420471
91.09256800,91092568,0.0017756978049874306
91.09303800,91093038,0.0007114782929420471
91.09357000,91093570,0.0007114782929420471
91.09409700,91094097,0.0017756978049874306
91.09461600,91094616,0.0017756978049874306
91.09515000,91095150,0.0007114782929420471
91.09571000,91095710,0.0017756978049874306
91.09620100,91096201,0.0017756978049874306
91.09672300,91096723,0.0017756978049874306
91.09724500,91097245,0.0017756978049874306
91.09777200,91097772,0.0017756978049874306
91.09830100,91098301,0.0007114782929420471
91.09882200,91098822,0.0007114782929420471
91.09934300,91099343,0.0017756978049874306
91.10006700,91100067,0.0017756978049874306
91.10008600,91100086,0.002839917317032814
91.10056100,91100561,0.0017756978049874306
91.10109300,91101093,0.0017756978049874306
91.10161900,91101619,0.0017756978049874306
91.10213900,91102139,0.0017756978049874306
91.10266700,91102667,0.002839917317032814
91.10325100,91103251,0.0017756978049874306
91.10377900,91103779,-0.00035274121910333633
91.10430100,91104301,0.0007114782929420471
91.10482700,91104827,0.002839917317032814
91.10534400,91105344,0.0017756978049874306
91.10605800,91106058,0.0017756978049874306
91.10658100,91106581,0.0039041368290781975
91.10712900,91107129,0.0007114782929420471
91.10715100,91107151,-0.00035274121910333633
91.10762600,91107626,-0.00035274121910333633
91.10821000,91108210,0.0007114782929420471
91.10868500,91108685,0.0017756978049874306
91.10919900,91109199,0.0017756978049874306
91.10972300,91109723,0.0017756978049874306
91.11025100,91110251,0.0017756978049874306
91.11077800,91110778,0.0007114782929420471
91.11131000,91111310,0.0007114782929420471
91.11183000,91111830,0.0017756978049874306
91.11235900,91112359,0.0007114782929420471
91.11300700,91113007,-0.00035274121910333633
91.11357200,91113572,-0.00035274121910333633
91.11409900,91114099,0.0017756978049874306
91.11462000,91114620,0.0017756978049874306
91.11514600,91115146,0.0039041368290781975
91.11570900,91115709,0.0017756978049874306
91.11622400,91116224,0.0007114782929420471
91.11624400,91116244,0.0007114782929420471
91.11671700,91116717,-0.00035274121910333633
91.11723900,91117239,0.0007114782929420471
91.11776800,91117768,0.0017756978049874306
91.11830300,91118303,0.0007114782929420471
91.11883000,91118830,-0.00035274121910333633
91.11935000,91119350,0.0007114782929420471
91.12003600,91120036,0.0017756978049874306
91.12055900,91120559,0.0017756978049874306
91.12108700,91121087,0.0017756978049874306
91.12160700,91121607,0.0017756978049874306
91.12212900,91122129,0.0017756978049874306
91.12265300,91122653,0.0017756978049874306
91.12324800,91123248,0.0007114782929420471
91.12371000,91123710,0.0007114782929420471
91.12423000,91124230,0.0007114782929420471
91.12475500,91124755,0.0017756978049874306
91.12527800,91125278,0.0007114782929420471
91.12583600,91125836,0.0007114782929420471
91.12585800,91125858,-0.00035274121910333633
91.12633600,91126336,0.0017756978049874306
91.12690900,91126909,0.002839917317032814
91.12754000,91127540,-0.00035274121910333633
91.12806100,91128061,0.0007114782929420471
91.12859400,91128594,0.002839917317032814
91.12911200,91129112,0.0007114782929420471
91.12963600,91129636,0.0007114782929420471
91.13016000,91130160,0.0007114782929420471
91.13074800,91130748,0.0007114782929420471
91.13126900,91131269,0.0007114782929420471
91.13180400,91131804,0.0007114782929420471
91.13232400,91132324,0.0017756978049874306
91.13285200,91132852,0.0007114782929420471
91.13358300,91133583,0.0007114782929420471
91.13360400,91133604,0.0007114782929420471
91.13407700,91134077,0.0007114782929420471
91.13459800,91134598,0.0007114782929420471
91.13512300,91135123,0.0017756978049874306
91.13570400,91135704,0.0007114782929420471
91.13617500,91136175,0.0007114782929420471
91.13669600,91136696,0.0017756978049874306
91.13721800,91137218,0.002839917317032814
91.13774500,91137745,0.0007114782929420471
91.13827600,91138276,-0.00035274121910333633
91.13880300,91138803,0.0007114782929420471
91.13932700,91139327,0.0007114782929420471
91.13984800,91139848,0.0017756978049874306
91.14053300,91140533,0.0017756978049874306
91.14055300,91140553,-0.00035274121910333633
91.14105400,91141054,0.0007114782929420471
91.14161300,91141613,0.0007114782929420471
91.14210400,91142104,0.0007114782929420471
91.14263400,91142634,0.0007114782929420471
91.14320800,91143208,0.0017756978049874306
91.14368600,91143686,0.0017756978049874306
91.14420800,91144208,0.0017756978049874306
91.14473200,91144732,0.0017756978049874306
91.14525900,91145259,0.0017756978049874306
91.14579300,91145793,0.0007114782929420471
91.14634900,91146349,0.0007114782929420471
91.14683700,91146837,0.0017756978049874306
91.14743700,91147437,0.002839917317032814
91.14803400,91148034,0.002839917317032814
91.14859000,91148590,-0.00035274121910333633
91.14861000,91148610,-0.0014169607311487198
91.14909500,91149095,0.0017756978049874306
91.14961600,91149616,0.0007114782929420471
91.15014100,91150141,-0.0014169607311487198
91.15070500,91150705,0.0017756978049874306
91.15120000,91151200,0.002839917317032814
91.15172200,91151722,0.0007114782929420471
91.15224200,91152242,0.0007114782929420471
91.15277300,91152773,0.0007114782929420471
91.15329800,91153298,0.0007114782929420471
91.15382700,91153827,0.0007114782929420471
91.15434700,91154347,0.0007114782929420471
91.15504500,91155045,0.0017756978049874306
91.15556600,91155566,0.0017756978049874306
91.15609700,91156097,0.0017756978049874306
91.15662100,91156621,0.0007114782929420471
91.15714200,91157142,0.0017756978049874306
91.15769000,91157690,0.0017756978049874306
91.15771000,91157710,0.0007114782929420471
91.15825100,91158251,0.0017756978049874306
91.15877200,91158772,0.002839917317032814
91.15929000,91159290,0.0017756978049874306
91.15982100,91159821,-0.00035274121910333633
91.16034000,91160340,0.0017756978049874306
91.16093600,91160936,0.002839917317032814
91.16154100,91161541,0.0007114782929420471
91.16206800,91162068,0.002839917317032814
91.16258900,91162589,0.002839917317032814
91.16311200,91163112,-0.0014169607311487198
91.16364400,91163644,-0.00035274121910333633
91.16417000,91164170,0.0007114782929420471
91.16469000,91164690,0.0007114782929420471
91.16521900,91165219,0.0007114782929420471
91.16579100,91165791,0.0017756978049874306
91.16581600,91165816,0.0007114782929420471
91.16629200,91166292,0.0007114782929420471
91.16682200,91166822,0.0017756978049874306
91.16734100,91167341,0.0017756978049874306
91.16804100,91168041,0.002839917317032814
91.16857900,91168579,0.002839917317032814
91.16909300,91169093,0.002839917317032814
91.16961700,91169617,0.0017756978049874306
91.17014100,91170141,0.0017756978049874306
91.17070500,91170705,0.0017756978049874306
91.17119200,91171192,0.0017756978049874306
91.17171200,91171712,0.002839917317032814
91.17223500,91172235,0.0017756978049874306
91.17276000,91172760,0.0007114782929420471
91.17329400,91173294,0.0007114782929420471
91.17381800,91173818,0.002839917317032814
91.17433700,91174337,0.0007114782929420471
91.17494300,91174943,-0.00035274121910333633
91.17496600,91174966,0.0007114782929420471
91.17553100,91175531,-0.00035274121910333633
91.17606600,91176066,0.0007114782929420471
91.17659300,91176593,0.0017756978049874306
91.17711500,91177115,0.002839917317032814
91.17764100,91177641,0.0017756978049874306
91.17820600,91178206,0.0007114782929420471
91.17869300,91178693,0.0007114782929420471
91.17921100,91179211,0.0017756978049874306
91.17973400,91179734,0.0017756978049874306
91.18025800,91180258,0.0007114782929420471
91.18079000,91180790,0.0017756978049874306
91.18131200,91181312,0.0017756978049874306
91.18183300,91181833,-0.00035274121910333633
91.18235600,91182356,-0.0014169607311487198
91.18306100,91183061,-0.0014169607311487198
91.18308100,91183081,0.0007114782929420471
91.18357100,91183571,0.0017756978049874306
91.18408700,91184087,-0.00035274121910333633
91.18461000,91184610,-0.00035274121910333633
91.18513300,91185133,0.002839917317032814
91.18570700,91185707,0.0017756978049874306
91.18618600,91186186,-0.00035274121910333633
91.18670700,91186707,0.0017756978049874306
91.18723000,91187230,0.0017756978049874306
91.18775400,91187754,0.0007114782929420471
91.18828700,91188287,0.0007114782929420471
91.18880800,91188808,-0.00035274121910333633
91.18933500,91189335,-0.00035274121910333633
91.18991900,91189919,-0.00035274121910333633
91.19056300,91190563,0.0007114782929420471
91.19058200,91190582,0.0017756978049874306
91.19107400,91191074,0.0017756978049874306
91.19159400,91191594,0.0007114782929420471
91.19211400,91192114,0.0007114782929420471
91.19263700,91192637,-0.00035274121910333633
91.19320500,91193205,0.0007114782929420471
91.19369100,91193691,-0.00035274121910333633
91.19421800,91194218,-0.0014169607311487198
91.19474000,91194740,0.0017756978049874306
91.19526500,91195265,0.0007114782929420471
91.19579900,91195799,0.0007114782929420471
91.19632100,91196321,0.002839917317032814
91.19684400,91196844,0.0017756978049874306
91.19753500,91197535,0.0007114782929420471
91.19805400,91198054,0.002839917317032814
91.19858300,91198583,0.0017756978049874306
91.19910500,91199105,0.0017756978049874306
91.19965300,91199653,0.0017756978049874306
91.19967200,91199672,0.0017756978049874306
91.20015100,91200151,0.0017756978049874306
91.20074400,91200744,0.002839917317032814
91.20120400,91201204,0.0017756978049874306
91.20173500,91201735,0.0007114782929420471
91.20225100,91202251,0.0017756978049874306
91.20278300,91202783,0.0017756978049874306
91.20333000,91203330,0.0007114782929420471
91.20384100,91203841,0.0007114782929420471
91.20453200,91204532,0.0007114782929420471
91.20505800,91205058,0.002839917317032814
91.20557900,91205579,0.0039041368290781975
91.20611100,91206111,0.0017756978049874306
91.20663000,91206630,0.0007114782929420471
91.20716000,91207160,0.002839917317032814
91.20768500,91207685,0.0007114782929420471
91.20829600,91208296,0.0017756978049874306
91.20831500,91208315,0.002839917317032814
91.20879400,91208794,-0.00035274121910333633
91.20931600,91209316,-0.0014169607311487198
91.20984300,91209843,0.0007114782929420471
91.21050800,91210508,0.0017756978049874306
91.21107600,91211076,0.0017756978049874306
91.21159600,91211596,0.0007114782929420471
91.21211900,91212119,0.0007114782929420471
91.21263900,91212639,0.0007114782929420471
91.21321200,91213212,0.0007114782929420471
91.21369500,91213695,0.0017756978049874306
91.21421900,91214219,0.0007114782929420471
91.21474000,91214740,0.0007114782929420471
91.21527400,91215274,0.0007114782929420471
91.21580400,91215804,-0.00035274121910333633
91.21635800,91216358,-0.00035274121910333633
91.21637800,91216378,-0.00035274121910333633
91.21685400,91216854,-0.00035274121910333633
91.21753900,91217539,-0.00035274121910333633
91.21806500,91218065,0.0007114782929420471
91.21859200,91218592,-0.00035274121910333633
91.21911500,91219115,0.0007114782929420471
91.21963700,91219637,0.002839917317032814
91.22016100,91220161,0.0007114782929420471
91.22075200,91220752,0.0007114782929420471
91.22126800,91221268,0.002839917317032814
91.22178600,91221786,0.0017756978049874306
91.22231800,91222318,0.0017756978049874306
91.22284000,91222840,0.0007114782929420471
91.22345800,91223458,0.0007114782929420471
91.22347700,91223477,0.0007114782929420471
91.22404300,91224043,0.0017756978049874306
91.22457000,91224570,0.0007114782929420471
91.22508900,91225089,0.0007114782929420471
91.22561200,91225612,0.0007114782929420471
91.22614400,91226144,0.0007114782929420471
91.22667100,91226671,0.0007114782929420471
91.22719300,91227193,0.0017756978049874306
91.22772300,91227723,0.002839917317032814
91.22826600,91228266,0.0007114782929420471
91.22879500,91228795,0.0017756978049874306
91.22931800,91229318,0.0007114782929420471
91.22984900,91229849,0.0007114782929420471
91.23056100,91230561,0.0017756978049874306
91.23058100,91230581,0.0017756978049874306
91.23106300,91231063,0.0017756978049874306
91.23158400,91231584,0.002839917317032814
91.23210700,91232107,0.002839917317032814
91.23263000,91232630,0.0017756978049874306
91.23320900,91233209,0.0007114782929420471
91.23368200,91233682,0.0007114782929420471
91.23420200,91234202,0.0007114782929420471
91.23472600,91234726,0.0007114782929420471
91.23525000,91235250,0.0017756978049874306
91.23578100,91235781,0.0007114782929420471
91.23633800,91236338,0.0007114782929420471
91.23682600,91236826,0.0017756978049874306
91.23735400,91237354,0.0017756978049874306
91.23798500,91237985,0.0007114782929420471
91.23856400,91238564,0.0017756978049874306
91.23912200,91239122,0.002839917317032814
91.23914300,91239143,0.0017756978049874306
91.23961400,91239614,0.0017756978049874306
91.24013500,91240135,0.0039041368290781975
91.24070600,91240706,0.002839917317032814
91.24119300,91241193,0.0007114782929420471
91.24170900,91241709,0.0017756978049874306
91.24223100,91242231,0.004968356341123581
91.24275600,91242756,0.0017756978049874306
91.24328900,91243289,-0.00035274121910333633
91.24381500,91243815,0.002839917317032814
91.24433100,91244331,0.0007114782929420471
91.24489600,91244896,-0.00035274121910333633
91.24550800,91245508,0.0017756978049874306
91.24605100,91246051,0.0017756978049874306
91.24656900,91246569,0.0007114782929420471
91.24709200,91247092,0.0007114782929420471
91.24761500,91247615,0.0007114782929420471
91.24819900,91248199,0.0017756978049874306
91.24867000,91248670,0.002839917317032814
91.24922200,91249222,0.0017756978049874306
91.24924500,91249245,0.0007114782929420471
91.24971400,91249714,0.0017756978049874306
91.25024000,91250240,0.002839917317032814
91.25077400,91250774,0.002839917317032814
91.25130500,91251305,0.0017756978049874306
91.25183100,91251831,0.0017756978049874306
91.25235200,91252352,0.0007114782929420471
91.25300800,91253008,0.0007114782929420471
91.25355300,91253553,0.002839917317032814
91.25407200,91254072,0.0017756978049874306
91.25459600,91254596,-0.00035274121910333633
91.25512200,91255122,0.002839917317032814
91.25570700,91255707,0.002839917317032814
91.25617600,91256176,-0.00035274121910333633
91.25669800,91256698,0.0017756978049874306
91.25722200,91257222,0.002839917317032814
91.25774300,91257743,0.0007114782929420471
91.25827700,91258277,0.0007114782929420471
91.25885200,91258852,-0.00035274121910333633
91.25887200,91258872,0.0017756978049874306
91.25931900,91259319,0.0017756978049874306
91.25985000,91259850,0.0007114782929420471
91.26051100,91260511,0.0007114782929420471
91.26105700,91261057,0.0007114782929420471
91.26158000,91261580,0.0017756978049874306
91.26210000,91262100,0.002839917317032814
91.26262500,91262625,0.0017756978049874306
91.26320700,91263207,0.0017756978049874306
91.26369400,91263694,0.0017756978049874306
91.26422200,91264222,0.002839917317032814
91.26474000,91264740,0.0007114782929420471
91.26527500,91265275,0.0017756978049874306
91.26580400,91265804,0.002839917317032814
91.26633000,91266330,0.0017756978049874306
91.26685300,91266853,0.0017756978049874306
91.26753700,91267537,0.0017756978049874306
91.26755800,91267558,-0.00035274121910333633
91.26804400,91268044,-0.00035274121910333633
91.26857700,91268577,0.0017756978049874306
91.26910700,91269107,0.0017756978049874306
91.26962200,91269622,0.0007114782929420471
91.27014800,91270148,-0.00035274121910333633
91.27072300,91270723,-0.00035274121910333633
91.27120300,91271203,0.0007114782929420471
91.27172800,91271728,0.0007114782929420471
91.27224300,91272243,0.0017756978049874306
91.27277400,91272774,0.0017756978049874306
91.27330700,91273307,0.0017756978049874306
91.27382800,91273828,0.0007114782929420471
91.27434900,91274349,0.0017756978049874306
91.27500800,91275008,0.002839917317032814
91.27502800,91275028,0.0039041368290781975
91.27553200,91275532,0.0017756978049874306
91.27606400,91276064,-0.00035274121910333633
91.27659100,91276591,0.0017756978049874306
91.27711200,91277112,0.0007114782929420471
91.27763200,91277632,-0.00035274121910333633
91.27820500,91278205,0.002839917317032814
91.27869100,91278691,0.0017756978049874306
91.27920900,91279209,-0.00035274121910333633
91.27972900,91279729,-0.00035274121910333633
91.28025400,91280254,0.0007114782929420471
91.28078800,91280788,0.0007114782929420471
91.28134400,91281344,-0.00035274121910333633
91.28183000,91281830,0.0007114782929420471
91.28235700,91282357,0.0017756978049874306
91.28301400,91283014,0.0039041368290781975
91.28355900,91283559,0.0017756978049874306
91.28410500,91284105,0.0007114782929420471
91.28412800,91284128,0.0017756978049874306
91.28460300,91284603,0.002839917317032814
91.28512500,91285125,0.0017756978049874306
91.28570500,91285705,0.0017756978049874306
91.28617800,91286178,-0.00035274121910333633
91.28670000,91286700,-0.00035274121910333633
91.28722500,91287225,0.0007114782929420471
91.28774700,91287747,-0.00035274121910333633
91.28828000,91288280,0.0017756978049874306
91.28880300,91288803,0.0017756978049874306
91.28933000,91289330,0.0007114782929420471
91.28985900,91289859,0.0007114782929420471
91.29048000,91290480,0.0017756978049874306
91.29106200,91291062,0.0007114782929420471
91.29158000,91291580,0.0007114782929420471
91.29210300,91292103,0.0007114782929420471
91.29262700,91292627,0.0017756978049874306
91.29321000,91293210,0.0017756978049874306
91.29368000,91293680,0.0007114782929420471
91.29423300,91294233,0.0007114782929420471
91.29425400,91294254,0.0007114782929420471
91.29472300,91294723,0.0007114782929420471
91.29525000,91295250,0.0007114782929420471
91.29578600,91295786,-0.00035274121910333633
91.29630500,91296305,0.0007114782929420471
91.29682700,91296827,0.0007114782929420471
91.29735700,91297357,-0.00035274121910333633
91.29800600,91298006,-0.00035274121910333633
91.29855000,91298550,0.0007114782929420471
91.29907500,91299075,0.0017756978049874306
91.29959500,91299595,-0.00035274121910333633
91.30011700,91300117,0.0007114782929420471
91.30070000,91300700,0.0007114782929420471
91.30117700,91301177,-0.00035274121910333633
91.30169700,91301697,0.0017756978049874306
91.30222300,91302223,0.0007114782929420471
91.30275600,91302756,-0.00035274121910333633
91.30328100,91303281,-0.00035274121910333633
91.30383800,91303838,0.0007114782929420471
91.30386300,91303863,0.0017756978049874306
91.30433100,91304331,0.002839917317032814
91.30485500,91304855,0.002839917317032814
91.30548100,91305481,0.0017756978049874306
91.30605300,91306053,0.0017756978049874306
91.30657500,91306575,0.0017756978049874306
91.30709600,91307096,0.0017756978049874306
91.30761800,91307618,0.0017756978049874306
91.30821100,91308211,0.0007114782929420471
91.30867400,91308674,0.0017756978049874306
91.30920500,91309205,0.0017756978049874306
91.30972400,91309724,-0.00035274121910333633
91.31025200,91310252,0.0007114782929420471
91.31078400,91310784,0.0039041368290781975
91.31130600,91311306,0.0017756978049874306
91.31182500,91311825,0.0007114782929420471
91.31235100,91312351,0.0039041368290781975
91.31303300,91313033,0.0017756978049874306
91.31305300,91313053,-0.0014169607311487198
91.31353800,91313538,-0.00035274121910333633
91.31406300,91314063,-0.00035274121910333633
91.31458400,91314584,-0.00035274121910333633
91.31510400,91315104,0.0007114782929420471
91.31568800,91315688,0.0017756978049874306
91.31616800,91316168,0.0017756978049874306
91.31668800,91316688,0.0017756978049874306
91.31721700,91317217,0.0017756978049874306
91.31773500,91317735,0.002839917317032814
91.31827900,91318279,0.002839917317032814
91.31879800,91318798,0.0017756978049874306
91.31932200,91319322,0.0007114782929420471
91.31985600,91319856,0.0007114782929420471
91.32053400,91320534,0.0007114782929420471
91.32055400,91320554,0.0017756978049874306
91.32105400,91321054,0.002839917317032814
91.32157800,91321578,0.0007114782929420471
91.32209800,91322098,0.0017756978049874306
91.32262400,91322624,0.002839917317032814
91.32320800,91323208,0.0017756978049874306
91.32367900,91323679,0.0039041368290781975
91.32419800,91324198,0.0039041368290781975
91.32471900,91324719,-0.00035274121910333633
91.32524700,91325247,0.0007114782929420471
91.32577400,91325774,0.0017756978049874306
91.32633700,91326337,0.002839917317032814
91.32682900,91326829,0.0017756978049874306
91.32735100,91327351,0.0017756978049874306
91.32803400,91328034,0.002839917317032814
91.32856600,91328566,0.002839917317032814
91.32911600,91329116,0.002839917317032814
91.32913500,91329135,0.0007114782929420471
91.32960800,91329608,-0.00035274121910333633
91.33013100,91330131,0.0007114782929420471
91.33070600,91330706,0.0007114782929420471
91.33118800,91331188,-0.00035274121910333633
91.33170700,91331707,0.0007114782929420471
91.33223000,91332230,0.002839917317032814
91.33275200,91332752,0.0017756978049874306
91.33328700,91333287,-0.00035274121910333633
91.33380900,91333809,0.0039041368290781975
91.33433000,91334330,0.002839917317032814
91.33493600,91334936,0.0017756978049874306
91.33553900,91335539,0.0039041368290781975
91.33606800,91336068,0.002839917317032814
91.33659300,91336593,-0.00035274121910333633
91.33711700,91337117,0.0007114782929420471
91.33763800,91337638,0.0007114782929420471
91.33820700,91338207,0.0007114782929420471
91.33872100,91338721,-0.00035274121910333633
91.33874100,91338741,0.0007114782929420471
91.33922000,91339220,0.0017756978049874306
91.33973900,91339739,0.0017756978049874306
91.34027100,91340271,0.0017756978049874306
91.34079900,91340799,0.0007114782929420471
91.34133400,91341334,0.0007114782929420471
91.34185400,91341854,0.0017756978049874306
91.34253900,91342539,0.0017756978049874306
91.34306400,91343064,0.0017756978049874306
91.34359400,91343594,0.0007114782929420471
91.34411300,91344113,-0.00035274121910333633
91.34463400,91344634,-0.00035274121910333633
91.34515600,91345156,0.0017756978049874306
91.34575400,91345754,0.0007114782929420471
91.34627200,91346272,0.0007114782929420471
91.34681600,91346816,0.002839917317032814
91.34683600,91346836,0.0007114782929420471
91.34732900,91347329,0.0007114782929420471
91.34784900,91347849,0.0017756978049874306
91.34856300,91348563,0.0017756978049874306
91.34908600,91349086,0.0017756978049874306
91.34960800,91349608,0.0017756978049874306
91.35013200,91350132,-0.00035274121910333633
91.35070500,91350705,-0.0014169607311487198
91.35119100,91351191,-0.0014169607311487198
91.35172600,91351726,-0.00035274121910333633
91.35224100,91352241,0.0007114782929420471
91.35277000,91352770,0.0017756978049874306
91.35329900,91353299,0.0007114782929420471
91.35382900,91353829,0.0007114782929420471
91.35434900,91354349,0.0017756978049874306
91.35503900,91355039,0.0017756978049874306
91.35505800,91355058,0.0017756978049874306
91.35554400,91355544,0.0007114782929420471
91.35607500,91356075,-0.0014169607311487198
91.35659600,91356596,0.0017756978049874306
91.35711700,91357117,0.0007114782929420471
91.35764100,91357641,0.0007114782929420471
91.35820900,91358209,0.0017756978049874306
91.35869700,91358697,0.0007114782929420471
91.35921800,91359218,0.0007114782929420471
91.35974300,91359743,0.0007114782929420471
91.36026500,91360265,0.0007114782929420471
91.36079900,91360799,0.0017756978049874306
91.36132300,91361323,0.0017756978049874306
91.36184400,91361844,0.0007114782929420471
91.36256500,91362565,0.0017756978049874306
91.36258500,91362585,0.0017756978049874306
91.36306000,91363060,0.0017756978049874306
91.36360200,91363602,0.0017756978049874306
91.36412500,91364125,0.0007114782929420471
91.36464700,91364647,0.0007114782929420471
91.36517200,91365172,0.0007114782929420471
91.36576000,91365760,0.0007114782929420471
91.36628700,91366287,0.0017756978049874306
91.36680900,91366809,0.0017756978049874306
91.36733700,91367337,-0.00035274121910333633
91.36806100,91368061,-0.00035274121910333633
91.36808100,91368081,0.0017756978049874306
91.36857400,91368574,0.0017756978049874306
91.36908900,91369089,-0.00035274121910333633
91.36961100,91369611,-0.00035274121910333633
91.37014700,91370147,-0.0014169607311487198
91.37070700,91370707,-0.00035274121910333633
91.37119700,91371197,0.0017756978049874306
91.37171700,91371717,0.0017756978049874306
91.37224100,91372241,0.0007114782929420471
91.37276400,91372764,0.0007114782929420471
91.37330000,91373300,0.0017756978049874306
91.37382400,91373824,0.0017756978049874306
91.37434400,91374344,0.0017756978049874306
91.37504400,91375044,0.0017756978049874306
91.37556400,91375564,0.0007114782929420471
91.37609800,91376098,-0.00035274121910333633
91.37664600,91376646,-0.0014169607311487198
91.37666600,91376666,-0.0014169607311487198
91.37714200,91377142,-0.00035274121910333633
91.37766800,91377668,0.0007114782929420471
91.37825200,91378252,0.002839917317032814
91.37877800,91378778,0.002839917317032814
91.37930100,91379301,0.0007114782929420471
91.37982600,91379826,0.0017756978049874306
91.38034600,91380346,0.002839917317032814
91.38105500,91381055,-0.00035274121910333633
91.38157400,91381574,0.0007114782929420471
91.38209600,91382096,0.0017756978049874306
91.38262000,91382620,0.002839917317032814
91.38320500,91383205,0.002839917317032814
91.38367300,91383673,0.0017756978049874306
91.38419600,91384196,0.0007114782929420471
91.38474400,91384744,0.0007114782929420471
91.38476400,91384764,0.0017756978049874306
91.38524300,91385243,0.0007114782929420471
91.38577300,91385773,0.0007114782929420471
91.38630000,91386300,0.0007114782929420471
91.38683300,91386833,0.0007114782929420471
91.38735900,91387359,0.0017756978049874306
91.38801200,91388012,0.0017756978049874306
91.38855300,91388553,0.0007114782929420471
91.38907600,91389076,0.0007114782929420471
91.38959600,91389596,0.0017756978049874306
91.39011900,91390119,0.0007114782929420471
91.39070500,91390705,0.0017756978049874306
91.39117800,91391178,0.0007114782929420471
91.39169400,91391694,0.0007114782929420471
91.39221500,91392215,0.0017756978049874306
91.39273900,91392739,0.0007114782929420471
91.39327600,91393276,0.0007114782929420471
91.39383700,91393837,0.002839917317032814
91.39434700,91394347,0.002839917317032814
91.39436700,91394367,0.0017756978049874306
91.39485500,91394855,0.0007114782929420471
91.39553500,91395535,0.0017756978049874306
91.39606600,91396066,0.0017756978049874306
91.39658800,91396588,-0.00035274121910333633
91.39711400,91397114,-0.00035274121910333633
91.39763500,91397635,0.0007114782929420471
91.39820500,91398205,0.0017756978049874306
91.39868800,91398688,0.0007114782929420471
91.39921400,91399214,-0.00035274121910333633
91.39973400,91399734,0.0007114782929420471
91.40026000,91400260,0.0007114782929420471
91.40079100,91400791,0.0007114782929420471
91.40132100,91401321,0.0007114782929420471
91.40184200,91401842,0.0007114782929420471
91.40254100,91402541,-0.00035274121910333633
91.40256400,91402564,-0.0014169607311487198
91.40303500,91403035,0.0017756978049874306
91.40357100,91403571,0.0017756978049874306
91.40410000,91404100,-0.00035274121910333633
91.40462000,91404620,0.0007114782929420471
91.40515300,91405153,0.0017756978049874306
91.40570300,91405703,0.0017756978049874306
91.40620500,91406205,0.0017756978049874306
91.40672700,91406727,0.0017756978049874306
91.40725700,91407257,0.0007114782929420471
91.40777400,91407774,0.0007114782929420471
91.40830900,91408309,0.0007114782929420471
91.40883300,91408833,0.0007114782929420471
91.40935500,91409355,0.0007114782929420471
91.41006600,91410066,0.0007114782929420471
91.41008600,91410086,0.0007114782929420471
91.41056100,91410561,0.0007114782929420471
91.41109400,91411094,0.0007114782929420471
91.41161900,91411619,0.0007114782929420471
91.41213700,91412137,0.0007114782929420471
91.41266400,91412664,0.0007114782929420471
91.41324800,91413248,-0.00035274121910333633
91.41377400,91413774,-0.00035274121910333633
91.41429700,91414297,0.0017756978049874306
91.41481700,91414817,0.002839917317032814
91.41534200,91415342,0.0017756978049874306
91.41606000,91416060,0.0039041368290781975
91.41660100,91416601,0.0017756978049874306
91.41662200,91416622,-0.0014169607311487198
91.41710000,91417100,0.0007114782929420471
91.41762100,91417621,0.0007114782929420471
91.41820700,91418207,0.0007114782929420471
91.41867700,91418677,0.0007114782929420471
91.41919600,91419196,-0.00035274121910333633
91.41971900,91419719,-0.00035274121910333633
91.42024300,91420243,0.0007114782929420471
91.42078000,91420780,0.0007114782929420471
91.42130000,91421300,0.0007114782929420471
91.42182200,91421822,0.0017756978049874306
91.42235300,91422353,-0.00035274121910333633
91.42303200,91423032,-0.00035274121910333633
91.42356800,91423568,-0.00035274121910333633
91.42409100,91424091,0.0017756978049874306
91.42461000,91424610,0.0017756978049874306
91.42514200,91425142,0.0007114782929420471
91.42570500,91425705,0.0039041368290781975
91.42622400,91426224,0.0017756978049874306
91.42624400,91426244,-0.0014169607311487198
91.42671900,91426719,0.0017756978049874306
91.42724000,91427240,0.002839917317032814
91.42776700,91427767,-0.00035274121910333633
91.42829900,91428299,-0.0014169607311487198
91.42882400,91428824,0.0007114782929420471
91.42934400,91429344,0.0007114782929420471
91.42994200,91429942,0.0007114782929420471
91.43053700,91430537,-0.00035274121910333633
91.43106600,91431066,0.0007114782929420471
91.43159400,91431594,0.0017756978049874306
91.43211600,91432116,0.0007114782929420471
91.43263900,91432639,0.0007114782929420471
91.43320600,91433206,0.0007114782929420471
91.43369200,91433692,0.0007114782929420471
91.43421200,91434212,0.0007114782929420471
91.43473500,91434735,0.0007114782929420471
91.43525900,91435259,0.0007114782929420471
91.43581700,91435817,0.0007114782929420471
91.43583900,91435839,0.0017756978049874306
91.43631900,91436319,0.0007114782929420471
91.43684900,91436849,0.0007114782929420471
91.43751000,91437510,0.002839917317032814
91.43805500,91438055,0.0007114782929420471
91.43859200,91438592,-0.00035274121910333633
91.43911200,91439112,0.0017756978049874306
91.43963400,91439634,0.0017756978049874306
91.44016100,91440161,0.0007114782929420471
91.44074500,91440745,0.0007114782929420471
91.44127000,91441270,0.0017756978049874306
91.44179000,91441790,0.0017756978049874306
91.44231900,91442319,0.0007114782929420471
91.44284600,91442846,0.0007114782929420471
91.44349000,91443490,0.0007114782929420471
91.44351500,91443515,0.0007114782929420471
91.44404900,91444049,0.0007114782929420471
91.44457100,91444571,0.0017756978049874306
91.44509000,91445090,0.0017756978049874306
91.44561400,91445614,0.002839917317032814
91.44614600,91446146,0.0039041368290781975
91.44667000,91446670,0.004968356341123581
91.44719100,91447191,0.002839917317032814
91.44771700,91447717,0.0017756978049874306
91.44826800,91448268,0.002839917317032814
91.44880000,91448800,-0.00035274121910333633
91.44931700,91449317,-0.00035274121910333633
91.44984100,91449841,0.0039041368290781975
91.45053700,91450537,0.0017756978049874306
91.45055700,91450557,-0.00035274121910333633
91.45105400,91451054,-0.00035274121910333633
91.45158400,91451584,0.0007114782929420471
91.45210100,91452101,0.0007114782929420471
91.45262600,91452626,0.0017756978049874306
91.45320700,91453207,0.0017756978049874306
91.45367300,91453673,0.0007114782929420471
91.45419600,91454196,0.0007114782929420471
91.45472000,91454720,-0.00035274121910333633
91.45524200,91455242,-0.00035274121910333633
91.45577900,91455779,0.0017756978049874306
91.45633700,91456337,0.0017756978049874306
91.45693300,91456933,0.0017756978049874306
91.45752200,91457522,0.0017756978049874306
91.45807500,91458075,0.002839917317032814
91.45809500,91458095,-0.00035274121910333633
91.45858000,91458580,-0.00035274121910333633
91.45910600,91459106,0.002839917317032814
91.45962700,91459627,0.0017756978049874306
91.46015000,91460150,0.002839917317032814
91.46074700,91460747,0.004968356341123581
91.46127200,91461272,0.0007114782929420471
91.46179000,91461790,-0.00035274121910333633
91.46232300,91462323,-0.00035274121910333633
91.46284700,91462847,0.0007114782929420471
91.46355500,91463555,0.0007114782929420471
91.46408100,91464081,-0.00035274121910333633
91.46460400,91464604,-0.00035274121910333633
91.46515400,91465154,0.0007114782929420471
91.46517400,91465174,-0.00035274121910333633
91.46570600,91465706,-0.00035274121910333633
91.46618100,91466181,-0.00035274121910333633
91.46670300,91466703,0.0017756978049874306
91.46722700,91467227,0.0017756978049874306
91.46775100,91467751,0.002839917317032814
91.46828500,91468285,0.0017756978049874306
91.46880800,91468808,0.0007114782929420471
91.46933000,91469330,0.0007114782929420471
91.46988700,91469887,0.0007114782929420471
91.47055100,91470551,0.0017756978049874306
91.47108400,91471084,0.0007114782929420471
91.47160800,91471608,0.0017756978049874306
91.47212800,91472128,0.0017756978049874306
91.47265200,91472652,0.0007114782929420471
91.47324000,91473240,0.0017756978049874306
91.47370700,91473707,0.002839917317032814
91.47425400,91474254,0.0007114782929420471
91.47427400,91474274,-0.00035274121910333633
91.47475000,91474750,-0.00035274121910333633
91.47527800,91475278,-0.00035274121910333633
91.47581000,91475810,-0.0014169607311487198
91.47633400,91476334,-0.00035274121910333633
91.47685500,91476855,-0.00035274121910333633
91.47751700,91477517,0.0007114782929420471
91.47803700,91478037,0.0007114782929420471
91.47856900,91478569,0.0007114782929420471
91.47909200,91479092,0.0017756978049874306
91.47961400,91479614,0.002839917317032814
91.48013700,91480137,0.0017756978049874306
91.48070800,91480708,-0.00035274121910333633
91.48119000,91481190,-0.00035274121910333633
91.48171200,91481712,-0.00035274121910333633
91.48223500,91482235,0.0007114782929420471
91.48275700,91482757,0.0007114782929420471
91.48329400,91483294,-0.00035274121910333633
91.48385300,91483853,0.0017756978049874306
91.48436900,91484369,0.002839917317032814
91.48439000,91484390,-0.00035274121910333633
91.48498100,91484981,0.0017756978049874306
91.48554200,91485542,0.0039041368290781975
91.48607200,91486072,0.0017756978049874306
91.48659300,91486593,0.002839917317032814
91.48711500,91487115,0.0017756978049874306
91.48763700,91487637,0.0007114782929420471
91.48820400,91488204,0.0007114782929420471
91.48869100,91488691,0.0017756978049874306
91.48922000,91489220,0.0017756978049874306
91.48974600,91489746,0.0017756978049874306
91.49027000,91490270,0.0007114782929420471
91.49080300,91490803,0.0007114782929420471
91.49133200,91491332,0.0017756978049874306
91.49185300,91491853,0.0017756978049874306
91.49254100,91492541,0.0007114782929420471
91.49256100,91492561,-0.0014169607311487198
91.49303600,91493036,-0.0014169607311487198
91.49356700,91493567,0.002839917317032814
91.49409400,91494094,0.0007114782929420471
91.49461200,91494612,-0.0014169607311487198
91.49514500,91495145,0.0017756978049874306
91.49570800,91495708,0.0007114782929420471
91.49619700,91496197,-0.00035274121910333633
91.49671700,91496717,0.002839917317032814
91.49724200,91497242,0.0017756978049874306
91.49776800,91497768,0.0007114782929420471
91.49830200,91498302,0.0017756978049874306
91.49883000,91498830,0.0017756978049874306
91.49935100,91499351,0.0007114782929420471
91.49999200,91499992,0.0007114782929420471
91.50057100,91500571,0.0007114782929420471
91.50059000,91500590,0.0007114782929420471
91.50108000,91501080,0.0007114782929420471
91.50160100,91501601,0.0007114782929420471
91.50212100,91502121,0.0007114782929420471
91.50264500,91502645,-0.00035274121910333633
91.50321500,91503215,0.0007114782929420471
91.50369900,91503699,0.0017756978049874306
91.50421800,91504218,0.002839917317032814
91.50474000,91504740,0.0007114782929420471
91.50526400,91505264,0.0007114782929420471
91.50580000,91505800,0.002839917317032814
91.50635500,91506355,0.0017756978049874306
91.50685200,91506852,0.0007114782929420471
91.50751000,91507510,0.002839917317032814
91.50804200,91508042,0.0007114782929420471
91.50857600,91508576,0.0007114782929420471
91.50912800,91509128,0.0007114782929420471
91.50964100,91509641,-0.00035274121910333633
91.50966100,91509661,-0.00035274121910333633
91.51013900,91510139,0.0007114782929420471
91.51070500,91510705,0.0007114782929420471
91.51119300,91511193,0.0007114782929420471
91.51171100,91511711,0.0007114782929420471
91.51223500,91512235,0.0017756978049874306
91.51275600,91512756,0.0007114782929420471
91.51329400,91513294,0.0007114782929420471
91.51381800,91513818,-0.00035274121910333633
91.51433600,91514336,-0.00035274121910333633
91.51487700,91514877,-0.00035274121910333633
91.51553700,91515537,-0.00035274121910333633
91.51607200,91516072,-0.00035274121910333633
91.51660000,91516600,0.0017756978049874306
91.51712100,91517121,0.002839917317032814
91.51765400,91517654,0.0017756978049874306
91.51824000,91518240,0.002839917317032814
91.51870700,91518707,0.0017756978049874306
91.51926100,91519261,0.0007114782929420471
91.51928100,91519281,0.0007114782929420471
91.51975500,91519755,-0.00035274121910333633
91.52028000,91520280,0.0007114782929420471
91.52080900,91520809,0.0017756978049874306
91.52134200,91521342,0.0007114782929420471
91.52191600,91521916,-0.00035274121910333633
91.52253800,91522538,-0.00035274121910333633
91.52306300,91523063,-0.00035274121910333633
91.52359400,91523594,0.0017756978049874306
91.52412000,91524120,0.0007114782929420471
91.52464100,91524641,0.0017756978049874306
91.52516500,91525165,0.0017756978049874306
91.52575200,91525752,0.0007114782929420471
91.52627300,91526273,0.0007114782929420471
91.52680200,91526802,-0.0014169607311487198
91.52734700,91527347,0.0007114782929420471
91.52736700,91527367,0.002839917317032814
91.52784700,91527847,0.0007114782929420471
91.52852500,91528525,0.0007114782929420471
91.52908600,91529086,0.002839917317032814
91.52960500,91529605,0.0007114782929420471
91.53014000,91530140,0.0007114782929420471
91.53070500,91530705,0.0017756978049874306
91.53119500,91531195,0.0007114782929420471
91.53171600,91531716,0.0007114782929420471
91.53223900,91532239,0.0007114782929420471
91.53276500,91532765,0.0007114782929420471
91.53329800,91533298,0.0007114782929420471
91.53382000,91533820,0.0017756978049874306
91.53434300,91534343,0.0017756978049874306
91.53501400,91535014,0.0007114782929420471
91.53503400,91535034,0.0007114782929420471
91.53555100,91535551,0.0007114782929420471
91.53608100,91536081,0.0017756978049874306
91.53659900,91536599,0.0017756978049874306
91.53712200,91537122,0.0007114782929420471
91.53764500,91537645,0.002839917317032814
91.53820700,91538207,0.0007114782929420471
91.53870200,91538702,0.0007114782929420471
91.53922600,91539226,0.0039041368290781975
91.53974700,91539747,0.0017756978049874306
91.54027500,91540275,0.0007114782929420471
91.54080300,91540803,0.0039041368290781975
91.54132700,91541327,0.002839917317032814
91.54185300,91541853,0.0017756978049874306
91.54256200,91542562,0.0017756978049874306
91.54258200,91542582,0.0017756978049874306
91.54305600,91543056,0.0017756978049874306
91.54359100,91543591,0.0007114782929420471
91.54411000,91544110,0.0007114782929420471
91.54463300,91544633,0.0007114782929420471
91.54515400,91545154,0.0007114782929420471
91.54575400,91545754,0.0007114782929420471
91.54627300,91546273,0.0007114782929420471
91.54679700,91546797,0.0017756978049874306
91.54732700,91547327,0.0007114782929420471
91.54784800,91547848,-0.00035274121910333633
91.54853100,91548531,-0.00035274121910333633
91.54908000,91549080,0.0017756978049874306
91.54910000,91549100,0.0007114782929420471
91.54957400,91549574,-0.00035274121910333633
91.55009800,91550098,0.0007114782929420471
91.55062000,91550620,0.0017756978049874306
91.55115300,91551153,0.0017756978049874306
91.55167700,91551677,0.0039041368290781975
91.55220000,91552200,0.002839917317032814
91.55272200,91552722,0.0007114782929420471
91.55327400,91553274,0.0017756978049874306
91.55379700,91553797,0.0017756978049874306
91.55431700,91554317,0.0007114782929420471
91.55485200,91554852,0.0007114782929420471
91.55553200,91555532,0.0007114782929420471
91.55606300,91556063,0.002839917317032814
91.55658400,91556584,0.002839917317032814
91.55710800,91557108,0.0007114782929420471
91.55763200,91557632,-0.00035274121910333633
91.55820500,91558205,0.0007114782929420471
91.55822800,91558228,0.0007114782929420471
91.55868800,91558688,0.0007114782929420471
91.55920900,91559209,0.0017756978049874306
91.55973000,91559730,0.0017756978049874306
91.56025500,91560255,0.0017756978049874306
91.56078800,91560788,0.0007114782929420471
91.56134300,91561343,-0.0014169607311487198
91.56201200,91562012,0.0007114782929420471
91.56254300,91562543,0.002839917317032814
91.56306300,91563063,0.0007114782929420471
91.56359700,91563597,0.0017756978049874306
91.56412000,91564120,0.0017756978049874306
91.56464100,91564641,-0.00035274121910333633
91.56516900,91565169,-0.00035274121910333633
91.56577800,91565778,-0.00035274121910333633
91.56579900,91565799,0.0007114782929420471
91.56628500,91566285,0.0017756978049874306
91.56680400,91566804,-0.00035274121910333633
91.56733600,91567336,-0.00035274121910333633
91.56793300,91567933,0.0007114782929420471
91.56855800,91568558,0.0017756978049874306
91.56908300,91569083,0.0007114782929420471
91.56960500,91569605,0.0007114782929420471
91.57012800,91570128,0.0017756978049874306
91.57070500,91570705,0.002839917317032814
91.57117900,91571179,0.0017756978049874306
91.57169800,91571698,0.0007114782929420471
91.57222000,91572220,-0.00035274121910333633
91.57274300,91572743,0.0017756978049874306
91.57327600,91573276,0.0007114782929420471
91.57383600,91573836,0.0017756978049874306
91.57431900,91574319,0.0017756978049874306
91.57487800,91574878,0.0007114782929420471
91.57489800,91574898,0.0017756978049874306
91.57553200,91575532,-0.00035274121910333633
91.57607000,91576070,0.0007114782929420471
91.57659900,91576599,0.0017756978049874306
91.57712200,91577122,0.0017756978049874306
91.57764300,91577643,0.0007114782929420471
91.57820500,91578205,-0.00035274121910333633
91.57869700,91578697,0.0017756978049874306
91.57922300,91579223,0.002839917317032814
91.57974300,91579743,0.0017756978049874306
91.58026800,91580268,0.0017756978049874306
91.58080100,91580801,0.0017756978049874306
91.58132800,91581328,0.0017756978049874306
91.58184900,91581849,0.0017756978049874306
91.58254500,91582545,0.0007114782929420471
91.58256400,91582564,0.0007114782929420471
91.58304200,91583042,0.0007114782929420471
91.58359300,91583593,0.0007114782929420471
91.58411400,91584114,0.0017756978049874306
91.58463500,91584635,-0.00035274121910333633
91.58516000,91585160,-0.00035274121910333633
91.58574700,91585747,0.0017756978049874306
91.58627100,91586271,0.0007114782929420471
91.58679300,91586793,0.0007114782929420471
91.58732300,91587323,0.0017756978049874306
91.58784900,91587849,0.0007114782929420471
91.58858100,91588581,-0.00035274121910333633
91.58860100,91588601,-0.00035274121910333633
91.58908400,91589084,0.0017756978049874306
91.58962100,91589621,0.002839917317032814
91.59014200,91590142,0.002839917317032814
91.59071400,91590714,0.0017756978049874306
91.59119300,91591193,0.0007114782929420471
91.59172000,91591720,0.0007114782929420471
91.59224600,91592246,0.0007114782929420471
91.59276800,91592768,0.0007114782929420471
91.59330100,91593301,0.0007114782929420471
91.59382200,91593822,0.0007114782929420471
91.59434300,91594343,0.0017756978049874306
91.59501300,91595013,0.002839917317032814
91.59553400,91595534,0.0017756978049874306
91.59606500,91596065,0.0017756978049874306
91.59661500,91596615,0.0017756978049874306
91.59663500,91596635,0.0017756978049874306
91.59711200,91597112,0.0017756978049874306
91.59763800,91597638,0.0007114782929420471
91.59820800,91598208,0.0017756978049874306
91.59868900,91598689,0.002839917317032814
91.59921200,91599212,0.002839917317032814
91.59973500,91599735,0.0017756978049874306
91.60026100,91600261,0.0007114782929420471
91.60079600,91600796,0.0007114782929420471
91.60131800,91601318,0.0017756978049874306
91.60184300,91601843,0.002839917317032814
91.60253400,91602534,0.002839917317032814
91.60306100,91603061,0.002839917317032814
91.60360300,91603603,0.002839917317032814
91.60413200,91604132,0.002839917317032814
91.60465500,91604655,0.0017756978049874306
91.60517700,91605177,0.0007114782929420471
91.60580400,91605804,0.0017756978049874306
91.60582400,91605824,0.0017756978049874306
91.60630300,91606303,-0.00035274121910333633
91.60682700,91606827,0.0007114782929420471
91.60735600,91607356,0.0017756978049874306
91.60803400,91608034,0.0007114782929420471
91.60856400,91608564,0.0017756978049874306
91.60908600,91609086,0.002839917317032814
91.60960900,91609609,-0.00035274121910333633
91.61013400,91610134,-0.00035274121910333633
91.61070700,91610707,0.002839917317032814
91.61118700,91611187,0.0017756978049874306
91.61170900,91611709,0.0017756978049874306
91.61223000,91612230,0.0017756978049874306
91.61275400,91612754,0.0017756978049874306
91.61331500,91613315,0.0007114782929420471
91.61333800,91613338,0.0007114782929420471
91.61383800,91613838,0.0007114782929420471
91.61441200,91614412,0.0007114782929420471
91.61504400,91615044,0.0007114782929420471
91.61556900,91615569,0.0017756978049874306
91.61609800,91616098,0.0007114782929420471
91.61662000,91616620,0.0007114782929420471
91.61714500,91617145,0.0007114782929420471
91.61766900,91617669,0.0017756978049874306
91.61825300,91618253,0.0007114782929420471
91.61877900,91618779,0.0007114782929420471
91.61929800,91619298,-0.00035274121910333633
91.61983600,91619836,-0.00035274121910333633
91.62038000,91620380,0.0007114782929420471
91.62040000,91620400,-0.00035274121910333633
91.62105800,91621058,0.0007114782929420471
91.62157500,91621575,0.0039041368290781975
91.62210000,91622100,0.0017756978049874306
91.62262000,91622620,-0.00035274121910333633
91.62320600,91623206,0.0007114782929420471
91.62367500,91623675,0.0007114782929420471
91.62419400,91624194,0.0017756978049874306
91.62471600,91624716,0.002839917317032814
91.62523900,91625239,0.002839917317032814
91.62578000,91625780,0.002839917317032814
91.62630300,91626303,0.002839917317032814
91.62683300,91626833,0.0007114782929420471
91.62735300,91627353,0.0007114782929420471
91.62804300,91628043,0.0007114782929420471
91.62806300,91628063,0.0007114782929420471
91.62855400,91628554,0.0007114782929420471
91.62907500,91629075,0.0007114782929420471
91.62959400,91629594,0.0017756978049874306
91.63012100,91630121,0.0007114782929420471
91.63070300,91630703,0.0017756978049874306
91.63117900,91631179,0.0017756978049874306
91.63169700,91631697,0.0007114782929420471
91.63221800,91632218,0.002839917317032814
91.63274300,91632743,0.0007114782929420471
91.63327600,91633276,-0.00035274121910333633
91.63379900,91633799,-0.00035274121910333633
91.63431900,91634319,0.0007114782929420471
91.63484900,91634849,0.0017756978049874306
91.63555700,91635557,0.0039041368290781975
91.63557700,91635577,0.002839917317032814
91.63606900,91636069,0.002839917317032814
91.63659500,91636595,0.0017756978049874306
91.63711600,91637116,0.0007114782929420471
91.63764000,91637640,-0.00035274121910333633
91.63821600,91638216,0.0007114782929420471
91.63869400,91638694,0.0007114782929420471
91.63922100,91639221,0.0007114782929420471
91.63974200,91639742,0.0007114782929420471
91.64026800,91640268,0.0007114782929420471
91.64079900,91640799,0.0007114782929420471
91.64135500,91641355,-0.00035274121910333633
91.64185300,91641853,0.0007114782929420471
91.64253500,91642535,0.0017756978049874306
91.64305800,91643058,0.002839917317032814
91.64358800,91643588,0.0017756978049874306
91.64411000,91644110,0.0007114782929420471
91.64465700,91644657,0.0017756978049874306
91.64467700,91644677,0.0017756978049874306
91.64516100,91645161,0.0007114782929420471
91.64575500,91645755,0.0017756978049874306
91.64627100,91646271,0.0017756978049874306
91.64679400,91646794,0.0017756978049874306
91.64732900,91647329,0.0017756978049874306
91.64785200,91647852,0.0017756978049874306
91.64855800,91648558,0.002839917317032814
91.64908300,91649083,0.0017756978049874306
91.64960200,91649602,0.0007114782929420471
91.65013100,91650131,0.0007114782929420471
91.65070700,91650707,-0.00035274121910333633
91.65119300,91651193,0.0017756978049874306
91.65173900,91651739,0.0017756978049874306
91.65176100,91651761,0.0007114782929420471
91.65224100,91652241,-0.00035274121910333633
91.65276400,91652764,-0.00035274121910333633
91.65329400,91653294,0.0007114782929420471
91.65382000,91653820,0.0017756978049874306
91.65434100,91654341,0.0007114782929420471
91.65504700,91655047,0.0017756978049874306
91.65557100,91655571,0.002839917317032814
91.65610300,91656103,0.0017756978049874306
91.65662200,91656622,0.0017756978049874306
91.65714400,91657144,0.0039041368290781975
91.65766800,91657668,0.002839917317032814
91.65826400,91658264,0.0017756978049874306
91.65878700,91658787,0.0017756978049874306
91.65933800,91659338,0.0017756978049874306
91.65936000,91659360,0.0007114782929420471
91.65983800,91659838,0.0007114782929420471
91.66040400,91660404,0.0007114782929420471
91.66106100,91661061,0.0017756978049874306
91.66158600,91661586,0.0007114782929420471
91.66210500,91662105,0.0007114782929420471
91.66263400,91662634,0.0017756978049874306
91.66320800,91663208,0.002839917317032814
91.66368500,91663685,0.0017756978049874306
91.66421100,91664211,0.002839917317032814
91.66472900,91664729,0.0007114782929420471
91.66525300,91665253,-0.00035274121910333633
91.66578400,91665784,0.0017756978049874306
91.66634900,91666349,0.0007114782929420471
91.66707100,91667071,-0.00035274121910333633
91.66709400,91667094,0.0017756978049874306
91.66757000,91667570,0.0007114782929420471
91.66809100,91668091,-0.0014169607311487198
91.66862400,91668624,0.0007114782929420471
91.66914100,91669141,0.0017756978049874306
91.66966300,91669663,0.0017756978049874306
91.67018800,91670188,0.0017756978049874306
91.67077000,91670770,0.0007114782929420471
91.67129700,91671297,0.0017756978049874306
91.67182100,91671821,0.0017756978049874306
91.67234900,91672349,0.0007114782929420471
91.67304000,91673040,0.0007114782929420471
91.67306000,91673060,0.0007114782929420471
91.67357000,91673570,0.0007114782929420471
91.67409400,91674094,0.0007114782929420471
91.67461400,91674614,0.0017756978049874306
91.67514000,91675140,0.0017756978049874306
91.67570800,91675708,0.002839917317032814
91.67619500,91676195,0.002839917317032814
91.67672200,91676722,0.0017756978049874306
91.67724700,91677247,0.002839917317032814
91.67777000,91677770,0.0017756978049874306
91.67830300,91678303,0.0007114782929420471
91.67882400,91678824,0.0017756978049874306
91.67934400,91679344,0.0007114782929420471
91.68001000,91680010,-0.00035274121910333633
91.68055900,91680559,0.0007114782929420471
91.68057900,91680579,0.0007114782929420471
91.68109300,91681093,0.0017756978049874306
91.68161200,91681612,0.002839917317032814
91.68213300,91682133,0.002839917317032814
91.68265800,91682658,0.002839917317032814
91.68325100,91683251,0.002839917317032814
91.68377400,91683774,0.0017756978049874306
91.68429300,91684293,0.0007114782929420471
91.68483100,91684831,0.0017756978049874306
91.68535000,91685350,0.0017756978049874306
91.68612200,91686122,0.0017756978049874306
91.68614200,91686142,-0.00035274121910333633
91.68662400,91686624,0.0007114782929420471
91.68714400,91687144,0.002839917317032814
91.68766600,91687666,0.0017756978049874306
91.68825500,91688255,0.0007114782929420471
91.68878800,91688788,0.002839917317032814
91.68931000,91689310,0.0007114782929420471
91.68983100,91689831,0.0007114782929420471
91.69041200,91690412,0.0017756978049874306
91.69105500,91691055,0.0017756978049874306
91.69157800,91691578,0.002839917317032814
91.69210000,91692100,0.002839917317032814
91.69262700,91692627,0.0017756978049874306
91.69320400,91693204,0.0007114782929420471
91.69370400,91693704,0.0017756978049874306
91.69372500,91693725,0.0007114782929420471
91.69420000,91694200,-0.00035274121910333633
91.69472100,91694721,0.0007114782929420471
91.69524700,91695247,0.0007114782929420471
91.69577600,91695776,0.0007114782929420471
91.69630600,91696306,0.0017756978049874306
91.69682400,91696824,0.0039041368290781975
91.69735600,91697356,0.0039041368290781975
91.69801000,91698010,0.0017756978049874306
91.69855700,91698557,-0.00035274121910333633
91.69908200,91699082,0.0007114782929420471
91.69960200,91699602,0.002839917317032814
91.70012900,91700129,-0.00035274121910333633
91.70070800,91700708,-0.00035274121910333633
91.70118900,91701189,0.002839917317032814
91.70171200,91701712,0.0007114782929420471
91.70223400,91702234,0.0007114782929420471
91.70276000,91702760,0.0017756978049874306
91.70333600,91703336,0.0017756978049874306
91.70335700,91703357,0.002839917317032814
91.70381200,91703812,0.0017756978049874306
91.70433600,91704336,0.0007114782929420471
91.70491600,91704916,0.0007114782929420471
91.70553900,91705539,0.002839917317032814
91.70607000,91706070,0.002839917317032814
91.70659400,91706594,0.0017756978049874306
91.70711300,91707113,0.0007114782929420471
91.70763800,91707638,-0.00035274121910333633
91.70820500,91708205,0.0017756978049874306
91.70869800,91708698,0.002839917317032814
91.70921500,91709215,0.0017756978049874306
91.70974000,91709740,0.0007114782929420471
91.71026300,91710263,-0.00035274121910333633
91.71080000,91710800,0.0017756978049874306
91.71132400,91711324,-0.0014169607311487198
91.71184700,91711847,-0.0014169607311487198
91.71251300,91712513,0.002839917317032814
91.71253600,91712536,0.002839917317032814
91.71305300,91713053,0.0007114782929420471
91.71358700,91713587,0.0017756978049874306
91.71411200,91714112,0.0007114782929420471
91.71463200,91714632,0.0007114782929420471
91.71515800,91715158,0.0007114782929420471
91.71574400,91715744,0.0017756978049874306
91.71626900,91716269,0.0017756978049874306
91.71679900,91716799,0.0007114782929420471
91.71733400,91717334,0.0017756978049874306
91.71785000,91717850,0.0007114782929420471
91.71855200,91718552,0.0017756978049874306
91.71857200,91718572,0.0017756978049874306
91.71904700,91719047,0.0017756978049874306
91.71956600,91719566,0.0017756978049874306
91.72009100,91720091,0.0007114782929420471
91.72061400,91720614,0.0007114782929420471
91.72115000,91721150,-0.00035274121910333633
91.72167100,91721671,0.0007114782929420471
91.72219200,91722192,0.0017756978049874306
91.72271700,91722717,0.0007114782929420471
91.72326800,91723268,-0.00035274121910333633
91.72379500,91723795,0.0017756978049874306
91.72431500,91724315,0.0017756978049874306
91.72484700,91724847,0.0017756978049874306
91.72548300,91725483,0.0017756978049874306
91.72609000,91726090,0.0007114782929420471
91.72611000,91726110,0.0017756978049874306
91.72658700,91726587,0.0017756978049874306
91.72710900,91727109,0.0017756978049874306
91.72763200,91727632,0.0007114782929420471
91.72820700,91728207,0.0007114782929420471
91.72869500,91728695,0.0007114782929420471
91.72921900,91729219,0.0007114782929420471
91.72974200,91729742,0.0007114782929420471
91.73026700,91730267,0.0007114782929420471
91.73080000,91730800,0.0007114782929420471
91.73134900,91731349,-0.00035274121910333633
91.73184500,91731845,-0.00035274121910333633
91.73251600,91732516,-0.0014169607311487198
91.73303600,91733036,0.0007114782929420471
91.73356800,91733568,0.002839917317032814
91.73409500,91734095,0.0007114782929420471
91.73461500,91734615,0.0017756978049874306
91.73514300,91735143,0.0007114782929420471
91.73570700,91735707,-0.00035274121910333633
91.73572800,91735728,-0.00035274121910333633
91.73619500,91736195,0.0007114782929420471
91.73671500,91736715,0.0007114782929420471
91.73724000,91737240,0.0007114782929420471
91.73776300,91737763,-0.00035274121910333633
91.73829800,91738298,0.0017756978049874306
91.73882000,91738820,0.0017756978049874306
91.73934300,91739343,0.0017756978049874306
91.74001700,91740017,0.0007114782929420471
91.74054600,91740546,0.0007114782929420471
91.74108800,91741088,0.0017756978049874306
91.74160500,91741605,0.0007114782929420471
91.74212600,91742126,0.0017756978049874306
91.74264900,91742649,0.002839917317032814
91.74324100,91743241,0.002839917317032814
91.74370300,91743703,0.0017756978049874306
91.74422500,91744225,0.0017756978049874306
91.74474700,91744747,-0.00035274121910333633
91.74529500,91745295,-0.0024811802431941032
91.74531500,91745315,0.0007114782929420471
91.74580900,91745809,0.0017756978049874306
91.74633100,91746331,0.0007114782929420471
91.74685100,91746851,0.0039041368290781975
91.74752500,91747525,0.002839917317032814
91.74804500,91748045,-0.0014169607311487198
91.74858500,91748585,-0.00035274121910333633
91.74911100,91749111,0.0007114782929420471
91.74963000,91749630,0.0007114782929420471
91.75015500,91750155,0.0017756978049874306
91.75074600,91750746,0.002839917317032814
91.75120900,91751209,0.0017756978049874306
91.75173900,91751739,0.0007114782929420471
91.75225500,91752255,-0.00035274121910333633
91.75278100,91752781,-0.0014169607311487198
91.75331200,91753312,-0.00035274121910333633
91.75387200,91753872,-0.00035274121910333633
91.75443200,91754432,0.0007114782929420471
91.75445500,91754455,0.0007114782929420471
91.75503700,91755037,0.0007114782929420471
91.75555900,91755559,0.002839917317032814
91.75609000,91756090,0.002839917317032814
91.75661000,91756610,0.0007114782929420471
91.75713500,91757135,0.0017756978049874306
91.75765600,91757656,0.0017756978049874306
91.75824700,91758247,0.0007114782929420471
91.75877000,91758770,0.0017756978049874306
91.75929500,91759295,0.0017756978049874306
91.75981700,91759817,0.0017756978049874306
91.76034300,91760343,-0.00035274121910333633
91.76105500,91761055,-0.00035274121910333633
91.76107700,91761077,-0.00035274121910333633
91.76154900,91761549,0.0007114782929420471
91.76207300,91762073,0.002839917317032814
91.76259500,91762595,0.0017756978049874306
91.76312000,91763120,0.0017756978049874306
91.76365300,91763653,0.0007114782929420471
91.76417800,91764178,0.0007114782929420471
91.76469800,91764698,0.0017756978049874306
91.76522700,91765227,0.0017756978049874306
91.76576800,91765768,0.0007114782929420471
91.76630200,91766302,-0.0014169607311487198
91.76681900,91766819,-0.0014169607311487198
91.76735000,91767350,0.0007114782929420471
91.76807200,91768072,0.0017756978049874306
91.76809300,91768093,-0.00035274121910333633
91.76857700,91768577,-0.00035274121910333633
91.76910300,91769103,0.0017756978049874306
91.76962200,91769622,-0.0014169607311487198
91.77015400,91770154,-0.00035274121910333633
91.77074200,91770742,0.002839917317032814
91.77121000,91771210,0.0017756978049874306
91.77173200,91771732,0.0007114782929420471
91.77225400,91772254,0.0007114782929420471
91.77277600,91772776,0.002839917317032814
91.77331100,91773311,0.0017756978049874306
91.77383500,91773835,-0.00035274121910333633
91.77441200,91774412,-0.00035274121910333633
91.77503800,91775038,-0.00035274121910333633
91.77556600,91775566,-0.00035274121910333633
91.77610000,91776100,-0.00035274121910333633
91.77665000,91776650,0.0007114782929420471
91.77667100,91776671,0.002839917317032814
91.77714300,91777143,0.002839917317032814
91.77766800,91777668,0.0017756978049874306
91.77825600,91778256,0.0017756978049874306
91.77878200,91778782,0.0007114782929420471
91.77930300,91779303,0.0007114782929420471
91.77983100,91779831,0.0017756978049874306
91.78035300,91780353,0.0017756978049874306
91.78106600,91781066,0.0017756978049874306
91.78159600,91781596,0.002839917317032814
91.78211600,91782116,0.002839917317032814
91.78263900,91782639,0.0017756978049874306
91.78320800,91783208,0.0007114782929420471
91.78371800,91783718,0.0007114782929420471
91.78373800,91783738,0.0007114782929420471
91.78421100,91784211,0.0007114782929420471
91.78473300,91784733,0.0007114782929420471
91.78525600,91785256,0.0007114782929420471
91.78579300,91785793,0.0017756978049874306
91.78631700,91786317,0.002839917317032814
91.78684000,91786840,0.002839917317032814
91.78744400,91787444,0.0017756978049874306
91.78803600,91788036,0.0017756978049874306
91.78857000,91788570,-0.00035274121910333633
91.78909500,91789095,-0.0014169607311487198
91.78961900,91789619,-0.00035274121910333633
91.79014100,91790141,0.0017756978049874306
91.79070700,91790707,0.0017756978049874306
91.79119500,91791195,0.0017756978049874306
91.79171700,91791717,0.002839917317032814
91.79223900,91792239,0.002839917317032814
91.79276700,91792767,0.0007114782929420471
91.79329800,91793298,0.0007114782929420471
91.79385300,91793853,0.0017756978049874306
91.79387400,91793874,0.0017756978049874306
91.79434900,91794349,0.002839917317032814
91.79503500,91795035,0.002839917317032814
91.79555700,91795557,0.0017756978049874306
91.79608900,91796089,0.0007114782929420471
91.79661500,91796615,0.002839917317032814
91.79713400,91797134,0.002839917317032814
91.79765700,91797657,0.0007114782929420471
91.79824900,91798249,0.0007114782929420471
91.79877000,91798770,0.0017756978049874306
91.79928800,91799288,0.002839917317032814
91.79981500,91799815,0.0017756978049874306
91.80033400,91800334,-0.00035274121910333633
91.80099100,91800991,-0.00035274121910333633
91.80101200,91801012,-0.00035274121910333633
91.80154700,91801547,0.0007114782929420471
91.80206800,91802068,0.002839917317032814
91.80259800,91802598,0.0017756978049874306
91.80312000,91803120,-0.00035274121910333633
91.80366500,91803665,0.002839917317032814
91.80419000,91804190,0.002839917317032814
91.80470900,91804709,-0.00035274121910333633
91.80523600,91805236,-0.00035274121910333633
91.80577300,91805773,-0.00035274121910333633
91.80629900,91806299,-0.00035274121910333633
91.80681700,91806817,-0.00035274121910333633
91.80734300,91807343,0.0007114782929420471
91.80803400,91808034,0.0017756978049874306
91.80805300,91808053,0.0017756978049874306
91.80855100,91808551,0.0007114782929420471
91.80907300,91809073,0.0007114782929420471
91.80959700,91809597,0.0017756978049874306
91.81011900,91810119,0.0007114782929420471
91.81070700,91810707,0.0017756978049874306
91.81117500,91811175,0.0017756978049874306
91.81170200,91811702,0.0017756978049874306
91.81222400,91812224,0.0017756978049874306
91.81274900,91812749,0.0017756978049874306
91.81328300,91813283,0.0007114782929420471
91.81381200,91813812,0.0007114782929420471
91.81432700,91814327,0.0017756978049874306
91.81484900,91814849,-0.00035274121910333633
91.81553800,91815538,-0.00035274121910333633
91.81609700,91816097,0.002839917317032814
91.81611700,91816117,0.0007114782929420471
91.81659300,91816593,-0.0014169607311487198
91.81711600,91817116,-0.00035274121910333633
91.81764200,91817642,-0.00035274121910333633
91.81820500,91818205,-0.00035274121910333633
91.81869000,91818690,0.0007114782929420471
91.81921300,91819213,0.0017756978049874306
91.81974400,91819744,0.0007114782929420471
91.82026000,91820260,0.0017756978049874306
91.82080000,91820800,0.0017756978049874306
91.82135600,91821356,0.0017756978049874306
91.82184300,91821843,0.0017756978049874306
91.82241600,91822416,0.0017756978049874306
91.82303500,91823035,0.0007114782929420471
91.82356700,91823567,0.002839917317032814
91.82411500,91824115,0.002839917317032814
91.82460700,91824607,0.002839917317032814
91.82513400,91825134,0.0017756978049874306
91.82571100,91825711,0.0007114782929420471
91.82621300,91826213,0.002839917317032814
91.82623400,91826234,0.002839917317032814
91.82671200,91826712,0.0007114782929420471
91.82723300,91827233,0.0007114782929420471
91.82776200,91827762,0.0017756978049874306
91.82828900,91828289,0.0007114782929420471
91.82881500,91828815,0.0017756978049874306
91.82933800,91829338,0.0017756978049874306
91.83004600,91830046,0.0017756978049874306
91.83056300,91830563,0.0017756978049874306
91.83109800,91831098,0.002839917317032814
91.83161500,91831615,0.0017756978049874306
91.83213700,91832137,0.0007114782929420471
91.83266400,91832664,0.0017756978049874306
91.83325300,91833253,0.0017756978049874306
91.83379900,91833799,0.0017756978049874306
91.83382400,91833824,0.0017756978049874306
91.83429500,91834295,0.0017756978049874306
91.83483100,91834831,0.0017756978049874306
91.83534700,91835347,0.0007114782929420471
91.83605500,91836055,0.0007114782929420471
91.83657600,91836576,0.0017756978049874306
91.83710000,91837100,0.0017756978049874306
91.83762300,91837623,0.0007114782929420471
91.83820700,91838207,0.0017756978049874306
91.83868200,91838682,0.0017756978049874306
91.83920200,91839202,-0.00035274121910333633
91.83972400,91839724,0.0007114782929420471
91.84025100,91840251,0.0017756978049874306
91.84077900,91840779,0.0017756978049874306
91.84130300,91841303,0.0007114782929420471
91.84182900,91841829,0.0007114782929420471
91.84237500,91842375,0.0017756978049874306
91.84239400,91842394,0.002839917317032814
91.84304000,91843040,0.0017756978049874306
91.84357900,91843579,0.0017756978049874306
91.84409800,91844098,0.0017756978049874306
91.84461700,91844617,0.0017756978049874306
91.84513900,91845139,0.0007114782929420471
91.84570800,91845708,-0.00035274121910333633
91.84619600,91846196,-0.00035274121910333633
91.84671700,91846717,0.0007114782929420471
91.84723700,91847237,0.0007114782929420471
91.84776500,91847765,0.0007114782929420471
91.84829900,91848299,0.0017756978049874306
91.84882400,91848824,0.0007114782929420471
91.84934200,91849342,0.0017756978049874306
91.85006200,91850062,0.002839917317032814
91.85008200,91850082,0.0007114782929420471
91.85055800,91850558,0.0007114782929420471
91.85108900,91851089,0.0017756978049874306
91.85161300,91851613,0.0017756978049874306
91.85213400,91852134,0.0007114782929420471
91.85266300,91852663,0.0007114782929420471
91.85324700,91853247,0.0007114782929420471
91.85378100,91853781,-0.00035274121910333633
91.85430300,91854303,-0.00035274121910333633
91.85482800,91854828,0.0017756978049874306
91.85534900,91855349,0.002839917317032814
91.85606100,91856061,0.0017756978049874306
91.85608300,91856083,0.0017756978049874306
91.85655400,91856554,0.0017756978049874306
91.85707800,91857078,0.0017756978049874306
91.85760200,91857602,0.0007114782929420471
91.85819200,91858192,0.0017756978049874306
91.85867000,91858670,0.0007114782929420471
91.85918600,91859186,-0.0024811802431941032
91.85970800,91859708,0.0007114782929420471
91.86023300,91860233,0.0017756978049874306
91.86078000,91860780,0.0007114782929420471
91.86130000,91861300,0.0017756978049874306
91.86182500,91861825,0.0017756978049874306
91.86235300,91862353,0.0017756978049874306
91.86303200,91863032,0.0017756978049874306
91.86356400,91863564,0.0007114782929420471
91.86409100,91864091,0.0017756978049874306
91.86463600,91864636,0.0017756978049874306
91.86465600,91864656,0.0017756978049874306
91.86513400,91865134,0.0017756978049874306
91.86570400,91865704,0.0017756978049874306
91.86619100,91866191,0.0007114782929420471
91.86670900,91866709,-0.00035274121910333633
91.86723300,91867233,-0.00035274121910333633
91.86775500,91867755,0.0007114782929420471
