timestamp,TimeUS,I,GyrX,GyrY,GyrZ,AccX,AccY,AccZ,EG,EA,T,GH,AH,GHz,AHz
89.13216800,89132168,1,0.002830269280821085,-1.317192436545156e-05,0.00033349954173900187,-0.49128293991088867,-0.1503673642873764,-9.95030689239502,0,0,44.0,1,1,1995,2060
89.13397100,89133971,1,0.0025545605458319187,-0.00033954379614442587,0.00028850260423496366,-0.49546945095062256,-0.15036450326442719,-9.96073055267334,0,0,44.0,1,1,1995,2060
89.13622700,89136227,1,0.002034758450463414,-0.0004712699737865478,0.00038691647932864726,-0.4982488751411438,-0.14958250522613525,-9.972909927368164,0,0,44.0,1,1,1995,2060
89.13867700,89138677,1,0.001620805007405579,-3.435665712459013e-05,-0.00018116565479431301,-0.5011992454528809,-0.14858859777450562,-9.981051445007324,0,0,44.0,1,1,1995,2060
89.14142000,89141420,1,0.0014123711735010147,-0.00010172802285524085,-0.0007685028831474483,-0.5017195343971252,-0.14532780647277832,-9.983561515808105,0,0,44.0,1,1,1995,2060
89.14368800,89143688,1,0.0008766102255322039,-0.000333236763253808,-0.00022458347666542977,-0.5030367374420166,-0.13850289583206177,-9.98861026763916,0,0,44.0,1,1,1995,2060
89.14646800,89146468,1,0.0006054214900359511,-0.0005932411295361817,0.00013607832079287618,-0.503541886806488,-0.13165314495563507,-9.994645118713379,0,0,44.0,1,1,1995,2060
89.14886700,89148867,1,0.00076552719110623,-0.0012824676232412457,-0.00016178697114810348,-0.5024513602256775,-0.12887483835220337,-9.998945236206055,0,0,44.0,1,1,1995,2060
89.15119100,89151191,1,0.00045186487841419876,-0.001310394611209631,-0.00014323974028229713,-0.5026812553405762,-0.1294216811656952,-9.994702339172363,0,0,44.0,1,1,1995,2060
89.15390900,89153909,1,4.9833972298074514e-05,-0.0011655547423288226,-0.00042177148861810565,-0.5022191405296326,-0.1311938762664795,-9.993550300598145,0,0,44.0,1,1,1995,2060
89.15621600,89156216,1,5.4609135986538604e-05,-0.0008838886278681457,-0.0006513322005048394,-0.4988132417201996,-0.13442577421665192,-9.99145221710205,0,0,44.0,1,1,1995,2060
89.15889900,89158899,1,0.000221701615373604,-0.0001273125526495278,-0.00043867240310646594,-0.4917135536670685,-0.13840487599372864,-9.98702335357666,0,0,44.0,1,1,1995,2060
89.16118400,89161184,1,0.0002906691515818238,0.0007156156352721155,-0.00014049273158889264,-0.48319971561431885,-0.14294734597206116,-9.978025436401367,0,0,44.0,1,1,1995,2060
89.16365700,89163657,1,0.0006119189201854169,0.0008030588505789638,-5.473056444316171e-05,-0.4776584506034851,-0.1436535269021988,-9.967020988464355,0,0,44.0,1,1,1995,2060
89.16642200,89166422,1,0.0011166326003149152,-9.4726296083536e-05,-0.0004534776380751282,-0.47683167457580566,-0.1395445019006729,-9.959877014160156,0,0,44.0,1,1,1995,2060
89.16874300,89168743,1,0.0009750748286023736,-0.00028743172879330814,-0.0004281611181795597,-0.48011693358421326,-0.1372092366218567,-9.958646774291992,0,0,44.0,1,1,1995,2060
89.17141600,89171416,1,0.0006134654977358878,0.00011693083069985732,-0.00012721733946818858,-0.48479196429252625,-0.13565249741077423,-9.958500862121582,0,0,44.0,1,1,1995,2060
89.17368700,89173687,1,0.00017115010996349156,0.00027291104197502136,-0.0003935113491024822,-0.49072226881980896,-0.13264767825603485,-9.958850860595703,0,0,44.0,1,1,1995,2060
89.17618500,89176185,1,9.611197310732678e-05,0.0003715555358212441,-0.00041505665285512805,-0.49265632033348083,-0.1331179141998291,-9.959827423095703,0,0,44.0,1,1,1995,2060
89.17889700,89178897,1,0.0003046070341952145,-0.0001805173815228045,1.303767476201756e-05,-0.49599912762641907,-0.13613325357437134,-9.961386680603027,0,0,44.0,1,1,1995,2060
89.18117500,89181175,1,0.0010954218450933695,-0.0007882265490479767,0.0004618112579919398,-0.4982040226459503,-0.14029665291309357,-9.962726593017578,0,0,44.0,1,1,1995,2060
89.18411300,89184113,1,0.0014085356378927827,-0.0014428398571908474,0.0004989145672880113,-0.495970219373703,-0.140986368060112,-9.962339401245117,0,0,44.0,1,1,1995,2060
89.18617400,89186174,1,0.001350777572952211,-0.002138076350092888,0.00038035906618461013,-0.4943479895591736,-0.13981860876083374,-9.962163925170898,0,0,44.0,1,1,1995,2060
89.18874700,89188747,1,0.0013498264597728848,-0.002290048636496067,0.0003747972077690065,-0.4904579818248749,-0.1385391652584076,-9.959625244140625,0,0,44.0,1,1,1995,2060
89.19169700,89191697,1,0.0015359343960881233,-0.002468727296218276,0.0003413803642615676,-0.4890749454498291,-0.13816261291503906,-9.96127700805664,0,0,44.0,1,1,1995,2060
89.19372600,89193726,1,0.0018517477437853813,-0.003118493128567934,0.0003656976914498955,-0.48983266949653625,-0.13935892283916473,-9.966996192932129,0,0,44.0,1,1,1995,2060
89.19656000,89196560,1,0.0019070690032094717,-0.0028671533800661564,0.0008499353425577283,-0.4892260730266571,-0.14316426217556,-9.970062255859375,0,0,44.0,1,1,1995,2060
89.19870800,89198708,1,0.0015858084661886096,-0.0022374012041836977,0.0008128292392939329,-0.4873187243938446,-0.14825274050235748,-9.97064208984375,0,0,44.0,1,1,1995,2060
89.20115900,89201159,1,0.0015777101507410407,-0.0011490453034639359,0.000580012274440378,-0.48686861991882324,-0.1511220484972,-9.972166061401367,0,0,44.0,1,1,1995,2060
89.20392100,89203921,1,0.0017646203050389886,-0.0006697486387565732,-3.368793477420695e-05,-0.4850950837135315,-0.1522127091884613,-9.971723556518555,0,0,44.0,1,1,1995,2060
89.20622700,89206227,1,0.0023622396402060986,6.762985867680982e-05,-0.0003430302895139903,-0.4841136038303375,-0.15268667042255402,-9.967794418334961,0,0,44.0,1,1,1995,2060
89.20891500,89208915,1,0.0024317537900060415,0.0016179656377062201,-0.0003358957474119961,-0.48328259587287903,-0.1514391154050827,-9.962336540222168,0,0,44.0,1,1,1995,2060
89.21119300,89211193,1,0.002745362464338541,0.001822158694267273,-0.0003059951704926789,-0.4862214922904968,-0.14840999245643616,-9.957765579223633,0,0,44.0,1,1,1995,2060
89.21368300,89213683,1,0.0026216390542685986,0.0022921611089259386,-0.00034428536309860647,-0.4874386787414551,-0.14708395302295685,-9.950980186462402,0,0,44.0,1,1,1995,2060
89.21640000,89216400,1,0.0026298684533685446,0.0024673433508723974,-0.00036025483859702945,-0.488256573677063,-0.14490704238414764,-9.943700790405273,0,0,44.0,1,1,1995,2060
89.21872200,89218722,1,0.002839102176949382,0.0025312118232250214,-0.0005277764284983277,-0.4865739047527313,-0.1408170461654663,-9.938666343688965,0,0,44.0,1,1,1995,2060
89.22137500,89221375,1,0.0021639226470142603,0.0031819127034395933,-0.0005437168292701244,-0.48530420660972595,-0.13855665922164917,-9.935593605041504,0,0,44.0,1,1,1995,2060
89.22369400,89223694,1,0.0014314526924863458,0.003152623539790511,-0.00048366954433731735,-0.487053781747818,-0.13766199350357056,-9.938072204589844,0,0,44.0,1,1,1995,2060
89.22617000,89226170,1,0.00037992786383256316,0.0028095466550439596,-0.00033736854675225914,-0.486759215593338,-0.13713738322257996,-9.943001747131348,0,0,44.0,1,1,1995,2060
89.22892200,89228922,1,-0.0008057269151322544,0.001813559327274561,5.0157930672867224e-05,-0.48809048533439636,-0.1375977247953415,-9.9502534866333,0,0,44.0,1,1,1995,2060
89.23193600,89231936,1,-0.0010905249509960413,0.0010198670206591487,0.00010457322787260637,-0.48966675996780396,-0.13843519985675812,-9.960355758666992,0,0,44.0,1,1,1995,2060
89.23388600,89233886,1,-0.0010908154072239995,0.0004939360660500824,0.00033473953953944147,-0.48854222893714905,-0.13824047148227692,-9.963372230529785,0,0,44.0,1,1,1995,2060
89.23612700,89236127,1,-0.0007686075405217707,0.00038058278732933104,2.1407158783404157e-05,-0.4884125888347626,-0.1383216381072998,-9.968832015991211,0,0,44.0,1,1,1995,2060
89.23863700,89238637,1,-0.0005124423187226057,-0.00020318353199400008,0.0007230766932480037,-0.48998042941093445,-0.1375369131565094,-9.973953247070312,0,0,44.0,1,1,1995,2060
89.24127600,89241276,1,-0.0002967512991745025,-0.0007037422037683427,0.0010942445369437337,-0.49007731676101685,-0.13884611427783966,-9.979004859924316,0,0,44.0,1,1,1995,2060
89.24363000,89243630,1,-0.000369256769772619,-0.0008736594463698566,0.0011689523234963417,-0.4895603358745575,-0.140773206949234,-9.984752655029297,0,0,44.0,1,1,1995,2060
89.24634200,89246342,1,4.812298357137479e-05,-0.0017171275103464723,0.0009939898736774921,-0.4856349229812622,-0.14230726659297943,-9.98819637298584,0,0,44.0,1,1,1995,2060
89.24872400,89248724,1,0.0006065109628252685,-0.0021789923775941133,0.0013367027277126908,-0.4840666353702545,-0.14435862004756927,-9.988447189331055,0,0,44.0,1,1,1995,2060
89.25115500,89251155,1,0.0014329898403957486,-0.0017416153568774462,0.0010616639629006386,-0.48619815707206726,-0.14651817083358765,-9.984880447387695,0,0,44.0,1,1,1995,2060
89.25377500,89253775,1,0.0014544883742928505,-0.00137389509472996,0.001148437731899321,-0.4890615940093994,-0.14638173580169678,-9.980905532836914,0,0,44.0,1,1,1995,2060
89.25615900,89256159,1,0.0016400048043578863,-0.0006613695295527577,0.0009634089656174183,-0.49122002720832825,-0.14197775721549988,-9.979020118713379,0,0,44.0,1,1,1995,2060
89.25877700,89258777,1,0.0014619197463616729,-0.0009145651129074395,0.0008958649705164135,-0.4950706660747528,-0.13779279589653015,-9.976143836975098,0,0,44.0,1,1,1995,2060
89.26113700,89261137,1,0.0007797344005666673,-0.0013245103182271123,0.0011021587997674942,-0.49324846267700195,-0.13279978930950165,-9.972600936889648,0,0,44.0,1,1,1995,2060
89.26362600,89263626,1,0.0005542355356737971,-0.001753952819854021,0.0009949126979336143,-0.4901542067527771,-0.13199925422668457,-9.967304229736328,0,0,44.0,1,1,1995,2060
89.26630600,89266306,1,0.000565746973734349,-0.001780206337571144,0.0011130626080557704,-0.48750823736190796,-0.1350306272506714,-9.963301658630371,0,0,44.0,1,1,1995,2060
89.26871500,89268715,1,0.0006993169663473964,-0.0015863861190155149,0.0006042022723704576,-0.4816981256008148,-0.14190903306007385,-9.961368560791016,0,0,44.0,1,1,1995,2060
89.27130700,89271307,1,0.0010299705900251865,-0.0011758838081732392,0.0007371188839897513,-0.4802778363227844,-0.14513806998729706,-9.95919418334961,0,0,44.0,1,1,1995,2060
89.27363600,89273636,1,0.0011608193162828684,-0.0008425607229582965,0.00024345950805582106,-0.4829794466495514,-0.14457330107688904,-9.957777976989746,0,0,44.0,1,1,1995,2060
89.27614300,89276143,1,0.0011396064655855298,-0.0005498605314642191,0.0003280144592281431,-0.4876192510128021,-0.1443079113960266,-9.956974029541016,0,0,44.0,1,1,1995,2060
89.27887600,89278876,1,0.000997475697658956,-0.00017085805302485824,0.00035981880500912666,-0.489457905292511,-0.14201892912387848,-9.95603084564209,0,0,44.0,1,1,1995,2060
89.28113800,89281138,1,0.0013092212611809373,0.0010324864415451884,7.378027657978237e-05,-0.49117258191108704,-0.14006026089191437,-9.9515380859375,0,0,44.0,1,1,1995,2060
89.28403600,89284036,1,0.0014695058343932033,0.001386731513775885,-0.0003004589525517076,-0.49202215671539307,-0.1374976933002472,-9.950085639953613,0,0,44.0,1,1,1995,2060
89.28614300,89286143,1,0.0015797705855220556,0.0011493484489619732,-0.00029604166047647595,-0.4902523458003998,-0.13561764359474182,-9.94930648803711,0,0,44.0,1,1,1995,2060
89.28864000,89288640,1,0.0014042197726666927,0.0008757946197874844,-0.00024410051992163062,-0.4906764030456543,-0.136897474527359,-9.951021194458008,0,0,44.0,1,1,1995,2060
89.29162100,89291621,1,0.0010306108742952347,0.0009279160294681787,0.00022147716663312167,-0.4912409782409668,-0.13969029486179352,-9.95649242401123,0,0,44.0,1,1,1995,2060
89.29361700,89293617,1,0.0006698935176245868,0.0012379484251141548,0.0002909582981374115,-0.4936871826648712,-0.1416579782962799,-9.96092414855957,0,0,44.0,1,1,1995,2060
89.29645500,89296455,1,0.00028824477340094745,0.0013423942727968097,-2.5710724003147334e-05,-0.49445345997810364,-0.14300484955310822,-9.960076332092285,0,0,44.0,1,1,1995,2060
89.29863400,89298634,1,-1.1996444300166331e-05,0.0009154700092040002,-0.00022100983187556267,-0.49506622552871704,-0.14330868422985077,-9.956216812133789,0,0,44.0,1,1,1995,2060
89.30114700,89301147,1,6.969783862587065e-05,0.0006390099297277629,-0.000327188812661916,-0.49465641379356384,-0.14636211097240448,-9.95516586303711,0,0,44.0,1,1,1995,2060
89.30393200,89303932,1,-0.0006227472913451493,0.0005688515957444906,-0.0008304099319502711,-0.4945722818374634,-0.14908413589000702,-9.955743789672852,0,0,44.0,1,1,1995,2060
89.30610900,89306109,1,-0.0014354870654642582,0.0006482740282081068,-0.0010473774746060371,-0.4976532757282257,-0.14670658111572266,-9.958159446716309,0,0,44.0,1,1,1995,2060
89.30887300,89308873,1,-0.0015018145786598325,0.00043785091838799417,-0.0008619589498266578,-0.49804916977882385,-0.14288710057735443,-9.960982322692871,0,0,44.0,1,1,1995,2060
89.31112900,89311129,1,-0.001159286592155695,0.0003263973630964756,-0.0007620116230100393,-0.4954344630241394,-0.13977132737636566,-9.962642669677734,0,0,44.0,1,1,1995,2060
89.31363400,89313634,1,-0.0004370172682683915,7.988254947122186e-05,-0.0005182440509088337,-0.49352991580963135,-0.1368202120065689,-9.962105751037598,0,0,44.0,1,1,1995,2060
89.31630800,89316308,1,-0.0005052387132309377,0.0001009702609735541,0.00024295473122037947,-0.4887647330760956,-0.1352873593568802,-9.96004867553711,0,0,44.0,1,1,1995,2060
89.31863000,89318630,1,-0.0006160293123684824,-0.000863181718159467,0.0001699109998298809,-0.4858819544315338,-0.13443326950073242,-9.958680152893066,0,0,44.0,1,1,1995,2060
89.32127700,89321277,1,-8.476489165332168e-05,-0.0010808357037603855,0.0003047937643714249,-0.485872358083725,-0.134842187166214,-9.959303855895996,0,0,44.0,1,1,1995,2060
89.32364400,89323644,1,0.0002229715755674988,-0.000992904999293387,6.605888484045863e-05,-0.48848956823349,-0.13667291402816772,-9.959005355834961,0,0,44.0,1,1,1995,2060
89.32612900,89326129,1,0.0010491815628483891,-0.0011239934246987104,5.3645639127353206e-05,-0.49126991629600525,-0.1375710517168045,-9.958536148071289,0,0,44.0,1,1,1995,2060
89.32887700,89328877,1,0.0014105241280049086,-0.0011061163386330009,0.0006141024059616029,-0.4915395677089691,-0.13808201253414154,-9.954622268676758,0,0,44.0,1,1,1995,2060
89.33112600,89331126,1,0.0017399823991581798,-0.0005817607743665576,0.00048340464127250016,-0.4916156828403473,-0.14009514451026917,-9.949833869934082,0,0,44.0,1,1,1995,2060
89.33377200,89333772,1,0.0013091668952256441,0.0005381525843404233,0.0002493640931788832,-0.49047166109085083,-0.14141330122947693,-9.94648551940918,0,0,44.0,1,1,1995,2060
89.33613500,89336135,1,0.001004711608402431,0.0011928640305995941,-0.0002588997595012188,-0.48989617824554443,-0.14483578503131866,-9.945307731628418,0,0,44.0,1,1,1995,2060
89.33863700,89338637,1,0.0009460074943490326,0.0014459289377555251,-0.000506110314745456,-0.4947652816772461,-0.14519193768501282,-9.946142196655273,0,0,44.0,1,1,1995,2060
89.34127400,89341274,1,0.0005507941823452711,0.0012768073938786983,-0.000747454643715173,-0.5002503395080566,-0.1433427482843399,-9.949824333190918,0,0,44.0,1,1,1995,2060
89.34363000,89343630,1,0.0004947754205204546,0.0008539551636204123,-0.0007521833176724613,-0.5041145086288452,-0.1397012174129486,-9.953035354614258,0,0,44.0,1,1,1995,2060
89.34637900,89346379,1,0.0003803934087045491,0.0004090782313141972,-0.0007926268153823912,-0.5062938928604126,-0.13855710625648499,-9.95792293548584,0,0,44.0,1,1,1995,2060
89.34872300,89348723,1,8.566505130147561e-05,0.0007218057289719582,-0.0003324007266201079,-0.5072415471076965,-0.13526301085948944,-9.965231895446777,0,0,44.0,1,1,1995,2060
89.35113400,89351134,1,-0.0002948235778603703,0.0005933808861300349,4.506681943894364e-05,-0.5057180523872375,-0.13444961607456207,-9.968937873840332,0,0,44.0,1,1,1995,2060
89.35377600,89353776,1,-0.0007946461555548012,0.00015232714940793812,-0.00020348063844721764,-0.5044832825660706,-0.13391894102096558,-9.973713874816895,0,0,44.0,1,1,1995,2060
89.35614300,89356143,1,-0.0010278073605149984,4.0139038901543245e-05,0.0002485407458152622,-0.500623345375061,-0.13309049606323242,-9.974197387695312,0,0,44.0,1,1,1995,2060
89.35877900,89358779,1,-0.0005250061512924731,-7.220786937978119e-05,0.00046191943692974746,-0.4963158369064331,-0.13309445977210999,-9.974888801574707,0,0,44.0,1,1,1995,2060
89.36112700,89361127,1,0.0001859373296611011,-0.0004683842998929322,0.0006724151317030191,-0.4952555298805237,-0.1342673897743225,-9.973907470703125,0,0,44.0,1,1,1995,2060
89.36363000,89363630,1,0.000889737973921001,-0.0003928755468223244,0.0007703194860368967,-0.49507567286491394,-0.1354101002216339,-9.970687866210938,0,0,44.0,1,1,1995,2060
89.36627600,89366276,1,0.0012528870720416307,-0.0004692983638960868,0.0016670594923198223,-0.4929265081882477,-0.14003679156303406,-9.963406562805176,0,0,44.0,1,1,1995,2060
89.36866700,89368667,1,0.0017660071607679129,-0.0004779477312695235,0.0016522192163392901,-0.494540274143219,-0.14437851309776306,-9.958266258239746,0,0,44.0,1,1,1995,2060
89.37134300,89371343,1,0.0019311292562633753,-0.00012066395720466971,0.0013202292611822486,-0.4964340627193451,-0.1474575400352478,-9.956302642822266,0,0,44.0,1,1,1995,2060
89.37362700,89373627,1,0.0022328307386487722,0.0003570426197256893,0.0008631761302240193,-0.49548450112342834,-0.1492295265197754,-9.95655345916748,0,0,44.0,1,1,1995,2060
89.37616500,89376165,1,0.0021462540607899427,0.0007881139754317701,0.00014478049706667662,-0.492556631565094,-0.14691533148288727,-9.957509994506836,0,0,44.0,1,1,1995,2060
89.37877800,89378778,1,0.0023200546856969595,0.000756031135097146,2.7377544029150158e-05,-0.48948246240615845,-0.14455586671829224,-9.96086311340332,0,0,44.0,1,1,1995,2060
89.38113500,89381135,1,0.0025850932579487562,0.0008363191736862063,-0.00014030463353265077,-0.490017294883728,-0.1386117935180664,-9.966808319091797,0,0,44.0,1,1,1995,2060
89.38402500,89384025,1,0.0024663712829351425,0.0006166117964312434,2.118945849360898e-05,-0.4904576539993286,-0.13444861769676208,-9.969229698181152,0,0,44.0,1,1,1995,2060
89.38613800,89386138,1,0.002675112336874008,0.0008609252981841564,-0.00014127464964985847,-0.49168139696121216,-0.13221225142478943,-9.968302726745605,0,0,44.0,1,1,1995,2060
89.38864500,89388645,1,0.002546784933656454,0.00023280734603758901,0.00016375906125176698,-0.4935643672943115,-0.13121233880519867,-9.965349197387695,0,0,44.0,1,1,1995,2060
89.39165500,89391655,1,0.0026547785382717848,0.0005554002709686756,3.5908415156882256e-05,-0.49410468339920044,-0.13108573853969574,-9.962052345275879,0,0,44.0,1,1,1995,2060
89.39362400,89393624,1,0.002696338575333357,0.001384474104270339,-0.0003123843052890152,-0.49217233061790466,-0.13165584206581116,-9.957032203674316,0,0,44.0,1,1,1995,2060
89.39646300,89396463,1,0.0025513104628771544,0.0009833979420363903,-0.0006137790624052286,-0.4904431104660034,-0.13237421214580536,-9.95348072052002,0,0,44.0,1,1,1995,2060
89.39863500,89398635,1,0.002252517733722925,0.00035662963637150824,-0.0007125027477741241,-0.48695483803749084,-0.1347070336341858,-9.949647903442383,0,0,44.0,1,1,1995,2060
89.40113600,89401136,1,0.0027219061739742756,-0.0001350787206320092,-0.00044733224785886705,-0.4826151132583618,-0.13661636412143707,-9.949170112609863,0,0,44.0,1,1,1995,2060
89.40391000,89403910,1,0.0027724618557840586,-0.001091459533199668,-0.0003871684311889112,-0.4787563979625702,-0.13862718641757965,-9.948846817016602,0,0,44.0,1,1,1995,2060
89.40614700,89406147,1,0.0024499150458723307,-0.0015436384128406644,-0.0004078817437402904,-0.4768557846546173,-0.14196738600730896,-9.948260307312012,0,0,44.0,1,1,1995,2060
89.40894100,89408941,1,0.002224789699539542,-0.0013805438065901399,-0.0003976764564868063,-0.4779534637928009,-0.14465633034706116,-9.94991397857666,0,0,44.0,1,1,1995,2060
89.41114500,89411145,1,0.0014635649276897311,-0.0010825555073097348,-0.0009015945834107697,-0.4777652621269226,-0.14810329675674438,-9.950754165649414,0,0,44.0,1,1,1995,2060
89.41366000,89413660,1,0.001049236161634326,-0.0009865282336249948,-0.0009093902772292495,-0.4785325527191162,-0.14915430545806885,-9.952901840209961,0,0,44.0,1,1,1995,2060
89.41636400,89416364,1,0.0014091338962316513,-0.000702675839420408,-0.0006054422701708972,-0.47662103176116943,-0.14664426445960999,-9.9512300491333,0,0,44.0,1,1,1995,2060
89.41863500,89418635,1,0.001378648797981441,-0.00043068817467428744,-0.0006466074264608324,-0.47625958919525146,-0.1444128155708313,-9.9520845413208,0,0,44.0,1,1,1995,2060
89.42137200,89421372,1,0.000985175371170044,0.00025323755107820034,-0.0010580961825326085,-0.47954705357551575,-0.14181950688362122,-9.957331657409668,0,0,44.0,1,1,1995,2060
89.42363500,89423635,1,0.0010423044441267848,0.0003490239614620805,-0.0004301426815800369,-0.48310086131095886,-0.13890907168388367,-9.965115547180176,0,0,44.0,1,1,1995,2060
89.42615700,89426157,1,0.0011112011270597577,0.00011318807082716376,-0.00010337784624425694,-0.48708048462867737,-0.13944391906261444,-9.974767684936523,0,0,44.0,1,1,1995,2060
89.42887700,89428877,1,0.001162714441306889,-0.0005426598363555968,-0.00021072091476526111,-0.4890264570713043,-0.13902442157268524,-9.981618881225586,0,0,44.0,1,1,1995,2060
89.43113700,89431137,1,0.0007182992994785309,-0.0005661508184857666,-5.163340028957464e-05,-0.49085456132888794,-0.13502946496009827,-9.98590087890625,0,0,44.0,1,1,1995,2060
89.43377600,89433776,1,-2.4751576347625814e-05,-0.00018152367556467652,0.00043962037307210267,-0.49394676089286804,-0.133246049284935,-9.986342430114746,0,0,44.0,1,1,1995,2060
89.43617200,89436172,1,-0.0001178501479444094,-0.0001692937221378088,7.396645378321409e-05,-0.4951377213001251,-0.13089239597320557,-9.987251281738281,0,0,44.0,1,1,1995,2060
89.43866300,89438663,1,-0.0003092850383836776,-0.0008256242726929486,0.0009151306003332138,-0.4930874705314636,-0.12953215837478638,-9.986807823181152,0,0,44.0,1,1,1995,2060
89.44128000,89441280,1,-0.00031254146597348154,-0.0009501829626969993,0.0007606004946865141,-0.49013179540634155,-0.13163012266159058,-9.985129356384277,0,0,44.0,1,1,1995,2060
89.44364000,89443640,1,-0.0005342450458556414,-0.0012338451342657208,0.0003773939097300172,-0.48575589060783386,-0.13285134732723236,-9.978304862976074,0,0,44.0,1,1,1995,2060
89.44629300,89446293,1,-0.0008774363086558878,-0.0012085947673767805,0.0012968441005796194,-0.48141929507255554,-0.13585108518600464,-9.971028327941895,0,0,44.0,1,1,1995,2060
89.44872900,89448729,1,-0.0010625808499753475,-0.0012707551941275597,0.0013504126109182835,-0.47848138213157654,-0.1400289386510849,-9.968849182128906,0,0,44.0,1,1,1995,2060
89.45113300,89451133,1,-0.0015450920909643173,-0.0012933730613440275,0.0015446858014911413,-0.480007141828537,-0.14360405504703522,-9.965250015258789,0,0,44.0,1,1,1995,2060
89.45377600,89453776,1,-0.0015261395601555705,-0.0010711881332099438,0.0016989989671856165,-0.48017629981040955,-0.1492483764886856,-9.960392951965332,0,0,44.0,1,1,1995,2060
89.45612900,89456129,1,-0.0014280922478064895,-0.0008122195722535253,0.002206476405262947,-0.48515352606773376,-0.15294232964515686,-9.958931922912598,0,0,44.0,1,1,1995,2060
89.45890300,89458903,1,-0.0012704642722383142,-0.0008891255129128695,0.002748569007962942,-0.4874923527240753,-0.15428388118743896,-9.960306167602539,0,0,44.0,1,1,1995,2060
89.46115000,89461150,1,-0.0010900873458012938,-0.001079533831216395,0.0028998416382819414,-0.4899687170982361,-0.15355338156223297,-9.961047172546387,0,0,44.0,1,1,1995,2060
89.46363000,89463630,1,-0.0013524940004572272,-0.0004331807140260935,0.0024193632416427135,-0.4940274953842163,-0.150704488158226,-9.959012031555176,0,0,44.0,1,1,1995,2060
89.46627700,89466277,1,-0.001480551902204752,2.6185472961515188e-05,0.0020847192499786615,-0.49605298042297363,-0.148736372590065,-9.961323738098145,0,0,44.0,1,1,1995,2060
89.46865400,89468654,1,-0.0014622390735894442,-2.2023155906936154e-05,0.0012829593615606427,-0.4962606430053711,-0.14750821888446808,-9.966140747070312,0,0,44.0,1,1,1995,2060
89.47127700,89471277,1,-0.0012525920756161213,0.000508560799062252,0.0013424375792965293,-0.4985118508338928,-0.14547112584114075,-9.97036075592041,0,0,44.0,1,1,1995,2060
89.47363900,89473639,1,-0.001228280016221106,0.0007081652875058353,0.0013006371445953846,-0.502336323261261,-0.14301788806915283,-9.97193431854248,0,0,44.0,1,1,1995,2060
89.47612600,89476126,1,-0.001534797833301127,0.0010369237279519439,0.0010087472619488835,-0.506527304649353,-0.14160501956939697,-9.970484733581543,0,0,44.0,1,1,1995,2060
89.47880900,89478809,1,-0.0013237724779173732,0.001265823608264327,0.0003724816779140383,-0.5077576637268066,-0.14213445782661438,-9.967227935791016,0,0,44.0,1,1,1995,2060
89.48114000,89481140,1,-0.0010287913028150797,0.00027698319172486663,0.0006538487505167723,-0.5039252638816833,-0.14321501553058624,-9.965201377868652,0,0,44.0,1,1,1995,2060
89.48402200,89484022,1,-0.0006445411709137261,-0.0009837130783125758,0.0008800757932476699,-0.4969405233860016,-0.14691320061683655,-9.960997581481934,0,0,44.0,1,1,1995,2060
89.48612400,89486124,1,-0.0008351336000487208,-0.0014509669272229075,0.0010484270751476288,-0.4922274649143219,-0.14994333684444427,-9.956313133239746,0,0,44.0,1,1,1995,2060
89.48865800,89488658,1,-0.000881421088706702,-0.001854529487900436,0.00119593960698694,-0.49118173122406006,-0.149911567568779,-9.953672409057617,0,0,44.0,1,1,1995,2060
89.49161500,89491615,1,-0.0006389287882484496,-0.002219123998656869,0.0012038793647661805,-0.49317148327827454,-0.14840273559093475,-9.95340633392334,0,0,44.0,1,1,1995,2060
89.49363700,89493637,1,-0.0002684685750864446,-0.001836739364080131,0.0009593680733814836,-0.494188129901886,-0.1458693891763687,-9.95500659942627,0,0,44.0,1,1,1995,2060
89.49644900,89496449,1,0.0007116554770618677,-0.0019392446847632527,9.692994353827089e-06,-0.4932989478111267,-0.14162755012512207,-9.957996368408203,0,0,44.0,1,1,1995,2060
89.49864200,89498642,1,0.0017339041223749518,-0.0018883346347138286,0.00023527094163000584,-0.49214085936546326,-0.14080891013145447,-9.960415840148926,0,0,44.0,1,1,1995,2060
89.50113000,89501130,1,0.0024762991815805435,-0.002048561116680503,0.0003680473018903285,-0.4919378161430359,-0.1395665854215622,-9.962010383605957,0,0,44.0,1,1,1995,2060
89.50393500,89503935,1,0.002826550044119358,-0.0014800558565184474,0.0003912353131454438,-0.4923759698867798,-0.1379682421684265,-9.966804504394531,0,0,44.0,1,1,1995,2060
89.50611300,89506113,1,0.0028349305503070354,-0.0010265286546200514,0.0006357361562550068,-0.4916774332523346,-0.13856735825538635,-9.969733238220215,0,0,44.0,1,1,1995,2060
89.50887700,89508877,1,0.0026760408654809,-0.0010760565055534244,0.0008105063461698592,-0.4915224611759186,-0.1373995542526245,-9.973199844360352,0,0,44.0,1,1,1995,2060
89.51113000,89511130,1,0.0027096932753920555,-0.001244347426109016,0.0007901177159510553,-0.48997703194618225,-0.13262218236923218,-9.975336074829102,0,0,44.0,1,1,1995,2060
89.51364400,89513644,1,0.0024217821191996336,-0.0018255517352372408,0.0008584831957705319,-0.4904527962207794,-0.12770216166973114,-9.976700782775879,0,0,44.0,1,1,1995,2060
89.51659500,89516595,1,0.0014402332017198205,-0.0015334909548982978,0.0008671781397424638,-0.48927101492881775,-0.12623141705989838,-9.974444389343262,0,0,44.0,1,1,1995,2060
89.51894800,89518948,1,0.0010604572016745806,-0.0008943366701714694,0.0007702689617872238,-0.48599371314048767,-0.1260528266429901,-9.969931602478027,0,0,44.0,1,1,1995,2060
89.52130400,89521304,1,0.001358784269541502,-0.0001376103173242882,0.0005370559520088136,-0.48311808705329895,-0.12762781977653503,-9.966141700744629,0,0,44.0,1,1,1995,2060
89.52362500,89523625,1,0.0011706022778525949,0.00026143190916627645,-4.251950940670213e-06,-0.4806418716907501,-0.13027124106884003,-9.962882041931152,0,0,44.0,1,1,1995,2060
89.52616100,89526161,1,0.00099041941575706,-3.712828765856102e-05,3.3302629162790254e-05,-0.47969678044319153,-0.1332068145275116,-9.959006309509277,0,0,44.0,1,1,1995,2060
89.52884600,89528846,1,0.000739755982067436,0.00012719204823952168,0.00036407128209248185,-0.48248228430747986,-0.1369982212781906,-9.954050064086914,0,0,44.0,1,1,1995,2060
89.53114000,89531140,1,0.000649931957013905,-0.00012285119737498462,0.0005839049117639661,-0.48735570907592773,-0.14193665981292725,-9.954572677612305,0,0,44.0,1,1,1995,2060
89.53377500,89533775,1,0.0009246701374650002,-0.00059841712936759,0.0007027768879197538,-0.48985129594802856,-0.1484183967113495,-9.95549488067627,0,0,44.0,1,1,1995,2060
89.53613400,89536134,1,0.0010003478964790702,-0.0008063006680458784,0.00032839339110068977,-0.48930442333221436,-0.15478666126728058,-9.956390380859375,0,0,44.0,1,1,1995,2060
89.53863100,89538631,1,0.0005986310425214469,-0.000650669215247035,0.00014521725825034082,-0.4895267188549042,-0.15750083327293396,-9.957324028015137,0,0,44.0,1,1,1995,2060
89.54127300,89541273,1,0.0005930289044044912,-0.0006494938861578703,-8.410295777139254e-06,-0.48998862504959106,-0.15966591238975525,-9.957132339477539,0,0,44.0,1,1,1995,2060
89.54362600,89543626,1,0.0010559775400906801,-0.00031972836586646736,0.0007239261758513749,-0.4940871298313141,-0.16046242415905,-9.95401382446289,0,0,44.0,1,1,1995,2060
89.54627400,89546274,1,0.001004090765491128,0.0002163881144952029,0.0010137575445696712,-0.4965541362762451,-0.15989024937152863,-9.950057983398438,0,0,44.0,1,1,1995,2060
89.54873600,89548736,1,0.0010707341134548187,0.000793763785623014,0.0008964964654296637,-0.49888935685157776,-0.16136446595191956,-9.945632934570312,0,0,44.0,1,1,1995,2060
89.55113900,89551139,1,0.001388880074955523,0.0007820711471140385,0.0005892373737879097,-0.49851179122924805,-0.16305436193943024,-9.942607879638672,0,0,44.0,1,1,1995,2060
89.55377500,89553775,1,0.0011155522661283612,0.0010561434319242835,3.1965413654688746e-05,-0.4972324073314667,-0.1650170534849167,-9.94344711303711,0,0,44.0,1,1,1995,2060
89.55612800,89556128,1,0.0006625023088417947,0.001295619411394,-0.00013243228022474796,-0.49508136510849,-0.16348327696323395,-9.945204734802246,0,0,44.0,1,1,1995,2060
89.55880700,89558807,1,0.0007961695664562285,0.0015058843418955803,5.664840864483267e-05,-0.4926721155643463,-0.15669117867946625,-9.945908546447754,0,0,44.0,1,1,1995,2060
89.56112600,89561126,1,0.0009091970277950168,0.00180805625859648,-0.00011122173600597307,-0.4940353333950043,-0.15042747557163239,-9.94910717010498,0,0,44.0,1,1,1995,2060
89.56363300,89563633,1,0.0010394991841167212,0.0017808963311836123,0.0005364703829400241,-0.4961738884449005,-0.1448095738887787,-9.955991744995117,0,0,44.0,1,1,1995,2060
89.56641000,89566410,1,0.0008511552587151527,0.0016728355549275875,0.0009059766889549792,-0.4980618357658386,-0.14007337391376495,-9.960522651672363,0,0,44.0,1,1,1995,2060
89.56866000,89568660,1,0.0006906256312504411,0.0015587554080411792,0.001230581314302981,-0.4981039762496948,-0.1361158937215805,-9.966349601745605,0,0,44.0,1,1,1995,2060
89.57134400,89571344,1,0.0003893724933732301,0.0014147262554615736,0.0014927658485248685,-0.4952584505081177,-0.1336687207221985,-9.971458435058594,0,0,44.0,1,1,1995,2060
89.57363600,89573636,1,8.877264917828143e-05,0.0009686628472991288,0.0018604084616526961,-0.4883853793144226,-0.13273194432258606,-9.970712661743164,0,0,44.0,1,1,1995,2060
89.57612800,89576128,1,0.0002702657366171479,0.00024525990011170506,0.0023319132160395384,-0.4821900725364685,-0.13393880426883698,-9.965302467346191,0,0,44.0,1,1,1995,2060
89.57880400,89578804,1,0.00022990877914708108,-0.000645716383587569,0.0026720974128693342,-0.4789685308933258,-0.1331644207239151,-9.963351249694824,0,0,44.0,1,1,1995,2060
89.58112600,89581126,1,0.00042126496555283666,-0.0009634314919821918,0.0027242747601121664,-0.476330429315567,-0.13118360936641693,-9.964570045471191,0,0,44.0,1,1,1995,2060
89.58402800,89584028,1,0.0005888515152037144,-0.0006243177922442555,0.0025274869985878468,-0.47498849034309387,-0.1309032291173935,-9.965300559997559,0,0,44.0,1,1,1995,2060
89.58612400,89586124,1,0.0011259535094723105,-0.0007480666972696781,0.0018181819468736649,-0.47518008947372437,-0.1353771686553955,-9.966522216796875,0,0,44.0,1,1,1995,2060
89.58865700,89588657,1,0.0012015633983537555,-0.0005972519284114242,0.0017921392573043704,-0.4744609594345093,-0.14027564227581024,-9.96951961517334,0,0,44.0,1,1,1995,2060
89.59161200,89591612,1,0.0016626449069008231,-0.00018550019012764096,0.0009885927429422736,-0.4727992117404938,-0.14426881074905396,-9.97399616241455,0,0,44.0,1,1,1995,2060
89.59364000,89593640,1,0.002226334298029542,-0.00027538827271200716,0.0005161133012734354,-0.473428338766098,-0.14898523688316345,-9.981475830078125,0,0,44.0,1,1,1995,2060
89.59644000,89596440,1,0.0023674550466239452,-0.0004058529739268124,0.00011087926395703107,-0.4765585660934448,-0.15488876402378082,-9.983694076538086,0,0,44.0,1,1,1995,2060
89.59865300,89598653,1,0.002051707124337554,-0.0008509423932991922,0.0003622650692705065,-0.4800562262535095,-0.15744440257549286,-9.983783721923828,0,0,44.0,1,1,1995,2060
89.60112400,89601124,1,0.0017618745332583785,-0.001427721930667758,0.0008593990933150053,-0.48500221967697144,-0.15790678560733795,-9.98181438446045,0,0,44.0,1,1,1995,2060
89.60389100,89603891,1,0.0018846418242901564,-0.0016341672744601965,0.0006039389409124851,-0.48714324831962585,-0.16130369901657104,-9.978849411010742,0,0,44.0,1,1,1995,2060
89.60612300,89606123,1,0.0017359670018777251,-0.0010899993358179927,0.000790626450907439,-0.4886259436607361,-0.1630970686674118,-9.97326374053955,0,0,44.0,1,1,1995,2060
89.60888300,89608883,1,0.0015721600502729416,-0.0005070793558843434,0.0004753535322379321,-0.4950017035007477,-0.16318222880363464,-9.963630676269531,0,0,44.0,1,1,1995,2060
89.61113400,89611134,1,0.001040182076394558,0.0002639825688675046,0.0003149811818730086,-0.502686619758606,-0.16237857937812805,-9.957910537719727,0,0,44.0,1,1,1995,2060
89.61362800,89613628,1,0.0004457516479305923,0.0006306027644313872,0.0005729030817747116,-0.508892297744751,-0.16301724314689636,-9.955437660217285,0,0,44.0,1,1,1995,2060
89.61640200,89616402,1,-2.503066571080126e-05,0.000635639124084264,0.00043460598681122065,-0.5098490715026855,-0.1619933843612671,-9.953021049499512,0,0,44.0,1,1,1995,2060
89.61864000,89618640,1,-9.646426769904792e-05,0.0006889362121000886,0.0005636409041471779,-0.506357729434967,-0.1621384471654892,-9.951666831970215,0,0,44.0,1,1,1995,2060
89.62130400,89621304,1,-0.00024497637059539557,0.0006729284068569541,0.0007050539716146886,-0.5001168251037598,-0.16371284425258636,-9.950979232788086,0,0,44.0,1,1,1995,2060
89.62362500,89623625,1,-0.0004174406349193305,0.0007700787391513586,0.0008386114495806396,-0.49489933252334595,-0.16167715191841125,-9.947775840759277,0,0,44.0,1,1,1995,2060
89.62613700,89626137,1,-0.00031855228007771075,0.0009827181929722428,0.0005472578341141343,-0.49549683928489685,-0.1595308482646942,-9.943133354187012,0,0,44.0,1,1,1995,2060
89.62887400,89628874,1,6.446778570534661e-05,0.0012486815685406327,0.0007920823991298676,-0.49603015184402466,-0.15802840888500214,-9.941422462463379,0,0,44.0,1,1,1995,2060
89.63113200,89631132,1,0.0001117833744501695,0.001648605801165104,0.0009542036568745971,-0.4947679936885834,-0.15573541820049286,-9.942397117614746,0,0,44.0,1,1,1995,2060
89.63375500,89633755,1,8.54268091643462e-06,0.0015496978303417563,0.00021575565915554762,-0.49346575140953064,-0.15573635697364807,-9.94510555267334,0,0,44.0,1,1,1995,2060
89.63611200,89636112,1,-0.00022571804584003985,0.0013352448586374521,0.00019366122432984412,-0.49020516872406006,-0.1538950353860855,-9.946385383605957,0,0,44.0,1,1,1995,2060
89.63862100,89638621,1,-8.215453271986917e-05,0.0004263021401129663,-0.00041630060877650976,-0.4861443340778351,-0.15031376481056213,-9.950133323669434,0,0,44.0,1,1,1995,2060
89.64125400,89641254,1,0.00044448915286920965,0.00035476189805194736,-0.0006924315239302814,-0.4826931059360504,-0.14348874986171722,-9.95547866821289,0,0,44.0,1,1,1995,2060
89.64360200,89643602,1,0.0007323118625208735,-0.0005830476875416934,-0.0007947122794575989,-0.4815426170825958,-0.13971127569675446,-9.959151268005371,0,0,44.0,1,1,1995,2060
89.64625700,89646257,1,0.0006107938243076205,-0.0011160679860040545,-0.0010600044624879956,-0.4832879602909088,-0.13734668493270874,-9.961288452148438,0,0,44.0,1,1,1995,2060
89.64869100,89648691,1,8.672749390825629e-05,-0.001015416462905705,-0.0013636726653203368,-0.4836076498031616,-0.13402900099754333,-9.962135314941406,0,0,44.0,1,1,1995,2060
89.65112200,89651122,1,-4.044533125124872e-05,-0.0003225808613933623,-0.0020585611928254366,-0.4846758544445038,-0.13326101005077362,-9.964838981628418,0,0,44.0,1,1,1995,2060
89.65377300,89653773,1,-0.00026849948335438967,-0.0002006498398259282,-0.0019188693258911371,-0.4857306182384491,-0.13236798346042633,-9.967034339904785,0,0,44.0,1,1,1995,2060
89.65614600,89656146,1,-0.00019618295482359827,-0.0002407079009572044,-0.0018732561729848385,-0.48426324129104614,-0.13471649587154388,-9.965249061584473,0,0,44.0,1,1,1995,2060
89.65877800,89658778,1,-0.0002796015760395676,-0.0006714081391692162,-0.0014246358769014478,-0.48197492957115173,-0.13523614406585693,-9.962843894958496,0,0,44.0,1,1,1995,2060
89.66115100,89661151,1,-0.0005989167839288712,-0.0008269080426543951,-0.0004092093149665743,-0.48241084814071655,-0.13698384165763855,-9.958141326904297,0,0,44.0,1,1,1995,2060
89.66362200,89663622,1,-0.000956414791289717,-0.0009758698870427907,0.00021177768940106034,-0.4830315411090851,-0.13617809116840363,-9.953723907470703,0,0,44.0,1,1,1995,2060
89.66630400,89666304,1,-0.0012866612523794174,-0.0010436165612190962,0.0004952882300131023,-0.4787779152393341,-0.1361600011587143,-9.953298568725586,0,0,44.0,1,1,1995,2060
89.66865700,89668657,1,-0.001205342705361545,-0.00030808860901743174,0.0009715448250062764,-0.47615334391593933,-0.1373167634010315,-9.956503868103027,0,0,44.0,1,1,1995,2060
89.67142400,89671424,1,-0.0014579874696210027,0.0005962170544080436,0.0015765916323289275,-0.4771254062652588,-0.1353638917207718,-9.958731651306152,0,0,44.0,1,1,1995,2060
89.67363300,89673633,1,-0.0020004017278552055,0.0010033214930444956,0.0017638275166973472,-0.47844842076301575,-0.13901913166046143,-9.9596586227417,0,0,44.0,1,1,1995,2060
89.67612500,89676125,1,-0.0024985885247588158,0.000986796454526484,0.0021701303776353598,-0.47997915744781494,-0.1444225162267685,-9.956636428833008,0,0,44.0,1,1,1995,2060
89.67881000,89678810,1,-0.00299010518938303,0.0012789377942681313,0.0019902228377759457,-0.4810590445995331,-0.1475037783384323,-9.953020095825195,0,0,44.0,1,1,1995,2060
89.68113200,89681132,1,-0.0025765306781977415,0.0013636063085868955,0.0017169731436297297,-0.48603230714797974,-0.14816336333751678,-9.951717376708984,0,0,44.0,1,1,1995,2060
89.68406900,89684069,1,-0.002581043168902397,0.0015643623191863298,0.0018057918641716242,-0.4908662438392639,-0.14972051978111267,-9.950214385986328,0,0,44.0,1,1,1995,2060
89.68612500,89686125,1,-0.002663523657247424,0.0018592920387163758,0.0014511363115161657,-0.49418771266937256,-0.15087997913360596,-9.948285102844238,0,0,44.0,1,1,1995,2060
89.68865500,89688655,1,-0.0024083093740046024,0.0019413188565522432,0.001004737219773233,-0.49620547890663147,-0.15303444862365723,-9.948080062866211,0,0,44.0,1,1,1995,2060
89.69161900,89691619,1,-0.001700010267086327,0.001758711994625628,0.0009559580939821899,-0.4929783046245575,-0.1521001160144806,-9.950481414794922,0,0,44.0,1,1,1995,2060
89.69362200,89693622,1,-0.0014803149970248342,0.0019536709878593683,0.00013488292461261153,-0.488152414560318,-0.1495797038078308,-9.94933795928955,0,0,44.0,1,1,1995,2060
89.69645100,89696451,1,-0.0015201978385448456,0.002142351819202304,-0.00015309614536818117,-0.48759686946868896,-0.1462799459695816,-9.948768615722656,0,0,44.0,1,1,1995,2060
89.69864000,89698640,1,-0.0019688326865434647,0.0022336882539093494,3.938601730624214e-05,-0.48749324679374695,-0.14616529643535614,-9.94975471496582,0,0,44.0,1,1,1995,2060
89.70112700,89701127,1,-0.0021264830138534307,0.0016386609058827162,4.360915772849694e-05,-0.48655468225479126,-0.1485390067100525,-9.952238082885742,0,0,44.0,1,1,1995,2060
89.70389800,89703898,1,-0.0017732641426846385,0.0012523040641099215,0.00014357492909766734,-0.4860367476940155,-0.15211012959480286,-9.95577335357666,0,0,44.0,1,1,1995,2060
89.70614700,89706147,1,-0.0010283011943101883,0.000495861517265439,0.00019208304001949728,-0.4840868413448334,-0.15196311473846436,-9.955999374389648,0,0,44.0,1,1,1995,2060
89.70886900,89708869,1,-0.0005926971789449453,0.00025619592634029686,0.00022235697542782873,-0.4834023416042328,-0.1502322405576706,-9.952873229980469,0,0,44.0,1,1,1995,2060
89.71112900,89711129,1,-0.000364166044164449,0.00046643312089145184,0.0001840994373196736,-0.4815704822540283,-0.14726707339286804,-9.946893692016602,0,0,44.0,1,1,1995,2060
89.71363400,89713634,1,0.0002755283785518259,0.0008266862714663148,-0.0001457981124985963,-0.47930222749710083,-0.14557746052742004,-9.94332218170166,0,0,44.0,1,1,1995,2060
89.71627300,89716273,1,0.0009147964301519096,0.0006067212671041489,0.00021954852854833007,-0.47859933972358704,-0.14672400057315826,-9.94287395477295,0,0,44.0,1,1,1995,2060
89.71865400,89718654,1,0.001071361475624144,0.0009126472286880016,0.0004337331629358232,-0.4799526631832123,-0.14693686366081238,-9.94365406036377,0,0,44.0,1,1,1995,2060
89.72127100,89721271,1,0.0011965339072048664,0.0015996890142560005,0.0002488992759026587,-0.4809091091156006,-0.14670923352241516,-9.949361801147461,0,0,44.0,1,1,1995,2060
89.72364500,89723645,1,0.0010912760626524687,0.001370610436424613,1.56522139604931e-06,-0.48252326250076294,-0.14677438139915466,-9.952320098876953,0,0,44.0,1,1,1995,2060
89.72613100,89726131,1,0.0011092305649071932,0.0005758433253504336,-0.00019710535707417876,-0.4811067581176758,-0.14732268452644348,-9.9508056640625,0,0,44.0,1,1,1995,2060
89.72892800,89728928,1,0.000670389854349196,0.0010727921035140753,0.00019946355314459652,-0.479384183883667,-0.14939863979816437,-9.949349403381348,0,0,44.0,1,1,1995,2060
89.73112900,89731129,1,0.00036368457949720323,0.0010486821411177516,0.00022606369748245925,-0.47996020317077637,-0.15068653225898743,-9.952446937561035,0,0,44.0,1,1,1995,2060
89.73377400,89733774,1,2.810966907418333e-05,0.0009241029038093984,0.0007605234859511256,-0.48012033104896545,-0.14943146705627441,-9.956738471984863,0,0,44.0,1,1,1995,2060
89.73614300,89736143,1,-0.00027468346524983644,0.0010445755906403065,0.0006897977436892688,-0.4789498448371887,-0.14727945625782013,-9.961038589477539,0,0,44.0,1,1,1995,2060
89.73863000,89738630,1,-0.0002972181828226894,0.000917805009521544,0.0008395399781875312,-0.47981467843055725,-0.14442697167396545,-9.961779594421387,0,0,44.0,1,1,1995,2060
89.74127700,89741277,1,-0.0004018253239337355,0.0009370773914270103,0.0006077676080167294,-0.4798336625099182,-0.140134796500206,-9.959982872009277,0,0,44.0,1,1,1995,2060
89.74362100,89743621,1,-0.0005356295150704682,0.000942631158977747,0.0006032091332599521,-0.4798179864883423,-0.13679346442222595,-9.958005905151367,0,0,44.0,1,1,1995,2060
89.74628100,89746281,1,-0.0003431671066209674,0.0007752283709123731,0.0004306532209739089,-0.4805826246738434,-0.13302867114543915,-9.955341339111328,0,0,44.0,1,1,1995,2060
89.74871900,89748719,1,-0.0005245882784947753,0.0004360444436315447,0.0007575644413009286,-0.48198485374450684,-0.12903107702732086,-9.955174446105957,0,0,44.0,1,1,1995,2060
89.75115300,89751153,1,-0.0005398263456299901,0.00027109397342428565,0.001065139309503138,-0.4825769066810608,-0.1298808455467224,-9.956095695495605,0,0,44.0,1,1,1995,2060
89.75376600,89753766,1,-0.0005589608917944133,7.859495235607028e-05,0.0014581166906282306,-0.4844866991043091,-0.13289573788642883,-9.959733009338379,0,0,44.0,1,1,1995,2060
89.75613300,89756133,1,-0.0008846506243571639,-0.00035626578028313816,0.001931813545525074,-0.48504936695098877,-0.13603556156158447,-9.959939956665039,0,0,44.0,1,1,1995,2060
89.75877200,89758772,1,-0.0014156597899273038,-0.000484478659927845,0.0020380825735628605,-0.4837633967399597,-0.13848647475242615,-9.96096134185791,0,0,44.0,1,1,1995,2060
89.76113700,89761137,1,-0.001654233899898827,-0.0005190655938349664,0.001516135991550982,-0.48201945424079895,-0.13994568586349487,-9.963687896728516,0,0,44.0,1,1,1995,2060
89.76362400,89763624,1,-0.0021824450232088566,-0.0005791425937786698,0.0013690756168216467,-0.48328301310539246,-0.14100083708763123,-9.963418960571289,0,0,44.0,1,1,1995,2060
89.76630800,89766308,1,-0.0029456294141709805,-0.0006789366016164422,0.0011704337084665895,-0.48627519607543945,-0.14264652132987976,-9.962143898010254,0,0,44.0,1,1,1995,2060
89.76870700,89768707,1,-0.002316524041816592,-0.0009453386883251369,0.0011756544699892402,-0.48987823724746704,-0.14705151319503784,-9.964406967163086,0,0,44.0,1,1,1995,2060
89.77133500,89771335,1,-0.0015572024276480079,-0.001414680853486061,0.0010198971722275019,-0.4927175045013428,-0.1543724238872528,-9.970845222473145,0,0,44.0,1,1,1995,2060
89.77363500,89773635,1,-0.0007135612540878356,-0.0019088630797341466,0.000404390215408057,-0.49215200543403625,-0.15612128376960754,-9.972918510437012,0,0,44.0,1,1,1995,2060
89.77615100,89776151,1,-2.6820998755283654e-05,-0.0015208068070933223,-0.00016603179392404854,-0.491843581199646,-0.1565844863653183,-9.971747398376465,0,0,44.0,1,1,1995,2060
89.77877000,89778770,1,0.00048196318675763905,-0.0011017558863386512,-0.0001847457024268806,-0.4904973804950714,-0.15650153160095215,-9.968283653259277,0,0,44.0,1,1,1995,2060
89.78113800,89781138,1,0.0009848291520029306,-0.0010555866174399853,0.000513291684910655,-0.4872087240219116,-0.1561107039451599,-9.965108871459961,0,0,44.0,1,1,1995,2060
89.78402100,89784021,1,0.0014008277794346213,-0.0008129581692628562,0.0005048158345744014,-0.4845380187034607,-0.15538287162780762,-9.960857391357422,0,0,44.0,1,1,1995,2060
89.78613500,89786135,1,0.0016957080224528909,-0.0010304477764293551,0.00022513321891892701,-0.48310190439224243,-0.15283097326755524,-9.96277141571045,0,0,44.0,1,1,1995,2060
89.78864500,89788645,1,0.0012041075387969613,-0.0007241159328259528,0.00042813600157387555,-0.48157981038093567,-0.15213164687156677,-9.963852882385254,0,0,44.0,1,1,1995,2060
89.79161200,89791612,1,0.0011457300279289484,-0.0007049818523228168,0.0003874005051329732,-0.48008814454078674,-0.1511700302362442,-9.9649658203125,0,0,44.0,1,1,1995,2060
89.79362300,89793623,1,0.001592737971805036,-0.0010363389737904072,0.0007570950547233224,-0.4835692346096039,-0.15237008035182953,-9.961259841918945,0,0,44.0,1,1,1995,2060
89.79649500,89796495,1,0.0015388401225209236,-0.0005083201103843749,0.00034636331838555634,-0.4875829815864563,-0.15487302839756012,-9.956758499145508,0,0,44.0,1,1,1995,2060
89.79863900,89798639,1,0.001555906143039465,-0.00041672709630802274,-0.00019414423150010407,-0.4882619380950928,-0.15760047733783722,-9.9531831741333,0,0,44.0,1,1,1995,2060
89.80114300,89801143,1,0.001064141164533794,-0.0006513764383271337,-0.000661818019580096,-0.48584824800491333,-0.1567971557378769,-9.952539443969727,0,0,44.0,1,1,1995,2060
89.80388200,89803882,1,0.0005856273928657174,-0.0005129579221829772,-0.0009702970855869353,-0.48532989621162415,-0.15437546372413635,-9.954161643981934,0,0,44.0,1,1,1995,2060
89.80613500,89806135,1,0.0002212375693488866,-8.649389201309532e-05,-0.0009528240188956261,-0.48601776361465454,-0.1544211208820343,-9.96030044555664,0,0,44.0,1,1,1995,2060
89.80887600,89808876,1,0.00014540246047545224,-0.00013156383647583425,-0.0009517598082311451,-0.4860542118549347,-0.1546325385570526,-9.965216636657715,0,0,44.0,1,1,1995,2060
89.81112500,89811125,1,-3.384027513675392e-05,-2.972882975882385e-05,-0.0005958430701866746,-0.484295129776001,-0.15209481120109558,-9.968945503234863,0,0,44.0,1,1,1995,2060
89.81363200,89813632,1,-0.0009014544193632901,0.0003122244670521468,-0.00026739182067103684,-0.48279860615730286,-0.14904773235321045,-9.97138786315918,0,0,44.0,1,1,1995,2060
89.81633200,89816332,1,-0.0016435239231213927,0.0010117359925061464,-4.1838538891170174e-05,-0.48336926102638245,-0.14761140942573547,-9.970879554748535,0,0,44.0,1,1,1995,2060
89.81865200,89818652,1,-0.0014767204411327839,0.0012519791489467025,-0.0001042789954226464,-0.4866718649864197,-0.14868129789829254,-9.9681978225708,0,0,44.0,1,1,1995,2060
89.82128200,89821282,1,-0.0010098741622641683,0.001545322360470891,-0.00019277136016171426,-0.48979452252388,-0.15022322535514832,-9.968570709228516,0,0,44.0,1,1,1995,2060
89.82363300,89823633,1,-0.0008407302084378898,0.001429020194336772,-6.387872417690232e-06,-0.4915771484375,-0.15291401743888855,-9.968694686889648,0,0,44.0,1,1,1995,2060
89.82612700,89826127,1,-0.0009003476588986814,0.0011959436815232038,0.0002655774005688727,-0.4925884008407593,-0.1552421599626541,-9.96910572052002,0,0,44.0,1,1,1995,2060
89.82893200,89828932,1,-0.0011043179547414184,0.0007118308567442,9.086669888347387e-05,-0.4926413595676422,-0.15703967213630676,-9.967666625976562,0,0,44.0,1,1,1995,2060
89.83112800,89831128,1,-0.0007844892097637057,0.000220931411604397,-0.00026135664666071534,-0.49119672179222107,-0.1595679372549057,-9.964106559753418,0,0,44.0,1,1,1995,2060
89.83384300,89833843,1,-0.000240877183387056,-0.0003427419869694859,-0.0009236933547072113,-0.489644855260849,-0.16181032359600067,-9.964255332946777,0,0,44.0,1,1,1995,2060
89.83612800,89836128,1,0.00031489564571529627,-0.0006045715417712927,-0.0015990793472155929,-0.48772263526916504,-0.16277249157428741,-9.964141845703125,0,0,44.0,1,1,1995,2060
89.83863900,89838639,1,0.0008101386483758688,-0.00022176740458235145,-0.0021601570770144463,-0.4816259443759918,-0.1646149605512619,-9.962385177612305,0,0,44.0,1,1,1995,2060
89.84133600,89841336,1,0.0013592240866273642,0.0003434547397773713,-0.002157653449103236,-0.4776284992694855,-0.16505666077136993,-9.96201229095459,0,0,44.0,1,1,1995,2060
89.84363200,89843632,1,0.0018447058973833919,0.0008484596619382501,-0.0026516078505665064,-0.47680535912513733,-0.16489966213703156,-9.960236549377441,0,0,44.0,1,1,1995,2060
89.84627700,89846277,1,0.002309623174369335,0.0006336059886962175,-0.0020307081285864115,-0.47815194725990295,-0.16358886659145355,-9.959885597229004,0,0,44.0,1,1,1995,2060
89.84873000,89848730,1,0.0023591534700244665,-1.0882708011195064e-05,-0.0012907772324979305,-0.47986483573913574,-0.1592080444097519,-9.95738410949707,0,0,44.0,1,1,1995,2060
89.85113600,89851136,1,0.0022286742459982634,-0.00039061642019078135,-0.0008186012855730951,-0.4832403063774109,-0.15382224321365356,-9.957188606262207,0,0,44.0,1,1,1995,2060
89.85377900,89853779,1,0.0016443553613498807,-0.0005402236129157245,-0.00017803114315029234,-0.4868176579475403,-0.1472635269165039,-9.962250709533691,0,0,44.0,1,1,1995,2060
89.85613000,89856130,1,0.0016041080234572291,-3.754846329684369e-05,0.0005885832943022251,-0.49072298407554626,-0.14099954068660736,-9.965326309204102,0,0,44.0,1,1,1995,2060
89.85880600,89858806,1,0.0017202261369675398,1.436912043573102e-05,0.0011914698407053947,-0.4946819841861725,-0.13623695075511932,-9.965373992919922,0,0,44.0,1,1,1995,2060
89.86112500,89861125,1,0.0017113032517954707,-0.000880478008184582,0.001624320400878787,-0.49710750579833984,-0.13161447644233704,-9.964954376220703,0,0,44.0,1,1,1995,2060
89.86364800,89863648,1,0.0018375940853729844,-0.0023679137229919434,0.0022892560809850693,-0.49943679571151733,-0.12792466580867767,-9.960445404052734,0,0,44.0,1,1,1995,2060
89.86631400,89866314,1,0.0018030719365924597,-0.0025230487808585167,0.001989671029150486,-0.5016602277755737,-0.12844081223011017,-9.953590393066406,0,0,44.0,1,1,1995,2060
89.86865500,89868655,1,0.00198997650295496,-0.0033225847873836756,0.0015288230497390032,-0.503883421421051,-0.12919244170188904,-9.941400527954102,0,0,44.0,1,1,1995,2060
89.87131600,89871316,1,0.002203035866841674,-0.0034159081988036633,0.0015655560418963432,-0.5038808584213257,-0.12937471270561218,-9.93875503540039,0,0,44.0,1,1,1995,2060
89.87363300,89873633,1,0.0024006166495382786,-0.0026369772385805845,0.0014997671823948622,-0.5067969560623169,-0.12992465496063232,-9.941488265991211,0,0,44.0,1,1,1995,2060
89.87614200,89876142,1,0.0023447314742952585,-0.002476372290402651,0.0013543871464207768,-0.5070027112960815,-0.12819387018680573,-9.944609642028809,0,0,44.0,1,1,1995,2060
89.87877900,89878779,1,0.0023867953568696976,-0.002443601144477725,0.0012509638909250498,-0.5029971599578857,-0.12819837033748627,-9.949139595031738,0,0,44.0,1,1,1995,2060
89.88115100,89881151,1,0.002412780188024044,-0.0023174285888671875,0.0010418570600450039,-0.5015857219696045,-0.13066351413726807,-9.951651573181152,0,0,44.0,1,1,1995,2060
89.88402500,89884025,1,0.0021822869312018156,-0.0018892338266596198,0.0010770284570753574,-0.49856022000312805,-0.13594436645507812,-9.953208923339844,0,0,44.0,1,1,1995,2060
89.88615500,89886155,1,0.0019637015648186207,-0.0015636611497029662,0.0003596460446715355,-0.4966358244419098,-0.13825921714305878,-9.95439338684082,0,0,44.0,1,1,1995,2060
89.88864900,89888649,1,0.0020607563201338053,-0.0015387089224532247,0.00018065918993670493,-0.4988921880722046,-0.13965435326099396,-9.9569730758667,0,0,44.0,1,1,1995,2060
89.89162400,89891624,1,0.0020271053072065115,-0.0012512870598584414,-0.00014691465185023844,-0.5000565648078918,-0.14392973482608795,-9.958843231201172,0,0,44.0,1,1,1995,2060
89.89362000,89893620,1,0.0017556032398715615,-0.001751264906488359,-0.000510181300342083,-0.5017517805099487,-0.14825686812400818,-9.960317611694336,0,0,44.0,1,1,1995,2060
89.89646300,89896463,1,0.0011388716520741582,-0.0020458560902625322,-0.001215501339174807,-0.5008809566497803,-0.15244805812835693,-9.961585998535156,0,0,44.0,1,1,1995,2060
89.89864700,89898647,1,0.0009932952234521508,-0.0018339355010539293,-0.00144370982889086,-0.49877801537513733,-0.15547478199005127,-9.96262264251709,0,0,44.0,1,1,1995,2060
89.90113800,89901138,1,0.0007882354548200965,-0.0021826860029250383,-0.0017014630138874054,-0.49325329065322876,-0.15621010959148407,-9.964714050292969,0,0,44.0,1,1,1995,2060
89.90388100,89903881,1,0.0005366092664189637,-0.002098306082189083,-0.0016815116396173835,-0.48923155665397644,-0.15403668582439423,-9.96395492553711,0,0,44.0,1,1,1995,2060
89.90614300,89906143,1,0.0008543496951460838,-0.0016889771213755012,-0.0022548874840140343,-0.4886888563632965,-0.15296122431755066,-9.961210250854492,0,0,44.0,1,1,1995,2060
89.90891800,89908918,1,0.0007812606636434793,-0.0016280135605484247,-0.0024914895184338093,-0.48827874660491943,-0.15314903855323792,-9.959522247314453,0,0,44.0,1,1,1995,2060
89.91113400,89911134,1,0.00019550244905985892,-0.0020160991698503494,-0.0013248786563053727,-0.4845206141471863,-0.1512587070465088,-9.958725929260254,0,0,44.0,1,1,1995,2060
89.91362600,89913626,1,-0.0004209311446174979,-0.0012640974018722773,-0.0004047586699016392,-0.48215287923812866,-0.148678719997406,-9.959955215454102,0,0,44.0,1,1,1995,2060
89.91634600,89916346,1,-0.00045547843910753727,-0.001576786395162344,-0.000365079496987164,-0.4844363033771515,-0.1469755619764328,-9.963176727294922,0,0,44.0,1,1,1995,2060
89.91862900,89918629,1,-0.0004858005850110203,-0.0016355543630197644,-0.00037845910992473364,-0.4887720048427582,-0.14479926228523254,-9.964829444885254,0,0,44.0,1,1,1995,2060
89.92129300,89921293,1,-0.00019166554557159543,-0.0016126835253089666,-0.000602690561208874,-0.4916830360889435,-0.142692431807518,-9.968062400817871,0,0,44.0,1,1,1995,2060
89.92362900,89923629,1,0.0004081394581589848,-0.0013427212834358215,-0.0002573015808593482,-0.4955179691314697,-0.14112521708011627,-9.967852592468262,0,0,44.0,1,1,1995,2060
89.92613800,89926138,1,0.00010569732694420964,-0.000658774224575609,-0.00019669477478601038,-0.4993940591812134,-0.14121393859386444,-9.963993072509766,0,0,44.0,1,1,1995,2060
89.92884400,89928844,1,0.00028637354262173176,-0.000590528070461005,2.7180301913176663e-05,-0.4991513788700104,-0.14153851568698883,-9.9603910446167,0,0,44.0,1,1,1995,2060
89.93117000,89931170,1,3.5809418477583677e-05,-3.165922680636868e-05,0.0007227629539556801,-0.497741162776947,-0.13951468467712402,-9.958561897277832,0,0,44.0,1,1,1995,2060
89.93391500,89933915,1,0.0003175646415911615,0.0003974806750193238,0.0006140506011433899,-0.4938291013240814,-0.13804104924201965,-9.954455375671387,0,0,44.0,1,1,1995,2060
89.93613600,89936136,1,0.00021948065841570497,0.00041509605944156647,0.00036660756450146437,-0.4899778366088867,-0.1396348476409912,-9.954878807067871,0,0,44.0,1,1,1995,2060
89.93863700,89938637,1,0.0004092820454388857,0.00035426142858341336,0.0005535749951377511,-0.48646247386932373,-0.1408119797706604,-9.954324722290039,0,0,44.0,1,1,1995,2060
89.94128000,89941280,1,0.0003190331917721778,0.0003410619974602014,0.0011014534393325448,-0.4850398600101471,-0.14091932773590088,-9.953939437866211,0,0,44.0,1,1,1995,2060
89.94363400,89943634,1,0.0006767240120097995,-5.5258864449569955e-05,0.001273073023185134,-0.48427313566207886,-0.14197668433189392,-9.95715045928955,0,0,44.0,1,1,1995,2060
89.94634300,89946343,1,0.000569057825487107,-0.00010217636736342683,0.0018075393745675683,-0.4851917624473572,-0.14536139369010925,-9.959725379943848,0,0,44.0,1,1,1995,2060
89.94875100,89948751,1,0.0007174767670221627,-6.355791265377775e-05,0.001301935059018433,-0.4826139211654663,-0.1455359160900116,-9.962939262390137,0,0,44.0,1,1,1995,2060
89.95113000,89951130,1,0.0007825196953490376,0.00035507400752976537,0.0004028075491078198,-0.48146796226501465,-0.14755603671073914,-9.965502738952637,0,0,44.0,1,1,1995,2060
89.95390900,89953909,1,0.0010284746531397104,0.0006399294943548739,-0.0003868820203933865,-0.48086151480674744,-0.14933167397975922,-9.966020584106445,0,0,44.0,1,1,1995,2060
89.95613700,89956137,1,0.0007071237778291106,0.0012920682784169912,-0.0013861506013199687,-0.48095157742500305,-0.15154637396335602,-9.962146759033203,0,0,44.0,1,1,1995,2060
89.95880800,89958808,1,0.0009680010844022036,0.002007997827604413,-0.0019816425628960133,-0.48071062564849854,-0.15152375400066376,-9.960405349731445,0,0,44.0,1,1,1995,2060
89.96112800,89961128,1,0.0009444573079235852,0.0020522833801805973,-0.0012403869768604636,-0.4826914668083191,-0.14953188598155975,-9.959151268005371,0,0,44.0,1,1,1995,2060
89.96364600,89963646,1,0.000748491904232651,0.0022990326397120953,-0.0004719942226074636,-0.4840776324272156,-0.14903108775615692,-9.95815658569336,0,0,44.0,1,1,1995,2060
89.96627800,89966278,1,0.0011229242663830519,0.002275802893564105,-0.00041635968955233693,-0.4877021014690399,-0.1512494832277298,-9.961482048034668,0,0,44.0,1,1,1995,2060
89.96865800,89968658,1,0.0014440632658079267,0.002072457456961274,-0.0008649500086903572,-0.4897359311580658,-0.15316371619701385,-9.964386940002441,0,0,44.0,1,1,1995,2060
89.97127100,89971271,1,0.0018772752955555916,0.001665079384110868,-0.0002766683173831552,-0.4927711486816406,-0.151618093252182,-9.963184356689453,0,0,44.0,1,1,1995,2060
89.97363700,89973637,1,0.0013482487993314862,0.0011941994307562709,-0.00011942280980292708,-0.49777311086654663,-0.14917737245559692,-9.964268684387207,0,0,44.0,1,1,1995,2060
89.97615500,89976155,1,0.0007478378247469664,0.0012738417135551572,-6.975035648792982e-05,-0.5005985498428345,-0.14470461010932922,-9.965378761291504,0,0,44.0,1,1,1995,2060
89.97877900,89978779,1,0.0007825547945685685,0.000976896844804287,0.00011812784214271232,-0.5034207105636597,-0.1426256150007248,-9.96707820892334,0,0,44.0,1,1,1995,2060
89.98112500,89981125,1,0.0010953082237392664,0.0005409076111391187,8.625686314189807e-05,-0.5058860778808594,-0.14125138521194458,-9.969120979309082,0,0,44.0,1,1,1995,2060
89.98402600,89984026,1,0.0012331552570685744,0.0007531510782428086,0.000153595712617971,-0.5051238536834717,-0.14420482516288757,-9.968127250671387,0,0,44.0,1,1,1995,2060
89.98615200,89986152,1,0.0012028225464746356,0.0013288540067151189,-0.0001455560268368572,-0.5028579235076904,-0.14950542151927948,-9.968343734741211,0,0,44.0,1,1,1995,2060
89.98865500,89988655,1,0.0008664662600494921,0.0015766342403367162,0.0001889837731141597,-0.5032956600189209,-0.15428125858306885,-9.97262954711914,0,0,44.0,1,1,1995,2060
89.99162500,89991625,1,0.0006944537162780762,0.0015732625033706427,0.0004642844432964921,-0.5031617283821106,-0.15595866739749908,-9.975481986999512,0,0,44.0,1,1,1995,2060
89.99362800,89993628,1,0.0005827599670737982,0.0008254489512182772,0.0008143724990077317,-0.5026867389678955,-0.15501487255096436,-9.975271224975586,0,0,44.0,1,1,1995,2060
89.99648700,89996487,1,0.0010867489036172628,9.027495980262756e-05,0.0005167613853700459,-0.5023974180221558,-0.15484392642974854,-9.973302841186523,0,0,44.0,1,1,1995,2060
89.99865600,89998656,1,0.0018270283471792936,-0.00039936412940733135,0.0005036343354731798,-0.5015060305595398,-0.15455962717533112,-9.97790241241455,0,0,44.0,1,1,1995,2060
90.00114000,90001140,1,0.0026732338592410088,0.00019429039093665779,0.0002764669479802251,-0.5012229084968567,-0.1518857181072235,-9.98159122467041,0,0,44.0,1,1,1995,2060
90.00389500,90003895,1,0.0030197380110621452,0.0006484418991021812,8.849412552081048e-05,-0.5021226406097412,-0.14797961711883545,-9.98781681060791,0,0,44.0,1,1,1995,2060
90.00614700,90006147,1,0.0035554091446101665,0.00042782066157087684,-0.00039964227471500635,-0.5033105611801147,-0.14462517201900482,-9.99034595489502,0,0,44.0,1,1,1995,2060
90.00887300,90008873,1,0.003584814490750432,0.00032605972955934703,-0.0005024850252084434,-0.5032799243927002,-0.1432071179151535,-9.990169525146484,0,0,44.0,1,1,1995,2060
90.01113800,90011138,1,0.0031065382063388824,0.00020317736198194325,-0.0002802574017550796,-0.5000906586647034,-0.14220763742923737,-9.986971855163574,0,0,44.0,1,1,1995,2060
90.01362400,90013624,1,0.0022927368991076946,-0.00040064071072265506,-0.0006197115872055292,-0.49381738901138306,-0.14195728302001953,-9.982447624206543,0,0,44.0,1,1,1995,2060
90.01660900,90016609,1,0.0010551889427006245,-0.0008119950070977211,-0.00019936873286496848,-0.4924629330635071,-0.14160063862800598,-9.980005264282227,0,0,44.0,1,1,1995,2060
90.01894800,90018948,1,0.0005433687474578619,-0.0013784649781882763,0.0003837067342828959,-0.49255359172821045,-0.14075863361358643,-9.97830581665039,0,0,44.0,1,1,1995,2060
90.02142300,90021423,1,0.0003326836449559778,-0.0015715729678049684,0.001110199373215437,-0.49150240421295166,-0.13710713386535645,-9.974943161010742,0,0,44.0,1,1,1995,2060
90.02365200,90023652,1,-0.00010491763532627374,-0.0017688765656203032,0.0009931748500093818,-0.4912131130695343,-0.13355283439159393,-9.973855018615723,0,0,44.0,1,1,1995,2060
90.02615000,90026150,1,-0.0010218968382105231,-0.00155760464258492,0.0016981272492557764,-0.4923936724662781,-0.1303250789642334,-9.973287582397461,0,0,44.0,1,1,1995,2060
90.02894300,90028943,1,-0.0009709562291391194,-0.0012610546546056867,0.0019868765957653522,-0.4951861500740051,-0.12749654054641724,-9.972699165344238,0,0,44.0,1,1,1995,2060
90.03113700,90031137,1,-0.0013640878023579717,-0.0008304092916660011,0.0019245262956246734,-0.496094286441803,-0.12723657488822937,-9.972436904907227,0,0,44.0,1,1,1995,2060
90.03377600,90033776,1,-0.0016753076342865825,-0.0011067206505686045,0.0014595829416066408,-0.49435409903526306,-0.12844938039779663,-9.968901634216309,0,0,44.0,1,1,1995,2060
90.03614700,90036147,1,-0.0019359119469299912,-0.0012935078702867031,0.0009026809711940587,-0.49429214000701904,-0.13023632764816284,-9.962891578674316,0,0,44.0,1,1,1995,2060
90.03864400,90038644,1,-0.001868785242550075,-0.0011931943008676171,0.0006129638641141355,-0.497275173664093,-0.13489465415477753,-9.957047462463379,0,0,44.0,1,1,1995,2060
90.04127900,90041279,1,-0.0014856028137728572,-0.0008837925270199776,0.0002985286118928343,-0.5012456178665161,-0.14086182415485382,-9.952290534973145,0,0,44.0,1,1,1995,2060
90.04363600,90043636,1,-0.0006672652089037001,-0.0011594629613682628,0.00014108093455433846,-0.5022294521331787,-0.14645184576511383,-9.951346397399902,0,0,44.0,1,1,1995,2060
90.04629300,90046293,1,-9.595510346116498e-05,-0.0009844350861385465,6.32463488727808e-05,-0.5019674897193909,-0.14834700524806976,-9.94820499420166,0,0,44.0,1,1,1995,2060
90.04872000,90048720,1,0.0007251905626617372,-0.001038591144606471,4.8650719691067934e-05,-0.5017207264900208,-0.1488104611635208,-9.94591999053955,0,0,44.0,1,1,1995,2060
90.05114000,90051140,1,0.0012387025635689497,-0.001418083207681775,-6.68028078507632e-05,-0.5018511414527893,-0.15033526718616486,-9.948017120361328,0,0,44.0,1,1,1995,2060
90.05376700,90053767,1,0.0014248728984966874,-0.001691762125119567,5.125816824147478e-05,-0.5019439458847046,-0.15122704207897186,-9.95120620727539,0,0,44.0,1,1,1995,2060
90.05614000,90056140,1,0.0011337781324982643,-0.0016844222554937005,-0.0003309018211439252,-0.5002709627151489,-0.15364879369735718,-9.952625274658203,0,0,44.0,1,1,1995,2060
90.05877000,90058770,1,0.0010416848817840219,-0.0013436950976029038,-0.00021190907864365727,-0.5005821585655212,-0.15661932528018951,-9.95606803894043,0,0,44.0,1,1,1995,2060
90.06114200,90061142,1,0.0010196927469223738,-0.0007794476114213467,-0.0007592051988467574,-0.5031784176826477,-0.15796642005443573,-9.959692001342773,0,0,44.0,1,1,1995,2060
90.06362400,90063624,1,0.0011282878695055842,-0.00017888190632220358,-0.0012217283947393298,-0.5054284930229187,-0.15923155844211578,-9.958654403686523,0,0,44.0,1,1,1995,2060
90.06640900,90066409,1,0.0011277311714366078,-3.411944999243133e-05,-0.001028571743518114,-0.504275381565094,-0.16039855778217316,-9.954987525939941,0,0,44.0,1,1,1995,2060
90.06866300,90068663,1,0.0009125715587288141,-0.0003583129437174648,-0.0014098596293479204,-0.5014163255691528,-0.1606319546699524,-9.953500747680664,0,0,44.0,1,1,1995,2060
90.07128000,90071280,1,0.0009905279148370028,-0.0006670767907053232,-0.0009544019121676683,-0.5000161528587341,-0.16269858181476593,-9.955994606018066,0,0,44.0,1,1,1995,2060
90.07362800,90073628,1,0.0013590020826086402,-0.0011207113275304437,-0.001260583521798253,-0.49760812520980835,-0.16350533068180084,-9.957874298095703,0,0,44.0,1,1,1995,2060
90.07613500,90076135,1,0.0010308719938620925,-0.0016945218667387962,-0.0010442197090014815,-0.4967414438724518,-0.1609477400779724,-9.959096908569336,0,0,44.0,1,1,1995,2060
90.07877600,90078776,1,0.000631651608273387,-0.002223534509539604,-0.0006946950452402234,-0.497199684381485,-0.15464001893997192,-9.95903491973877,0,0,44.0,1,1,1995,2060
90.08113100,90081131,1,0.00046408589696511626,-0.002378659788519144,-0.0007838438614271581,-0.5005754232406616,-0.15323007106781006,-9.957582473754883,0,0,44.0,1,1,1995,2060
90.08403500,90084035,1,0.00026020591030828655,-0.0024507346097379923,-0.00029110582545399666,-0.50398850440979,-0.1515776365995407,-9.954063415527344,0,0,44.0,1,1,1995,2060
90.08612700,90086127,1,9.428198973182589e-05,-0.0019470341503620148,-0.0006926945643499494,-0.5066368579864502,-0.1520957201719284,-9.95046615600586,0,0,44.0,1,1,1995,2060
90.08866500,90088665,1,0.0003945335920434445,-0.0017899007070809603,-0.0005060647381469607,-0.5120864510536194,-0.15265408158302307,-9.9501953125,0,0,44.0,1,1,1995,2060
90.09170200,90091702,1,0.0013610589085146785,-0.0017346167005598545,-0.0005016722134314477,-0.5123344659805298,-0.15082991123199463,-9.951473236083984,0,0,44.0,1,1,1995,2060
90.09364400,90093644,1,0.001402560155838728,-0.0014047663426026702,-0.0005704183131456375,-0.5093032717704773,-0.14855487644672394,-9.95179557800293,0,0,44.0,1,1,1995,2060
90.09645900,90096459,1,0.0012761889956891537,-0.001346213510259986,-6.817754911025986e-05,-0.5075485706329346,-0.14653296768665314,-9.951114654541016,0,0,44.0,1,1,1995,2060
90.09864200,90098642,1,0.0008346746908500791,-0.0006482687313109636,0.00024854103685356677,-0.5041715502738953,-0.1447240114212036,-9.951151847839355,0,0,44.0,1,1,1995,2060
90.10112600,90101126,1,0.00032859938801266253,0.0002867206057999283,0.00042261218186467886,-0.5017769932746887,-0.14217564463615417,-9.953064918518066,0,0,44.0,1,1,1995,2060
90.10389000,90103890,1,-0.00010304310853825882,0.0006405775784514844,0.0007377062574960291,-0.5005181431770325,-0.14131538569927216,-9.955352783203125,0,0,44.0,1,1,1995,2060
90.10615000,90106150,1,-0.0003836688701994717,0.00031346912146545947,0.0008153844391927123,-0.5007870197296143,-0.14059503376483917,-9.95864200592041,0,0,44.0,1,1,1995,2060
90.10887100,90108871,1,-0.0010750179644674063,0.00044321169843897223,0.0008912374614737928,-0.4995042681694031,-0.1405617594718933,-9.961368560791016,0,0,44.0,1,1,1995,2060
90.11114400,90111144,1,-0.0013907126849517226,0.0001677859399933368,0.0011120964772999287,-0.49404317140579224,-0.14034311473369598,-9.958677291870117,0,0,44.0,1,1,1995,2060
90.11362800,90113628,1,-0.0010603712871670723,6.848499469924718e-05,0.0010011662961915135,-0.48699697852134705,-0.1418868750333786,-9.954972267150879,0,0,44.0,1,1,1995,2060
90.11627700,90116277,1,-0.0007975053740665317,0.0002130827197106555,0.0006346871377900243,-0.48168882727622986,-0.14333254098892212,-9.956438064575195,0,0,44.0,1,1,1995,2060
90.11863600,90118636,1,-2.2920397896086797e-05,-6.266232958296314e-05,0.000447701575467363,-0.4776928722858429,-0.14463232457637787,-9.959365844726562,0,0,44.0,1,1,1995,2060
90.12127300,90121273,1,0.0007269545458257198,-0.00032632696093060076,0.0002009802992688492,-0.4778793454170227,-0.1448056399822235,-9.965466499328613,0,0,44.0,1,1,1995,2060
90.12363200,90123632,1,0.0017477734945714474,-0.000802326831035316,0.00016193756891880184,-0.48139673471450806,-0.14503230154514313,-9.973060607910156,0,0,44.0,1,1,1995,2060
90.12614400,90126144,1,0.0023865497205406427,-0.0015660973731428385,-7.726741023361683e-05,-0.4891694188117981,-0.14410781860351562,-9.9804105758667,0,0,44.0,1,1,1995,2060
90.12886600,90128866,1,0.002536883344873786,-0.0014901625690981746,1.7439297153032385e-05,-0.49747323989868164,-0.14114999771118164,-9.985963821411133,0,0,44.0,1,1,1995,2060
90.13112900,90131129,1,0.00262456014752388,-0.0010371009120717645,-0.0001577957154950127,-0.5041216611862183,-0.13783586025238037,-9.98808479309082,0,0,44.0,1,1,1995,2060
90.13384400,90133844,1,0.0022515396121889353,-0.0010146349668502808,5.1777093176497146e-05,-0.507016658782959,-0.138916477560997,-9.987730026245117,0,0,44.0,1,1,1995,2060
90.13613300,90136133,1,0.001671137404628098,-0.0009714220650494099,-8.454878297925461e-06,-0.5074111819267273,-0.13945460319519043,-9.9823579788208,0,0,44.0,1,1,1995,2060
90.13863100,90138631,1,0.0009248433052562177,-0.0006401827558875084,-0.00012058914580848068,-0.5066819787025452,-0.13771626353263855,-9.98017692565918,0,0,44.0,1,1,1995,2060
90.14127500,90141275,1,0.00014900488895364106,0.00022061353956814855,-0.0004967867862433195,-0.5051113963127136,-0.1373305320739746,-9.976608276367188,0,0,44.0,1,1,1995,2060
90.14364800,90143648,1,-0.0004894064622931182,0.00011762440408347175,-0.0009331515757367015,-0.5035527944564819,-0.13974623382091522,-9.973008155822754,0,0,44.0,1,1,1995,2060
90.14629200,90146292,1,-0.0006029632058925927,0.0003199819475412369,-0.001182178850285709,-0.5006658434867859,-0.14382395148277283,-9.969247817993164,0,0,44.0,1,1,1995,2060
90.14872300,90148723,1,-0.0012292187893763185,0.0007128603174351156,-0.001159065985120833,-0.49829158186912537,-0.1467883437871933,-9.963288307189941,0,0,44.0,1,1,1995,2060
90.15113800,90151138,1,-0.0008184353355318308,0.000318710517603904,-0.0007071533473208547,-0.49546748399734497,-0.15077456831932068,-9.957977294921875,0,0,44.0,1,1,1995,2060
90.15377500,90153775,1,-0.0008386286208406091,-4.285641261958517e-05,-0.0002828103315550834,-0.4961862862110138,-0.15628482401371002,-9.954198837280273,0,0,44.0,1,1,1995,2060
90.15615300,90156153,1,-0.00041313248220831156,-0.00030789116863161325,-9.42090482567437e-05,-0.49698111414909363,-0.1623111218214035,-9.952238082885742,0,0,44.0,1,1,1995,2060
90.15884700,90158847,1,-0.0003489222435746342,-0.0008449522429145873,0.0009529403178021312,-0.49741536378860474,-0.16472570598125458,-9.951228141784668,0,0,44.0,1,1,1995,2060
90.16114200,90161142,1,-0.00035342047340236604,-0.00143721594940871,0.001305695273913443,-0.4940173327922821,-0.1651429384946823,-9.949897766113281,0,0,44.0,1,1,1995,2060
90.16362100,90163621,1,-0.000417156086768955,-0.0015278559876605868,0.0018871158827096224,-0.4911939203739166,-0.1640811264514923,-9.951925277709961,0,0,44.0,1,1,1995,2060
90.16630500,90166305,1,-0.0006547651719301939,-0.0015168980462476611,0.0019686755258589983,-0.4909806251525879,-0.1617669016122818,-9.953278541564941,0,0,44.0,1,1,1995,2060
90.16865000,90168650,1,-0.0007305247709155083,-0.0009690244332887232,0.0018515324918553233,-0.4890137314796448,-0.15886491537094116,-9.953076362609863,0,0,44.0,1,1,1995,2060
90.17130500,90171305,1,-0.0002558651613071561,-0.000551131262909621,0.0015337402001023293,-0.48984387516975403,-0.15574827790260315,-9.951269149780273,0,0,44.0,1,1,1995,2060
90.17363000,90173630,1,-0.0002664374769665301,-0.000123407065984793,0.0015325485728681087,-0.49109354615211487,-0.1504795104265213,-9.949947357177734,0,0,44.0,1,1,1995,2060
90.17613700,90176137,1,0.00025332148652523756,-0.0001567186991451308,0.0019211836624890566,-0.4900170564651489,-0.1452820897102356,-9.945816993713379,0,0,44.0,1,1,1995,2060
90.17886900,90178869,1,7.456650928361341e-05,-0.00048279808834195137,0.0016223926795646548,-0.48675620555877686,-0.14207732677459717,-9.938624382019043,0,0,44.0,1,1,1995,2060
90.18112700,90181127,1,-0.00036373615148477256,-0.000602393236476928,0.0010324723552912474,-0.48533114790916443,-0.14200212061405182,-9.934599876403809,0,0,44.0,1,1,1995,2060
90.18402900,90184029,1,-0.00025514536537230015,-0.00032759251189418137,0.00012740246893372387,-0.4832274615764618,-0.14602093398571014,-9.931467056274414,0,0,44.0,1,1,1995,2060
90.18613600,90186136,1,-0.0005027850857004523,0.00047590737813152373,-0.0004449111584108323,-0.47946447134017944,-0.1510321944952011,-9.93054485321045,0,0,44.0,1,1,1995,2060
90.18864900,90188649,1,4.0388305933447555e-05,0.0012590523110702634,-0.0010955933248624206,-0.4775664806365967,-0.15491175651550293,-9.930036544799805,0,0,44.0,1,1,1995,2060
90.19162000,90191620,1,0.00024494080571457744,0.0011419582879170775,-0.0007647988968528807,-0.47743117809295654,-0.1570284068584442,-9.933126449584961,0,0,44.0,1,1,1995,2060
90.19361700,90193617,1,0.00038591783959418535,0.001612936262972653,-0.0014256660360842943,-0.4794165790081024,-0.1535649299621582,-9.938246726989746,0,0,44.0,1,1,1995,2060
90.19652400,90196524,1,0.0007542041130363941,0.0017630584770813584,-0.0015242299996316433,-0.4838337004184723,-0.15163207054138184,-9.93911075592041,0,0,44.0,1,1,1995,2060
90.19863600,90198636,1,0.001431891811080277,0.0020875856280326843,-0.0010802332544699311,-0.48808905482292175,-0.15037237107753754,-9.939264297485352,0,0,44.0,1,1,1995,2060
90.20114500,90201145,1,0.0017461723182350397,0.0024265176616609097,-0.001113098463974893,-0.49116840958595276,-0.1477826088666916,-9.940020561218262,0,0,44.0,1,1,1995,2060
90.20390200,90203902,1,0.002173328073695302,0.00248198164626956,-0.0015813774662092328,-0.4922712743282318,-0.14870713651180267,-9.940055847167969,0,0,44.0,1,1,1995,2060
90.20613000,90206130,1,0.0022615219932049513,0.002136769937351346,-0.001578061142936349,-0.4893955588340759,-0.1517094224691391,-9.938776969909668,0,0,44.0,1,1,1995,2060
90.20887400,90208874,1,0.001827872358262539,0.0018967523938044906,-0.0013679669937118888,-0.4873795509338379,-0.15266326069831848,-9.941577911376953,0,0,44.0,1,1,1995,2060
90.21112300,90211123,1,0.0015608553076162934,0.0010301508009433746,-0.0013465998927131295,-0.48792150616645813,-0.1524432897567749,-9.94815731048584,0,0,44.0,1,1,1995,2060
90.21364400,90213644,1,0.0015396539820358157,0.00048445805441588163,-0.0013046262320131063,-0.4869688153266907,-0.15003688633441925,-9.952055931091309,0,0,44.0,1,1,1995,2060
90.21630500,90216305,1,0.0009349927422590554,0.00020054385822732002,-0.001318754511885345,-0.48375403881073,-0.1481303572654724,-9.951624870300293,0,0,44.0,1,1,1995,2060
90.21864500,90218645,1,0.0006585284718312323,-0.00032463367097079754,-0.0008530361810699105,-0.48175519704818726,-0.14683091640472412,-9.951213836669922,0,0,44.0,1,1,1995,2060
90.22128000,90221280,1,0.0009767974261194468,6.157351890578866e-05,-2.7745072657126002e-05,-0.4811409115791321,-0.14424021542072296,-9.951069831848145,0,0,44.0,1,1,1995,2060
90.22366300,90223663,1,0.0009823678992688656,0.0004179356328677386,0.0002128518681274727,-0.4831518232822418,-0.14255176484584808,-9.949677467346191,0,0,44.0,1,1,1995,2060
90.22612900,90226129,1,0.0009276744676753879,0.0005678905872628093,0.0009075540583580732,-0.48481354117393494,-0.14318546652793884,-9.947331428527832,0,0,44.0,1,1,1995,2060
90.22887200,90228872,1,0.0007783290930092335,0.0011235259007662535,0.0009456927073188126,-0.4828459918498993,-0.14472518861293793,-9.948723793029785,0,0,44.0,1,1,1995,2060
90.23115600,90231156,1,0.0010935948230326176,0.0015192464925348759,0.0002690848778001964,-0.48073333501815796,-0.1450306922197342,-9.948576927185059,0,0,44.0,1,1,1995,2060
90.23383200,90233832,1,0.0013599201338365674,0.001970800571143627,0.00026135199004784226,-0.4800352454185486,-0.14493565261363983,-9.951600074768066,0,0,44.0,1,1,1995,2060
90.23613500,90236135,1,0.0017089508473873138,0.002050993498414755,-9.812806092668325e-05,-0.48050516843795776,-0.14620527625083923,-9.955976486206055,0,0,44.0,1,1,1995,2060
90.23863700,90238637,1,0.0021012735087424517,0.001792088383808732,-3.234068935853429e-05,-0.48156869411468506,-0.14510096609592438,-9.95980453491211,0,0,44.0,1,1,1995,2060
90.24127100,90241271,1,0.0018701441586017609,0.0008550683269277215,0.00017949490575119853,-0.48427584767341614,-0.14583508670330048,-9.958609580993652,0,0,44.0,1,1,1995,2060
90.24366100,90243661,1,0.0016911918064579368,0.00025152089074254036,0.0005540805868804455,-0.4880621135234833,-0.14508849382400513,-9.958610534667969,0,0,44.0,1,1,1995,2060
90.24634100,90246341,1,0.0010098600760102272,-0.0005360753857530653,0.0006936845020391047,-0.4927801787853241,-0.14379943907260895,-9.959529876708984,0,0,44.0,1,1,1995,2060
90.24880400,90248804,1,0.00016259161930065602,-0.0007633209461346269,0.0007544127875007689,-0.4961063861846924,-0.14309976994991302,-9.960379600524902,0,0,44.0,1,1,1995,2060
90.25113300,90251133,1,-0.0007652427884750068,-0.0012342056725174189,0.0009245916735380888,-0.4958130717277527,-0.14397898316383362,-9.96257495880127,0,0,44.0,1,1,1995,2060
90.25379300,90253793,1,-0.0005293405265547335,-0.0010849973186850548,0.0005126101314090192,-0.49508681893348694,-0.14330145716667175,-9.964327812194824,0,0,44.0,1,1,1995,2060
90.25612900,90256129,1,-0.0003843636659439653,-0.0005498367827385664,0.0006055083940736949,-0.4929589629173279,-0.14403586089611053,-9.967269897460938,0,0,44.0,1,1,1995,2060
90.25883200,90258832,1,-0.0001693655358394608,-0.0001374971034238115,0.000619553669821471,-0.493091881275177,-0.14287391304969788,-9.966938972473145,0,0,44.0,1,1,1995,2060
90.26112600,90261126,1,-6.803776341257617e-05,0.00011093481589341536,0.00017588371702004224,-0.4957045316696167,-0.14230796694755554,-9.965516090393066,0,0,44.0,1,1,1995,2060
90.26364700,90263647,1,0.0003125068615190685,0.00016284766024909914,-0.0002474953362252563,-0.4973692297935486,-0.1415189951658249,-9.966988563537598,0,0,44.0,1,1,1995,2060
90.26627400,90266274,1,0.0001718250714475289,-0.00038126835715956986,-0.0007123834220692515,-0.49741002917289734,-0.1390111744403839,-9.970063209533691,0,0,44.0,1,1,1995,2060
90.26873100,90268731,1,-0.00021915276010986418,-0.0007852374110370874,-0.001081582740880549,-0.49701112508773804,-0.13781538605690002,-9.97006893157959,0,0,44.0,1,1,1995,2060
90.27127100,90271271,1,-0.000749508326407522,-0.0011704786447808146,-0.0008061096887104213,-0.4944378137588501,-0.13663294911384583,-9.968950271606445,0,0,44.0,1,1,1995,2060
90.27364200,90273642,1,-0.0009228359558619559,-0.0010920114582404494,-0.000785331183578819,-0.4898446798324585,-0.1383345127105713,-9.96858024597168,0,0,44.0,1,1,1995,2060
90.27613200,90276132,1,-0.0008051687618717551,-0.0011337774340063334,-0.0004041304928250611,-0.4879625737667084,-0.13917185366153717,-9.970072746276855,0,0,44.0,1,1,1995,2060
90.27878100,90278781,1,-0.0004223454452585429,-0.0014371277065947652,-0.0002718174655456096,-0.48797330260276794,-0.13735711574554443,-9.975516319274902,0,0,44.0,1,1,1995,2060
90.28113300,90281133,1,-0.00025710431509651244,-0.0014843130484223366,-0.0004757220740430057,-0.4901895821094513,-0.13663890957832336,-9.979559898376465,0,0,44.0,1,1,1995,2060
90.28403300,90284033,1,-0.00017700825992505997,-0.001835946342907846,-0.00034048224915750325,-0.4952610731124878,-0.13745158910751343,-9.978889465332031,0,0,44.0,1,1,1995,2060
90.28614100,90286141,1,0.0005766990361735225,-0.0016901142662391067,-0.00022510947019327432,-0.4988020062446594,-0.13746607303619385,-9.976303100585938,0,0,44.0,1,1,1995,2060
90.28866400,90288664,1,0.0008652392425574362,-0.00144548702519387,-0.0003870117070619017,-0.503659725189209,-0.1389128863811493,-9.97058391571045,0,0,44.0,1,1,1995,2060
90.29169700,90291697,1,0.001037196721881628,-0.0007488895789720118,-0.000565257272683084,-0.5038037896156311,-0.13918589055538177,-9.969156265258789,0,0,44.0,1,1,1995,2060
90.29362800,90293628,1,0.0007340530282817781,-6.6302736740908585e-06,-0.0011086688609793782,-0.4989537298679352,-0.14140115678310394,-9.957027435302734,0,0,44.0,1,1,1995,2060
90.29644900,90296449,1,0.0011341616045683622,0.0005323094082996249,-0.0013512306613847613,-0.49705687165260315,-0.1399306356906891,-9.951454162597656,0,0,44.0,1,1,1995,2060
90.29864100,90298641,1,0.001732734264805913,0.00109235814306885,-0.0011403070529922843,-0.4939901530742645,-0.13935160636901855,-9.951967239379883,0,0,44.0,1,1,1995,2060
90.30140600,90301406,1,0.002680758014321327,0.0015180038753896952,-0.001523597165942192,-0.4902888536453247,-0.1391252726316452,-9.953320503234863,0,0,44.0,1,1,1995,2060
90.30367800,90303678,1,0.0034267206210643053,0.0020140663255006075,-0.0013468248071148992,-0.48764392733573914,-0.13759924471378326,-9.957013130187988,0,0,44.0,1,1,1995,2060
90.30613200,90306132,1,0.0038802565541118383,0.0017701510805636644,-0.0009464908507652581,-0.4868512749671936,-0.13285668194293976,-9.96053695678711,0,0,44.0,1,1,1995,2060
90.30888800,90308888,1,0.0037058070302009583,0.0004873612488154322,-0.0003535067371558398,-0.48659229278564453,-0.128877654671669,-9.959775924682617,0,0,44.0,1,1,1995,2060
90.31113100,90311131,1,0.002924972679466009,7.011992420302704e-05,-9.29332454688847e-05,-0.48622065782546997,-0.12704326212406158,-9.957554817199707,0,0,44.0,1,1,1995,2060
90.31384100,90313841,1,0.0021746926940977573,-0.000784968608058989,-0.0001104365146602504,-0.4839351177215576,-0.12625426054000854,-9.952827453613281,0,0,44.0,1,1,1995,2060
90.31613300,90316133,1,0.0017378110205754638,-0.0011299052275717258,0.00012098373554181308,-0.48403453826904297,-0.12953341007232666,-9.947306632995605,0,0,44.0,1,1,1995,2060
90.31863000,90318630,1,0.0008849888690747321,-0.0005963645526207983,0.00038631929783150554,-0.48641863465309143,-0.1310531049966812,-9.941999435424805,0,0,44.0,1,1,1995,2060
90.32127600,90321276,1,0.0007566295098513365,0.00018579026800580323,0.00010573837789706886,-0.4875369369983673,-0.13510212302207947,-9.942008018493652,0,0,44.0,1,1,1995,2060
90.32363300,90323633,1,0.0007044997764751315,0.0007371785468421876,0.000356378237484023,-0.48906418681144714,-0.1392820030450821,-9.944540023803711,0,0,44.0,1,1,1995,2060
90.32627900,90326279,1,0.0008924113353714347,0.0008679545135237277,4.5281382199391373e-07,-0.4916739761829376,-0.14327643811702728,-9.949003219604492,0,0,44.0,1,1,1995,2060
90.32865300,90328653,1,0.0008227990474551916,0.0011103805154561996,0.00039469028706662357,-0.4940999448299408,-0.14768262207508087,-9.952044486999512,0,0,44.0,1,1,1995,2060
90.33113400,90331134,1,0.001069332822225988,0.0002547008916735649,0.0007280769059434533,-0.49849897623062134,-0.14903827011585236,-9.953439712524414,0,0,44.0,1,1,1995,2060
90.33377800,90333778,1,0.0013025125954300165,4.06706276407931e-05,0.0011080005206167698,-0.5051594972610474,-0.1455955058336258,-9.957026481628418,0,0,44.0,1,1,1995,2060
90.33614200,90336142,1,0.0012385897571220994,-0.00011085718870162964,0.0005604610196314752,-0.5105025172233582,-0.14025788009166718,-9.963753700256348,0,0,44.0,1,1,1995,2060
90.33877800,90338778,1,0.0012846272438764572,-0.0001987823925446719,0.0003425211471039802,-0.5120987296104431,-0.13719208538532257,-9.96724796295166,0,0,44.0,1,1,1995,2060
90.34112600,90341126,1,0.0011231222888454795,-0.00035248976200819016,6.043615212547593e-05,-0.5107278227806091,-0.13859480619430542,-9.96636962890625,0,0,44.0,1,1,1995,2060
90.34363400,90343634,1,0.0003835860115941614,-0.0004321656306274235,3.006418774020858e-05,-0.5078988075256348,-0.13908199965953827,-9.96349811553955,0,0,44.0,1,1,1995,2060
90.34627700,90346277,1,-0.0003045681514777243,-0.0004402908671181649,-0.00010320924775442109,-0.5052112340927124,-0.13894085586071014,-9.959308624267578,0,0,44.0,1,1,1995,2060
90.34872500,90348725,1,-0.0004298507119528949,-0.00026033801259472966,-0.00017565795860718936,-0.5016334652900696,-0.13822990655899048,-9.959547996520996,0,0,44.0,1,1,1995,2060
90.35127300,90351273,1,-0.0005585235776379704,4.1455576138105243e-05,-0.00032937232754193246,-0.4979966878890991,-0.1379651129245758,-9.958950996398926,0,0,44.0,1,1,1995,2060
90.35365600,90353656,1,-0.001144209410995245,0.0002156237023882568,-0.0006638478953391314,-0.49414533376693726,-0.13704842329025269,-9.959687232971191,0,0,44.0,1,1,1995,2060
90.35612800,90356128,1,-0.0011708117090165615,0.0002464434946887195,-0.0007227341993711889,-0.49437612295150757,-0.13683342933654785,-9.961437225341797,0,0,44.0,1,1,1995,2060
90.35891900,90358919,1,-0.0007689447375014424,0.0002100480633089319,-0.0006855091778561473,-0.4984017312526703,-0.13928435742855072,-9.96176815032959,0,0,44.0,1,1,1995,2060
90.36113100,90361131,1,8.524062650394626e-06,0.00038010909338481724,-0.0006327456794679165,-0.4988192319869995,-0.14360131323337555,-9.962703704833984,0,0,44.0,1,1,1995,2060
90.36378000,90363780,1,0.00041395818698219955,0.0005178360734134912,-0.0005960271810181439,-0.49485597014427185,-0.14660458266735077,-9.960516929626465,0,0,44.0,1,1,1995,2060
90.36613500,90366135,1,0.0001833983842516318,0.0006783138960599899,-0.0005868707085028291,-0.49024510383605957,-0.148866206407547,-9.957483291625977,0,0,44.0,1,1,1995,2060
90.36866700,90368667,1,0.00023038042127154768,0.0006829279591329396,-0.0004095170006621629,-0.4868723452091217,-0.14808624982833862,-9.957854270935059,0,0,44.0,1,1,1995,2060
90.37127500,90371275,1,-9.838102414505556e-05,0.0005003695259802043,-0.00010071408905787393,-0.48460185527801514,-0.14421479403972626,-9.956883430480957,0,0,44.0,1,1,1995,2060
90.37363100,90373631,1,-0.0003946031501982361,0.0007794144912622869,-0.00021993601694703102,-0.4871065318584442,-0.1410520374774933,-9.959626197814941,0,0,44.0,1,1,1995,2060
90.37627700,90376277,1,-0.0001020407653413713,0.00026276742573827505,-0.00010757578274933621,-0.4889514148235321,-0.13882681727409363,-9.963754653930664,0,0,44.0,1,1,1995,2060
90.37866000,90378660,1,0.0002458121452946216,-0.00010221206321148202,-0.00014393948367796838,-0.48950889706611633,-0.13718971610069275,-9.964980125427246,0,0,44.0,1,1,1995,2060
90.38114300,90381143,1,0.0004502460651565343,-0.00030641164630651474,-0.000106846506241709,-0.4892783463001251,-0.13843996822834015,-9.963973999023438,0,0,44.0,1,1,1995,2060
90.38403300,90384033,1,0.0005259256577119231,-0.0009796019876375794,0.00040351555799134076,-0.48597708344459534,-0.1402202844619751,-9.959370613098145,0,0,44.0,1,1,1995,2060
90.38613000,90386130,1,0.000735539710149169,-0.0010647425660863519,-5.4585703765042126e-05,-0.484747052192688,-0.1446027010679245,-9.95085334777832,0,0,44.0,1,1,1995,2060
90.38915300,90389153,1,0.0013281163992360234,-0.0008843733812682331,-0.0005851858295500278,-0.4849317669868469,-0.14568422734737396,-9.94637393951416,0,0,44.0,1,1,1995,2060
90.39111900,90391119,1,0.0011622466845437884,-0.0006376588135026395,-0.0007178916712291539,-0.4869501292705536,-0.14524219930171967,-9.945401191711426,0,0,44.0,1,1,1995,2060
90.39363400,90393634,1,0.001160530955530703,-0.0005766836111433804,-0.0005037380615249276,-0.4877374768257141,-0.14704246819019318,-9.94411563873291,0,0,44.0,1,1,1995,2060
90.39644100,90396441,1,0.0008488346356898546,-0.0004818269517272711,-0.0004855639417655766,-0.4871923327445984,-0.14941395819187164,-9.945586204528809,0,0,44.0,1,1,1995,2060
90.39864200,90398642,1,0.0006126589141786098,-0.00028898019809275866,-0.0006512881373055279,-0.48653697967529297,-0.1485453099012375,-9.953246116638184,0,0,44.0,1,1,1995,2060
90.40136800,90401368,1,0.0008437497308477759,-0.00037963007343932986,-0.0013191485777497292,-0.487787663936615,-0.1489836871623993,-9.956707000732422,0,0,44.0,1,1,1995,2060
90.40365800,90403658,1,0.0008723415085114539,-0.0004752161621581763,-0.0010794157860800624,-0.49092015624046326,-0.149797260761261,-9.965304374694824,0,0,44.0,1,1,1995,2060
90.40617500,90406175,1,0.0009712827741168439,-0.00017469112935941666,-0.0012527165235951543,-0.49431222677230835,-0.14925602078437805,-9.974766731262207,0,0,44.0,1,1,1995,2060
90.40888600,90408886,1,0.0015361708356067538,-0.0006575474399141967,-0.0012287667486816645,-0.4977092742919922,-0.14983943104743958,-9.98021411895752,0,0,44.0,1,1,1995,2060
90.41114300,90411143,1,0.0017933902563527226,-0.000699870171956718,-0.0013733725063502789,-0.49786287546157837,-0.14675283432006836,-9.982760429382324,0,0,44.0,1,1,1995,2060
90.41377900,90413779,1,0.001850535860285163,-0.00039352275780402124,-0.0015475923428311944,-0.49415478110313416,-0.14501576125621796,-9.984390258789062,0,0,44.0,1,1,1995,2060
90.41614500,90416145,1,0.0019539680797606707,-0.000228507662541233,-0.000943633436691016,-0.4931304454803467,-0.1440049707889557,-9.985396385192871,0,0,44.0,1,1,1995,2060
90.41862500,90418625,1,0.0021193616557866335,-0.00014239572919905186,-0.0001757810532581061,-0.4905066192150116,-0.14446449279785156,-9.979387283325195,0,0,44.0,1,1,1995,2060
90.42127600,90421276,1,0.0020964909344911575,4.1659557609818876e-05,-0.00013402655895333737,-0.48934903740882874,-0.1464366465806961,-9.974377632141113,0,0,44.0,1,1,1995,2060
90.42362800,90423628,1,0.002229546895250678,-8.398584213864524e-06,-0.00014669208030682057,-0.4911641478538513,-0.14636924862861633,-9.969889640808105,0,0,44.0,1,1,1995,2060
90.42637900,90426379,1,0.0017019808292388916,0.00011682813783409074,-4.594916390487924e-05,-0.4946228861808777,-0.1466064304113388,-9.970279693603516,0,0,44.0,1,1,1995,2060
90.42864300,90428643,1,0.0012835832312703133,0.000521929410751909,0.00013288277841638774,-0.49583885073661804,-0.1482086330652237,-9.968963623046875,0,0,44.0,1,1,1995,2060
90.43113300,90431133,1,0.0006861641304567456,0.00029587268363684416,-0.00018810262554325163,-0.4957447052001953,-0.1497555375099182,-9.966517448425293,0,0,44.0,1,1,1995,2060
90.43380600,90433806,1,3.872503657476045e-05,0.00043344925506971776,-0.0003401780850253999,-0.4933110177516937,-0.15215297043323517,-9.96153450012207,0,0,44.0,1,1,1995,2060
90.43616400,90436164,1,-0.0003359357360750437,0.0007448099204339087,-0.00019127261475659907,-0.4910343885421753,-0.15424245595932007,-9.954919815063477,0,0,44.0,1,1,1995,2060
90.43888200,90438882,1,-0.0005467180744744837,0.0009300754754804075,-6.41447986708954e-05,-0.49006572365760803,-0.15566103160381317,-9.952895164489746,0,0,44.0,1,1,1995,2060
90.44114000,90441140,1,-0.00022481635096482933,0.0009795119985938072,-6.313455378403887e-05,-0.4882200062274933,-0.15298961102962494,-9.952683448791504,0,0,44.0,1,1,1995,2060
90.44362300,90443623,1,-6.067817594157532e-05,0.0010453035356476903,8.49681964609772e-05,-0.4875012934207916,-0.15037259459495544,-9.953112602233887,0,0,44.0,1,1,1995,2060
90.44628000,90446280,1,0.0006360113620758057,0.0014594558160752058,0.00014487798034679145,-0.4867551028728485,-0.14612716436386108,-9.953723907470703,0,0,44.0,1,1,1995,2060
90.44873300,90448733,1,0.0008127377950586379,0.001358234090730548,0.00011141800496261567,-0.4860203266143799,-0.14224311709403992,-9.955355644226074,0,0,44.0,1,1,1995,2060
90.45130700,90451307,1,0.0012746989959850907,0.0010401071049273014,0.00010296698746969923,-0.48523759841918945,-0.13896337151527405,-9.954862594604492,0,0,44.0,1,1,1995,2060
90.45362500,90453625,1,0.0021950528025627136,0.0015351936453953385,-8.78066784935072e-05,-0.48570385575294495,-0.13720248639583588,-9.953170776367188,0,0,44.0,1,1,1995,2060
90.45613800,90456138,1,0.002590214367955923,0.0020017926581203938,-0.00018979808373842388,-0.48451104760169983,-0.138185515999794,-9.954000473022461,0,0,44.0,1,1,1995,2060
90.45891900,90458919,1,0.0026025676634162664,0.0016939492197707295,-0.00018189109687227756,-0.4824633002281189,-0.14182572066783905,-9.958041191101074,0,0,44.0,1,1,1995,2060
90.46113100,90461131,1,0.0020395892206579447,0.0010234465589746833,8.578796405345201e-05,-0.480219304561615,-0.1459691822528839,-9.961934089660645,0,0,44.0,1,1,1995,2060
90.46377400,90463774,1,0.0017849126597866416,0.0005696364096365869,0.00032783718779683113,-0.48091748356819153,-0.14537867903709412,-9.967236518859863,0,0,44.0,1,1,1995,2060
90.46614700,90466147,1,0.0018737259088084102,-0.000274920545052737,0.0010378678562119603,-0.4818241596221924,-0.14615997672080994,-9.970059394836426,0,0,44.0,1,1,1995,2060
90.46864900,90468649,1,0.0016870037652552128,-0.0004106131091248244,0.0012264626566320658,-0.48001497983932495,-0.14884409308433533,-9.966341018676758,0,0,44.0,1,1,1995,2060
90.47138200,90471382,1,0.0011112282518297434,-0.00011203435133211315,0.0009885820327326655,-0.4767245948314667,-0.14998623728752136,-9.96109390258789,0,0,44.0,1,1,1995,2060
90.47363400,90473634,1,0.0008822017698548734,-0.0006356111844070256,0.0010317362612113357,-0.474361777305603,-0.14967761933803558,-9.954021453857422,0,0,44.0,1,1,1995,2060
90.47627300,90476273,1,0.00044460518984124064,-0.0007639412069693208,0.0007606198196299374,-0.4743468463420868,-0.14949999749660492,-9.948945999145508,0,0,44.0,1,1,1995,2060
90.47862800,90478628,1,0.00012114174023736268,-0.0006051396485418081,0.0008286217926070094,-0.47578927874565125,-0.14933636784553528,-9.94677448272705,0,0,44.0,1,1,1995,2060
90.48118800,90481188,1,-0.000790778489317745,-0.00036113837268203497,0.0003062300384044647,-0.47891831398010254,-0.14868895709514618,-9.947007179260254,0,0,44.0,1,1,1995,2060
90.48366500,90483665,1,-0.0009854503441601992,0.00017249367374461144,0.00011758189066313207,-0.48460879921913147,-0.14837300777435303,-9.949495315551758,0,0,44.0,1,1,1995,2060
90.48660700,90486607,1,-0.0008140355930663645,0.0006132135749794543,-0.0004072398296557367,-0.4907246530056,-0.14835932850837708,-9.951903343200684,0,0,44.0,1,1,1995,2060
90.48924800,90489248,1,-0.0004834815626963973,0.0001458072365494445,-0.00023412209702655673,-0.4977458417415619,-0.1458154022693634,-9.956012725830078,0,0,44.0,1,1,1995,2060
90.49116500,90491165,1,-0.0003041564777959138,0.00027226866222918034,0.00015667804109398276,-0.5062993764877319,-0.14193445444107056,-9.963456153869629,0,0,44.0,1,1,1995,2060
90.49369100,90493691,1,0.00011454298510216177,0.0005070687620900571,0.00021857688261661679,-0.5127556920051575,-0.14203597605228424,-9.970498085021973,0,0,44.0,1,1,1995,2060
90.49617000,90496170,1,0.00041975980275310576,0.0006993193528614938,-0.000557010411284864,-0.5165179371833801,-0.1434614062309265,-9.975860595703125,0,0,44.0,1,1,1995,2060
90.49899700,90498997,1,0.0011269004317000508,0.00013786880299448967,-0.0009495177073404193,-0.5184447169303894,-0.1445598006248474,-9.983465194702148,0,0,44.0,1,1,1995,2060
90.50142200,90501422,1,0.0010673588840290904,-0.00010079316416522488,-0.0009838028345257044,-0.5184879302978516,-0.1458275467157364,-9.987425804138184,0,0,44.0,1,1,1995,2060
90.50371900,90503719,1,0.0008157262927852571,0.00044086662819609046,-0.0010754619725048542,-0.514785647392273,-0.14870572090148926,-9.991416931152344,0,0,44.0,1,1,1995,2060
90.50617900,90506179,1,0.000900309591088444,0.001031061401590705,-0.0010231639025732875,-0.5077263116836548,-0.1529075652360916,-9.994155883789062,0,0,44.0,1,1,1995,2060
90.50868400,90508684,1,0.0010766120394691825,0.001408930285833776,-0.0010927080875262618,-0.5022222399711609,-0.1548604816198349,-9.995393753051758,0,0,44.0,1,1,1995,2060
90.51147100,90511471,1,0.0010771580273285508,0.0017469843151047826,-0.00037899648305028677,-0.5005966424942017,-0.1553056538105011,-9.9964599609375,0,0,44.0,1,1,1995,2060
90.51395800,90513958,1,0.001251310808584094,0.0006626022513955832,0.00022962316870689392,-0.5010969638824463,-0.1551833301782608,-9.998019218444824,0,0,44.0,1,1,1995,2060
90.51656600,90516566,1,0.001817599986679852,-0.00011340248602209613,0.000666302687022835,-0.5025979280471802,-0.15313845872879028,-9.999314308166504,0,0,44.0,1,1,1995,2060
90.51897600,90518976,1,0.0016573318280279636,4.4268701458349824e-05,0.0007630877080373466,-0.5053749680519104,-0.15176868438720703,-10.000293731689453,0,0,44.0,1,1,1995,2060
90.52122100,90521221,1,0.0014817985938861966,0.0004944878164678812,0.0009665861143730581,-0.5061862468719482,-0.1519497036933899,-9.998010635375977,0,0,44.0,1,1,1995,2060
90.52390800,90523908,1,0.0009648437262512743,0.000652762595564127,0.0010166974971070886,-0.5097516775131226,-0.15217702090740204,-9.992729187011719,0,0,44.0,1,1,1995,2060
90.52643500,90526435,1,0.0003617680922616273,0.0006833941442891955,0.0010318130953237414,-0.507978618144989,-0.1515713781118393,-9.988417625427246,0,0,44.0,1,1,1995,2060
90.52869200,90528692,1,5.905040598008782e-05,0.0004550577432382852,0.0015238687628880143,-0.5032026171684265,-0.15263506770133972,-9.984029769897461,0,0,44.0,1,1,1995,2060
90.53120500,90531205,1,-0.00021423316502477974,0.00014143736916594207,0.0020102111157029867,-0.498214453458786,-0.15481384098529816,-9.978801727294922,0,0,44.0,1,1,1995,2060
90.53365600,90533656,1,-0.0003252851602155715,0.00028307511820457876,0.002150810556486249,-0.48950818181037903,-0.15578623116016388,-9.971589088439941,0,0,44.0,1,1,1995,2060
90.53642800,90536428,1,-0.0008265645010396838,0.0001566311693750322,0.002531942678615451,-0.4842556118965149,-0.15440216660499573,-9.966401100158691,0,0,44.0,1,1,1995,2060
90.53899100,90538991,1,-0.0004178253002464771,-0.0006455347174778581,0.003074269974604249,-0.48438289761543274,-0.1515686810016632,-9.963305473327637,0,0,44.0,1,1,1995,2060
90.54119500,90541195,1,-4.747527782456018e-05,-0.0015461978036910295,0.002774941036477685,-0.48818445205688477,-0.15096524357795715,-9.961336135864258,0,0,44.0,1,1,1995,2060
90.54369100,90543691,1,-0.0001860193588072434,-0.001754855620674789,0.002878911327570677,-0.492033451795578,-0.14614638686180115,-9.961435317993164,0,0,44.0,1,1,1995,2060
90.54623000,90546230,1,-1.2164207873865962e-05,-0.0021092284005135298,0.0029432778246700764,-0.4964704215526581,-0.14112459123134613,-9.96473217010498,0,0,44.0,1,1,1995,2060
90.54901200,90549012,1,-9.892076923279092e-05,-0.0019965125247836113,0.002437649294734001,-0.4997052848339081,-0.1394968181848526,-9.96540355682373,0,0,44.0,1,1,1995,2060
90.55142700,90551427,1,0.00027030997443944216,-0.0018687431002035737,0.0020763163920491934,-0.49957165122032166,-0.14089630544185638,-9.965211868286133,0,0,44.0,1,1,1995,2060
90.55367500,90553675,1,0.00047884404193609953,-0.0015877758851274848,0.001551519031636417,-0.4973124563694,-0.14057350158691406,-9.966981887817383,0,0,44.0,1,1,1995,2060
90.55620000,90556200,1,0.0007641932461410761,-0.0015608411049470305,0.0012915617553517222,-0.4932250380516052,-0.139856219291687,-9.971280097961426,0,0,44.0,1,1,1995,2060
90.55871700,90558717,1,0.0009253295138478279,-0.0014448862057179213,0.001117188949137926,-0.48755332827568054,-0.14007310569286346,-9.97462272644043,0,0,44.0,1,1,1995,2060
90.56143400,90561434,1,0.0008721933700144291,-0.0015913349343463778,0.0013617556542158127,-0.48662835359573364,-0.14030174911022186,-9.97803783416748,0,0,44.0,1,1,1995,2060
90.56396400,90563964,1,0.0007517246995121241,-0.000980122247710824,0.0014965713489800692,-0.4877287447452545,-0.13772517442703247,-9.980047225952148,0,0,44.0,1,1,1995,2060
90.56623300,90566233,1,0.0003584067744668573,-0.000401515222620219,0.0013706386089324951,-0.49008938670158386,-0.13430027663707733,-9.981573104858398,0,0,44.0,1,1,1995,2060
90.56870400,90568704,1,0.0008239456219598651,7.812002877471969e-05,0.0012338670203462243,-0.4915032684803009,-0.13546781241893768,-9.983414649963379,0,0,44.0,1,1,1995,2060
90.57118900,90571189,1,0.001011520391330123,0.0005608347128145397,0.0010798322036862373,-0.4925472140312195,-0.1375400722026825,-9.986574172973633,0,0,44.0,1,1,1995,2060
90.57391800,90573918,1,0.0009523974149487913,0.0006881438312120736,0.0009113274863921106,-0.4905780255794525,-0.1421290636062622,-9.987513542175293,0,0,44.0,1,1,1995,2060
90.57639700,90576397,1,0.0012717786012217402,0.0004564792907331139,-0.00013951169967185706,-0.4897731840610504,-0.14905627071857452,-9.988076210021973,0,0,44.0,1,1,1995,2060
90.57868600,90578686,1,0.0012343021808192134,0.0009554551215842366,-0.00046223559183999896,-0.4909990131855011,-0.1524040549993515,-9.98590087890625,0,0,44.0,1,1,1995,2060
90.58117200,90581172,1,0.0007596149807795882,0.0016135622281581163,-0.0003828152548521757,-0.4936102330684662,-0.15103104710578918,-9.98016357421875,0,0,44.0,1,1,1995,2060
90.58370200,90583702,1,0.0007076743640936911,0.001954291481524706,-0.0003385534801054746,-0.4939846098423004,-0.1482132077217102,-9.97318172454834,0,0,44.0,1,1,1995,2060
90.58662000,90586620,1,0.0011466325959190726,0.0019723374862223864,-0.00044512448948808014,-0.49308112263679504,-0.14806939661502838,-9.96721076965332,0,0,44.0,1,1,1995,2060
90.58924500,90589245,1,0.0012577030574902892,0.0013571020681411028,-0.00040335359517484903,-0.49065589904785156,-0.14555904269218445,-9.966059684753418,0,0,44.0,1,1,1995,2060
90.59120300,90591203,1,0.0012627135729417205,0.0005809535505250096,-0.0001268705673282966,-0.4896955192089081,-0.1448679119348526,-9.965399742126465,0,0,44.0,1,1,1995,2060
90.59369000,90593690,1,0.0014910423196852207,-8.171150693669915e-05,0.0005645769415423274,-0.4897283613681793,-0.14274246990680695,-9.966086387634277,0,0,44.0,1,1,1995,2060
90.59617100,90596171,1,0.0016040484188124537,-0.0009697640198282897,0.0011566717876121402,-0.4882252812385559,-0.14118406176567078,-9.965741157531738,0,0,44.0,1,1,1995,2060
90.59906300,90599063,1,0.0012894202955067158,-0.0007883032667450607,0.0015457870904356241,-0.48315393924713135,-0.1396336704492569,-9.96178913116455,0,0,44.0,1,1,1995,2060
90.60139200,90601392,1,0.0011804531095549464,-0.000649833760689944,0.0014900837559252977,-0.4785132110118866,-0.1383388340473175,-9.961515426635742,0,0,44.0,1,1,1995,2060
90.60375400,90603754,1,0.0011773949954658747,-0.001049041049554944,0.0015985628124326468,-0.47427278757095337,-0.1380862295627594,-9.961645126342773,0,0,44.0,1,1,1995,2060
90.60619400,90606194,1,0.0011871263850480318,-0.0008060616673901677,0.001191998366266489,-0.4689650237560272,-0.1407485157251358,-9.958905220031738,0,0,44.0,1,1,1995,2060
90.60893200,90608932,1,0.0012688847491517663,-0.0005617946735583246,0.0006114960415288806,-0.4655398726463318,-0.14329880475997925,-9.956939697265625,0,0,44.0,1,1,1995,2060
90.61121200,90611212,1,0.0008151415968313813,-0.0002505152369849384,0.00010323233436793089,-0.4664827287197113,-0.14212575554847717,-9.960942268371582,0,0,44.0,1,1,1995,2060
90.61391300,90613913,1,0.0006209306884557009,-0.00013570960436481982,8.385775436181575e-05,-0.4715515673160553,-0.13986125588417053,-9.972114562988281,0,0,44.0,1,1,1995,2060
90.61620000,90616200,1,0.0010468054097145796,-0.0001985662674997002,0.00036472443025559187,-0.4795362949371338,-0.13835810124874115,-9.982999801635742,0,0,44.0,1,1,1995,2060
90.61871400,90618714,1,0.0010119496146216989,-0.0005957612302154303,0.00026711777900345623,-0.4833231568336487,-0.13370388746261597,-9.987024307250977,0,0,44.0,1,1,1995,2060
90.62138200,90621382,1,0.0008572657243348658,-0.0013459648471325636,0.0002565141476225108,-0.4866340160369873,-0.12872980535030365,-9.98488712310791,0,0,44.0,1,1,1995,2060
90.62367700,90623677,1,0.0010068448027595878,-0.0016639017267152667,0.00017965471488423645,-0.4925689697265625,-0.126517191529274,-9.975895881652832,0,0,44.0,1,1,1995,2060
90.62642600,90626426,1,0.0011161091970279813,-0.0011826909612864256,0.0006041019805707037,-0.4969678223133087,-0.12610392272472382,-9.96613597869873,0,0,44.0,1,1,1995,2060
90.62871000,90628710,1,0.001034141518175602,-0.0009870693320408463,-1.3639008102472872e-05,-0.4983339011669159,-0.1261463165283203,-9.960501670837402,0,0,44.0,1,1,1995,2060
90.63118000,90631180,1,0.0015879049897193909,-0.0005945103475823998,0.00026036505005322397,-0.49899449944496155,-0.12505432963371277,-9.958510398864746,0,0,44.0,1,1,1995,2060
90.63393800,90633938,1,0.0013205691939219832,-7.128191646188498e-05,-6.117085831647273e-06,-0.50027996301651,-0.12632371485233307,-9.955166816711426,0,0,44.0,1,1,1995,2060
90.63618400,90636184,1,0.0013914202572777867,4.854401413467713e-05,-0.0003101465408690274,-0.49716055393218994,-0.1261192411184311,-9.950067520141602,0,0,44.0,1,1,1995,2060
90.63890000,90638900,1,0.001188485766761005,0.0006575239822268486,-0.0006522802286781371,-0.49204522371292114,-0.1271630972623825,-9.946321487426758,0,0,44.0,1,1,1995,2060
90.64120500,90641205,1,0.0006513241678476334,0.0008987291366793215,-0.00015294853074010462,-0.4854162931442261,-0.13003277778625488,-9.943017959594727,0,0,44.0,1,1,1995,2060
90.64367300,90643673,1,0.0008399707730859518,0.0008375543402507901,-0.00020852763555012643,-0.48461440205574036,-0.13353057205677032,-9.949113845825195,0,0,44.0,1,1,1995,2060
90.64639900,90646399,1,0.0013777241110801697,0.0008309422992169857,-0.00018305308185517788,-0.4851987063884735,-0.1361631155014038,-9.955204963684082,0,0,44.0,1,1,1995,2060
90.64880000,90648800,1,0.0010170983150601387,0.000565206166356802,5.104288356960751e-05,-0.4873414635658264,-0.1350572258234024,-9.964303016662598,0,0,44.0,1,1,1995,2060
90.65144200,90651442,1,0.0009294936317019165,0.0002909546310547739,0.00032783354981802404,-0.48623090982437134,-0.13600598275661469,-9.971866607666016,0,0,44.0,1,1,1995,2060
90.65367400,90653674,1,0.0006557062151841819,0.000145643949508667,0.00044772657565772533,-0.4815184772014618,-0.13835451006889343,-9.976515769958496,0,0,44.0,1,1,1995,2060
90.65617600,90656176,1,0.000691309105604887,-0.00042205609497614205,0.0002637704892549664,-0.4776553809642792,-0.13719575107097626,-9.981022834777832,0,0,44.0,1,1,1995,2060
90.65888400,90658884,1,0.0004987451829947531,-0.0003568768152035773,-0.00010401631152490154,-0.476421982049942,-0.13598862290382385,-9.983827590942383,0,0,44.0,1,1,1995,2060
90.66120600,90661206,1,0.0002650831884238869,-0.0008885639254003763,-0.0006346662994474173,-0.4772314429283142,-0.13460253179073334,-9.98263931274414,0,0,44.0,1,1,1995,2060
90.66393000,90663930,1,0.00030281019280664623,-0.0009316111681982875,8.571639045840129e-05,-0.47982895374298096,-0.13033755123615265,-9.978821754455566,0,0,44.0,1,1,1995,2060
90.66618100,90666181,1,0.0012368849711492658,-0.001360007212497294,0.00047474485472775996,-0.48583298921585083,-0.12395135313272476,-9.974197387695312,0,0,44.0,1,1,1995,2060
90.66871000,90668710,1,0.0013679806143045425,-0.0020145848393440247,0.001150867436081171,-0.49010077118873596,-0.12168840318918228,-9.965446472167969,0,0,44.0,1,1,1995,2060
90.67141300,90671413,1,0.0013036779128015041,-0.0015199759509414434,0.0009798436658456922,-0.49015045166015625,-0.1238260269165039,-9.95482063293457,0,0,44.0,1,1,1995,2060
90.67367500,90673675,1,0.001977435080334544,-0.0008667577058076859,0.0008913029450923204,-0.4875441789627075,-0.13061755895614624,-9.945764541625977,0,0,44.0,1,1,1995,2060
90.67643900,90676439,1,0.002524866722524166,-0.001217535464093089,0.0008994863601401448,-0.4869331419467926,-0.13530917465686798,-9.941312789916992,0,0,44.0,1,1,1995,2060
90.67870500,90678705,1,0.0030019846744835377,-0.0010701859137043357,0.001093386672437191,-0.4823431670665741,-0.14364919066429138,-9.936529159545898,0,0,44.0,1,1,1995,2060
90.68160600,90681606,1,0.0026405418757349253,-0.0009773839265108109,0.0009671490406617522,-0.48114824295043945,-0.1480589509010315,-9.935521125793457,0,0,44.0,1,1,1995,2060
90.68370500,90683705,1,0.0025044449139386415,-0.0012950970558449626,0.000660128251183778,-0.48182475566864014,-0.15235115587711334,-9.931589126586914,0,0,44.0,1,1,1995,2060
90.68617400,90686174,1,0.001457197591662407,-0.0013070632703602314,0.0009012779337354004,-0.4812246561050415,-0.15285445749759674,-9.93246841430664,0,0,44.0,1,1,1995,2060
90.68921900,90689219,1,0.0012279023649170995,-0.0008937754319049418,0.001245442545041442,-0.48301005363464355,-0.15158331394195557,-9.934355735778809,0,0,44.0,1,1,1995,2060
90.69116000,90691160,1,0.0009945402853190899,-0.00010651734919520095,0.0016042653005570173,-0.48338621854782104,-0.15129554271697998,-9.935487747192383,0,0,44.0,1,1,1995,2060
90.69405200,90694052,1,0.0006928772199898958,0.0005162024754099548,0.001030749292112887,-0.48158755898475647,-0.15229110419750214,-9.941154479980469,0,0,44.0,1,1,1995,2060
90.69619100,90696191,1,0.0006623996887356043,0.0006229160935617983,0.0008520625997334719,-0.478561669588089,-0.15264180302619934,-9.944536209106445,0,0,44.0,1,1,1995,2060
90.69867600,90698676,1,0.0013541748048737645,5.4640746384393424e-05,0.0006289631710387766,-0.4774990677833557,-0.15169429779052734,-9.950867652893066,0,0,44.0,1,1,1995,2060
90.70140900,90701409,1,0.0015433123335242271,-0.0009865625761449337,9.189122647512704e-05,-0.4789545238018036,-0.15015631914138794,-9.96278190612793,0,0,44.0,1,1,1995,2060
90.70375200,90703752,1,0.0011081943521276116,-0.001627755118533969,-8.366204565390944e-05,-0.4851566255092621,-0.14765721559524536,-9.977020263671875,0,0,44.0,1,1,1995,2060
90.70639100,90706391,1,0.0008875936619006097,-0.0019486566307023168,0.000249450997216627,-0.4893118143081665,-0.14737080037593842,-9.988896369934082,0,0,44.0,1,1,1995,2060
90.70871700,90708717,1,0.0008721860940568149,-0.0015499466098845005,0.0010308771161362529,-0.4926289916038513,-0.1451537013053894,-10.000672340393066,0,0,44.0,1,1,1995,2060
90.71117000,90711170,1,0.0010099145583808422,-0.0012009964557364583,0.0011272307019680738,-0.4930860102176666,-0.1404605358839035,-10.0042142868042,0,0,44.0,1,1,1995,2060
90.71388300,90713883,1,0.0009267712594009936,-0.000824921706225723,0.0009433121886104345,-0.4923507869243622,-0.13770809769630432,-10.001521110534668,0,0,44.0,1,1,1995,2060
90.71618700,90716187,1,0.0010413839481770992,-0.0006194731104187667,0.0004796019638888538,-0.49274569749832153,-0.13512961566448212,-9.996235847473145,0,0,44.0,1,1,1995,2060
90.71901800,90719018,1,0.0012613533763214946,-0.00028675360954366624,0.00026990388869307935,-0.49582645297050476,-0.13374961912631989,-9.990428924560547,0,0,44.0,1,1,1995,2060
90.72118700,90721187,1,0.001685767201706767,-0.0003509130619931966,0.00019112395239062607,-0.5008225440979004,-0.13648808002471924,-9.982848167419434,0,0,44.0,1,1,1995,2060
90.72372400,90723724,1,0.0014223325997591019,-0.00043615387403406203,0.0002637245343066752,-0.5039771795272827,-0.14005450904369354,-9.977225303649902,0,0,44.0,1,1,1995,2060
90.72638300,90726383,1,0.0012093698605895042,-0.0002744206285569817,0.00047959588118828833,-0.5061810612678528,-0.14556242525577545,-9.972004890441895,0,0,44.0,1,1,1995,2060
90.72892700,90728927,1,0.0011085602454841137,-0.0006233072490431368,0.0006386068416759372,-0.5079209208488464,-0.14782439172267914,-9.968244552612305,0,0,44.0,1,1,1995,2060
90.73121900,90731219,1,0.0007252134382724762,-0.0007032048888504505,0.001095999381504953,-0.5089082717895508,-0.1469871550798416,-9.968241691589355,0,0,44.0,1,1,1995,2060
90.73368000,90733680,1,0.00031285459408536553,-0.0009921020828187466,0.000778722926042974,-0.50862717628479,-0.1450100988149643,-9.971272468566895,0,0,44.0,1,1,1995,2060
90.73618800,90736188,1,-0.00042588100768625736,-0.0012601432390511036,0.00012811957276426256,-0.505699098110199,-0.14241769909858704,-9.970193862915039,0,0,44.0,1,1,1995,2060
90.73890200,90738902,1,-0.000827337265945971,-0.0013289612252265215,0.00023889157455414534,-0.5013629198074341,-0.13913266360759735,-9.966885566711426,0,0,44.0,1,1,1995,2060
90.74147400,90741474,1,-0.0010271279606968164,-0.0008374773897230625,0.0003162517095915973,-0.496205598115921,-0.13522452116012573,-9.962235450744629,0,0,44.0,1,1,1995,2060
90.74370500,90743705,1,-0.0007849396206438541,-0.000931752088945359,4.332928256189916e-06,-0.49125880002975464,-0.13258492946624756,-9.960232734680176,0,0,44.0,1,1,1995,2060
90.74618100,90746181,1,-0.0008940068073570728,-0.0005684512434527278,-0.0004012094286736101,-0.48466402292251587,-0.1321510225534439,-9.959503173828125,0,0,44.0,1,1,1995,2060
90.74877000,90748770,1,-0.0014075434301048517,-0.0006735821370966733,-0.00039242577622644603,-0.47990846633911133,-0.13582131266593933,-9.958534240722656,0,0,44.0,1,1,1995,2060
90.75144700,90751447,1,-0.0020336629822850227,-0.0006734066992066801,1.1746359632525127e-05,-0.4765995740890503,-0.13958388566970825,-9.960808753967285,0,0,44.0,1,1,1995,2060
90.75391300,90753913,1,-0.0021036332473158836,-0.000500209687743336,0.0001556527568027377,-0.47708985209465027,-0.13910537958145142,-9.964698791503906,0,0,44.0,1,1,1995,2060
90.75618500,90756185,1,-0.0019446295918896794,-0.0007372874533757567,-8.976733079180121e-05,-0.4789172112941742,-0.1371462196111679,-9.967543601989746,0,0,44.0,1,1,1995,2060
90.75867300,90758673,1,-0.0008266329532489181,-0.0009219070780090988,-0.000517397653311491,-0.48035532236099243,-0.13641464710235596,-9.972765922546387,0,0,44.0,1,1,1995,2060
90.76118000,90761180,1,0.0003269469307269901,-0.0014060010435059667,-0.000555782055016607,-0.48173633217811584,-0.13506430387496948,-9.977715492248535,0,0,44.0,1,1,1995,2060
90.76392700,90763927,1,0.0009979312308132648,-0.0011748784454539418,-0.0008311935234814882,-0.4814000725746155,-0.13253265619277954,-9.979684829711914,0,0,44.0,1,1,1995,2060
90.76640600,90766406,1,0.0012747666332870722,-0.0013785918708890676,-0.0008146640029735863,-0.4836539924144745,-0.1310245841741562,-9.982549667358398,0,0,44.0,1,1,1995,2060
90.76870600,90768706,1,0.0015563031192868948,-0.0014312451239675283,-0.0012548227095976472,-0.4864463806152344,-0.1324012279510498,-9.982346534729004,0,0,44.0,1,1,1995,2060
90.77119700,90771197,1,0.001251070061698556,-0.0005929710459895432,-0.0012152089038863778,-0.4871143698692322,-0.1342303305864334,-9.979859352111816,0,0,44.0,1,1,1995,2060
90.77367900,90773679,1,0.0007901128265075386,-0.00024701838265173137,-0.0009919333970174193,-0.4894551634788513,-0.13644476234912872,-9.975499153137207,0,0,44.0,1,1,1995,2060
90.77654300,90776543,1,0.0007622616831213236,-0.0005416332860477269,-0.001022491604089737,-0.4910346567630768,-0.13834579288959503,-9.972248077392578,0,0,44.0,1,1,1995,2060
90.77868100,90778681,1,-0.00017549424956087023,-0.0002204245247412473,-0.0008680325117893517,-0.49106284976005554,-0.14039935171604156,-9.968249320983887,0,0,44.0,1,1,1995,2060
90.78116000,90781160,1,-0.0009439716814085841,-0.00015152459673117846,-0.0009572481503710151,-0.4908323585987091,-0.14043967425823212,-9.96608829498291,0,0,44.0,1,1,1995,2060
90.78370300,90783703,1,-0.0011139691341668367,-0.000500963069498539,-0.0009740470559336245,-0.491841197013855,-0.14147791266441345,-9.963605880737305,0,0,44.0,1,1,1995,2060
90.78620300,90786203,1,-0.0008448713342659175,-0.0005541471182368696,1.702965164440684e-05,-0.4922982156276703,-0.14136357605457306,-9.960904121398926,0,0,44.0,1,1,1995,2060
90.78976800,90789768,1,-0.00033143346081487834,-0.0006426099571399391,5.988363773212768e-05,-0.49361148476600647,-0.14153815805912018,-9.959694862365723,0,0,44.0,1,1,1995,2060
90.79123100,90791231,1,-3.374072548467666e-05,-0.0008013940532691777,-0.00019580013758968562,-0.49514755606651306,-0.14133769273757935,-9.959100723266602,0,0,44.0,1,1,1995,2060
90.79367900,90793679,1,0.00023641969892196357,-0.001555309514515102,-0.00045425217831507325,-0.49437448382377625,-0.14033465087413788,-9.955116271972656,0,0,44.0,1,1,1995,2060
90.79617900,90796179,1,0.000423913705162704,-0.0015502540627494454,-0.0005594325484707952,-0.4950593411922455,-0.13867585361003876,-9.9512300491333,0,0,44.0,1,1,1995,2060
90.79872200,90798722,1,0.0008726351079531014,-0.0014460172969847918,-0.00034032866824418306,-0.49689456820487976,-0.13673482835292816,-9.947455406188965,0,0,44.0,1,1,1995,2060
90.80161400,90801614,1,0.0007924179662950337,-0.0005879711243323982,-0.0001914053864311427,-0.49720191955566406,-0.135960653424263,-9.945392608642578,0,0,44.0,1,1,1995,2060
90.80372200,90803722,1,0.0006185676320455968,-0.0005715503939427435,-0.0005412072059698403,-0.4946780204772949,-0.13447260856628418,-9.948698997497559,0,0,44.0,1,1,1995,2060
90.80621800,90806218,1,0.0006000022985972464,0.00020110276818741113,-0.00029458943754434586,-0.4906354248523712,-0.13424620032310486,-9.953348159790039,0,0,44.0,1,1,1995,2060
90.80871800,90808718,1,0.0003923332551494241,0.0009954614797607064,-0.0006800873670727015,-0.4900881052017212,-0.1373308151960373,-9.958459854125977,0,0,44.0,1,1,1995,2060
90.81118600,90811186,1,0.0003643746313173324,0.0012906256597489119,-0.0006997435120865703,-0.4899035394191742,-0.13921180367469788,-9.96481704711914,0,0,44.0,1,1,1995,2060
90.81406800,90814068,1,0.0005128593184053898,0.0015555204590782523,-0.0002947270986624062,-0.48816320300102234,-0.1430249959230423,-9.973838806152344,0,0,44.0,1,1,1995,2060
90.81617300,90816173,1,0.0009210887947119772,0.0016366314375773072,0.00014651304809376597,-0.490539014339447,-0.1446690857410431,-9.979362487792969,0,0,44.0,1,1,1995,2060
90.81868400,90818684,1,0.0006782661657780409,0.0014412306481972337,-0.0001410158583894372,-0.4929509460926056,-0.1454700529575348,-9.98196792602539,0,0,44.0,1,1,1995,2060
90.82121500,90821215,1,0.0005483495187945664,0.0013858339516445994,-0.00022598121722694486,-0.4959184527397156,-0.14706797897815704,-9.98489761352539,0,0,44.0,1,1,1995,2060
90.82368200,90823682,1,5.572300869971514e-05,0.001003668992780149,0.00017385967657901347,-0.49820584058761597,-0.14741377532482147,-9.986117362976074,0,0,44.0,1,1,1995,2060
90.82668700,90826687,1,-0.0001557935174787417,0.00025641967658884823,0.000228142409469001,-0.4982486367225647,-0.1468857079744339,-9.986342430114746,0,0,44.0,1,1,1995,2060
90.82872400,90828724,1,-0.0003785023873206228,-0.0006011892692185938,0.000913088268134743,-0.4980173408985138,-0.14626087248325348,-9.983674049377441,0,0,44.0,1,1,1995,2060
90.83119400,90831194,1,-0.0008912307093851268,-0.0008647715440019965,0.001032499480061233,-0.496609091758728,-0.14253464341163635,-9.984830856323242,0,0,44.0,1,1,1995,2060
90.83367800,90833678,1,-0.0011170802172273397,-0.0012746464926749468,0.001283847028389573,-0.4960845708847046,-0.13857851922512054,-9.987007141113281,0,0,44.0,1,1,1995,2060
90.83620800,90836208,1,-0.0011297509772703052,-0.0017832459416240454,0.002036219695582986,-0.49419593811035156,-0.13265706598758698,-9.989408493041992,0,0,44.0,1,1,1995,2060
90.83911900,90839119,1,-0.0008949077455326915,-0.002512302715331316,0.0021589358802884817,-0.49075719714164734,-0.12857359647750854,-9.989640235900879,0,0,44.0,1,1,1995,2060
90.84117800,90841178,1,-0.0010213027708232403,-0.002491474850103259,0.0018682681256905198,-0.4892920255661011,-0.12568862736225128,-9.991145133972168,0,0,44.0,1,1,1995,2060
90.84366800,90843668,1,-0.0018621847266331315,-0.002516502281650901,0.0016664284048601985,-0.48935145139694214,-0.12426541745662689,-9.991369247436523,0,0,44.0,1,1,1995,2060
90.84618500,90846185,1,-0.0023666920606046915,-0.0026889280416071415,0.0008430965826846659,-0.4890003502368927,-0.1257449835538864,-9.98828411102295,0,0,44.0,1,1,1995,2060
90.84877200,90848772,1,-0.002756572561338544,-0.002603768138214946,0.0004697888216469437,-0.48780521750450134,-0.12575827538967133,-9.983504295349121,0,0,44.0,1,1,1995,2060
90.85158300,90851583,1,-0.003437034087255597,-0.001794040552340448,-0.0001266081671928987,-0.486093133687973,-0.12809792160987854,-9.978694915771484,0,0,44.0,1,1,1995,2060
90.85368600,90853686,1,-0.0031850403174757957,-0.0013394964626058936,-0.0005252626142464578,-0.48401033878326416,-0.13276250660419464,-9.971588134765625,0,0,44.0,1,1,1995,2060
90.85619200,90856192,1,-0.0031038064043968916,-0.0011611878871917725,-0.0004801587201654911,-0.48275113105773926,-0.1349932998418808,-9.969612121582031,0,0,44.0,1,1,1995,2060
90.85867300,90858673,1,-0.0025006760843098164,-0.001050535123795271,-0.000574830046389252,-0.4832304120063782,-0.13872088491916656,-9.966818809509277,0,0,44.0,1,1,1995,2060
90.86119300,90861193,1,-0.00204503838904202,-0.00147900334559381,-0.000866826216224581,-0.48485758900642395,-0.14548353850841522,-9.958511352539062,0,0,44.0,1,1,1995,2060
