timestamp,TimeUS,I,GyrX,GyrY,GyrZ,AccX,AccY,AccZ,EG,EA,T,GH,AH,GHz,AHz
34.09560400,34095604,0,0.000655974552500993,-0.001760931801982224,0.0013270205818116665,-0.6891102194786072,-0.08066330850124359,-9.880024909973145,0,0,40.0,1,1,272,283
34.11117700,34111177,0,0.001285535516217351,-0.0008875907515175641,0.0009866425534710288,-0.689118504524231,-0.08067259192466736,-9.880033493041992,0,0,40.0,1,1,272,283
34.12664200,34126642,0,0.00412183441221714,-0.002388907130807638,0.0009266449487768114,-0.6891267895698547,-0.08066564798355103,-9.880041122436523,0,0,40.0,1,1,272,283
34.14261100,34142611,0,0.0038709579966962337,-0.0044195521622896194,0.0008451170288026333,-0.689134955406189,-0.08064389228820801,-9.880047798156738,0,0,40.0,1,1,272,283
34.15804500,34158045,0,0.000599666207563132,-0.003843008540570736,0.000495532585773617,-0.6891430616378784,-0.08060866594314575,-9.880053520202637,0,0,40.0,1,1,272,283
34.17354200,34173542,0,0.00011778351472457871,-0.00031225045677274466,0.0003644612443167716,-0.6891511082649231,-0.08056124299764633,-9.880058288574219,0,0,40.0,1,1,272,283
34.18911800,34189118,0,-0.00010217740054940805,0.0006253772880882025,0.00023523122945334762,-0.6891589164733887,-0.08050284534692764,-9.880062103271484,0,0,40.0,1,1,272,283
34.20507100,34205071,0,-0.001459399820305407,0.0029715283308178186,0.00025404489133507013,-0.6891667246818542,-0.08043462038040161,-9.880064964294434,0,0,40.0,1,1,272,283
34.22059800,34220598,0,-0.0007599435630254447,0.0019785193726420403,0.0003039447474293411,-0.6891744136810303,-0.08035767078399658,-9.880067825317383,0,0,40.0,1,1,272,283
34.23606700,34236067,0,0.000414920796174556,0.0025148456916213036,0.0006883764872327447,-0.6891818642616272,-0.08027302473783493,-9.880070686340332,0,0,40.0,1,1,272,283
34.25155600,34251556,0,0.00031996596953831613,0.0008696347358636558,0.0003881664015352726,-0.6891892552375793,-0.08018163591623306,-9.880073547363281,0,0,40.0,1,1,272,283
34.26758500,34267585,0,0.0005716418963856995,0.0006215446628630161,0.0006981181795708835,-0.6891962885856628,-0.08008445054292679,-9.880075454711914,0,0,40.0,1,1,272,283
34.28310500,34283105,0,-0.0007235461962409317,0.0025407099165022373,0.0010751043446362019,-0.6892032027244568,-0.07998231798410416,-9.88007640838623,0,0,40.0,1,1,272,283
34.29863400,34298634,0,0.00010289467172697186,0.00196236209012568,0.0012487164931371808,-0.6892099380493164,-0.07987605035305023,-9.88007640838623,0,0,40.0,1,1,272,283
34.31455500,34314555,0,-0.001975041115656495,0.0015654716407880187,0.00032340286998078227,-0.6892163753509521,-0.07976639270782471,-9.880075454711914,0,0,40.0,1,1,272,283
34.33006900,34330069,0,-0.0010334159014746547,-0.0005365185788832605,0.00020149241026956588,-0.6892225742340088,-0.07965405285358429,-9.880073547363281,0,0,40.0,1,1,272,283
34.34563600,34345636,0,-0.0010963319800794125,9.220690844813362e-05,7.941410149214789e-05,-0.6892285943031311,-0.07953967899084091,-9.880071640014648,0,0,40.0,1,1,272,283
34.36122500,34361225,0,0.0005621669697575271,-0.0021235800813883543,1.197102028527297e-05,-0.6892343759536743,-0.07942388206720352,-9.8800687789917,0,0,40.0,1,1,272,283
34.37732400,34377324,0,0.000893675081897527,-0.0005679489695467055,0.0010117068886756897,-0.6892399191856384,-0.07930721342563629,-9.880067825317383,0,0,40.0,1,1,272,283
34.39286700,34392867,0,-0.0010560881346464157,0.000884793815203011,0.0008641504100523889,-0.6892452239990234,-0.07926253974437714,-9.880066871643066,0,0,40.0,1,1,272,283
34.40815000,34408150,0,-0.003686164738610387,0.004766714293509722,0.0004950592410750687,-0.6892502307891846,-0.07935627549886703,-9.88006591796875,0,0,40.0,1,1,272,283
34.43987600,34439876,0,4.638880729675293,4.6449408531188965,4.642001628875732,-0.6891826391220093,-0.07950393110513687,-9.878979682922363,0,0,40.0,1,1,272,283
34.47071600,34470716,0,6.0522966384887695,6.051118850708008,6.052552223205566,-0.688976526260376,-0.07962802797555923,-9.875964164733887,0,0,40.0,1,1,271,283
34.50212100,34502121,0,0.8274250626564026,0.8258396983146667,0.8263280391693115,-0.6887167692184448,-0.0797300785779953,-9.872424125671387,0,0,40.0,1,1,271,283
34.53311400,34533114,0,-0.3143787384033203,-0.316130667924881,-0.31457874178886414,-0.6884813904762268,-0.07981158792972565,-9.869359016418457,0,0,40.0,1,1,271,283
34.56460400,34564604,0,-0.24312788248062134,-0.24582694470882416,-0.24313884973526,-0.6882690787315369,-0.07987399399280548,-9.866594314575195,0,0,40.0,1,1,271,283
34.59568200,34595682,0,-0.05248579382896423,-0.05338140204548836,-0.05228443443775177,-0.688078761100769,-0.07991868257522583,-9.864116668701172,0,0,40.0,1,1,271,283
34.62715200,34627152,0,0.012965862639248371,0.014075551182031631,0.014662629924714565,-0.6879091262817383,-0.07994698733091354,-9.861909866333008,0,0,40.0,1,1,271,283
34.65810400,34658104,0,0.012337476946413517,0.013314832001924515,0.013864440843462944,-0.6877593398094177,-0.07996018975973129,-9.859959602355957,0,0,40.0,1,1,271,283
34.68953300,34689533,0,0.002802225761115551,0.003392001148313284,0.0034140083007514477,-0.6876280307769775,-0.07995952665805817,-9.85824966430664,0,0,40.0,1,1,271,283
34.72057700,34720577,0,-0.001572866691276431,0.0005811711307615042,5.3027080866741017e-05,-0.6875142455101013,-0.07994619011878967,-9.856766700744629,0,0,40.0,1,1,271,283
34.75219700,34752197,0,-0.0004427068051882088,-0.0012866469332948327,0.0008970149792730808,-0.6874168515205383,-0.07992129027843475,-9.855498313903809,0,0,40.0,1,1,271,283
34.78309700,34783097,0,-0.00046100164763629436,0.00043524333159439266,0.0014080628752708435,-0.6873348355293274,-0.07988591492176056,-9.854430198669434,0,0,40.0,1,1,271,283
34.81462000,34814620,0,-0.0001224235602421686,0.001085160649381578,0.0011846647830680013,-0.6872671842575073,-0.07984109222888947,-9.853549003601074,0,0,39.5,1,1,271,283
34.84558500,34845585,0,-0.0007832498522475362,0.0008235255372710526,0.0008269552490673959,-0.6872129440307617,-0.07978779077529907,-9.852843284606934,0,0,39.5,1,1,271,283
34.87744700,34877447,0,-3.904930781573057e-05,0.0013702248688787222,0.00038720539305359125,-0.6871713399887085,-0.0797269344329834,-9.852299690246582,0,0,39.5,1,1,271,283
34.90882300,34908823,0,-0.0003576915478333831,0.000517721869982779,0.0005057096714153886,-0.6871412992477417,-0.07965939491987228,-9.851906776428223,0,0,39.5,1,1,271,283
34.93963900,34939639,0,0.00035196691169403493,-0.0011620339937508106,0.00015728885773569345,-0.6871220469474792,-0.07958599925041199,-9.851655006408691,0,0,39.5,1,1,271,283
34.97112100,34971121,0,0.0002679363824427128,-0.0004952179733663797,0.0006676801131106913,-0.6871126294136047,-0.07950752228498459,-9.851531028747559,0,0,39.5,1,1,271,283
35.00216400,35002164,0,-0.0006996385054662824,-0.0003800553095061332,0.0005541610298678279,-0.6871123909950256,-0.07942467927932739,-9.851526260375977,0,0,39.5,1,1,271,283
35.03365800,35033658,0,-0.0005656867288053036,-0.0011953957146033645,0.000778326066210866,-0.687120258808136,-0.07933817058801651,-9.851630210876465,0,0,39.5,1,1,271,283
35.06464400,35064644,0,3.272417598054744e-05,-0.002691755536943674,0.0012475450057536364,-0.6871358156204224,-0.07924862951040268,-9.851832389831543,0,0,39.5,1,1,271,283
35.09612800,35096128,0,0.0005101895076222718,-0.001421633642166853,0.0009695644839666784,-0.6871582269668579,-0.07915664464235306,-9.852124214172363,0,0,39.5,1,1,271,283
35.12723800,35127238,0,-0.001459824969060719,0.0002995716640725732,0.0007281985017471015,-0.6871867775917053,-0.07906278222799301,-9.852498054504395,0,0,39.5,1,1,271,283
35.15853000,35158530,0,-0.0022730613127350807,0.0007995526539161801,0.0002907835878431797,-0.6872209310531616,-0.07896754890680313,-9.85294246673584,0,0,39.5,1,1,271,283
35.18956200,35189562,0,-0.001512291724793613,0.0005125210154801607,0.000937366858124733,-0.6872599720954895,-0.07887142896652222,-9.8534517288208,0,0,39.5,1,1,271,283
35.22116300,35221163,0,-0.000753012194763869,0.002049171132966876,0.0011219829320907593,-0.6873034238815308,-0.07877485454082489,-9.85401725769043,0,0,39.5,1,1,271,283
35.25203900,35252039,0,-0.0013293237425386906,0.0030953409150242805,0.00062652857741341,-0.6873506903648376,-0.07867822796106339,-9.854632377624512,0,0,39.5,1,1,271,283
35.28364200,35283642,0,-0.0007910292479209602,0.0020049186423420906,0.0005717318272218108,-0.687401294708252,-0.07858192175626755,-9.855291366577148,0,0,39.5,1,1,271,283
35.31464700,35314647,0,8.8807413703762e-05,0.0016709287883713841,0.0012777326628565788,-0.6874548196792603,-0.07848628610372543,-9.855987548828125,0,0,39.5,1,1,271,283
35.34614600,35346146,0,0.0017486120341345668,-0.000497652858030051,0.001021582167595625,-0.6875106692314148,-0.07839161157608032,-9.856714248657227,0,0,39.5,1,1,271,283
35.37739600,35377396,0,-0.0005652304389514029,-0.000507051357999444,0.0005249780951999128,-0.6875686049461365,-0.0782981663942337,-9.857467651367188,0,0,39.5,1,1,271,283
35.40872400,35408724,0,-0.001627009711228311,-0.000569559691939503,0.00047412668936885893,-0.6876280903816223,-0.07820621877908707,-9.85824203491211,0,0,39.5,1,1,271,283
35.43970600,35439706,0,-0.000198766851099208,-0.0001339264417765662,0.0010803089244291186,-0.6876888871192932,-0.07811596989631653,-9.85903263092041,0,0,39.5,1,1,271,283
35.47108700,35471087,0,-0.00203978200443089,0.003151915268972516,0.0013540174113586545,-0.6877505779266357,-0.0780276209115982,-9.859834671020508,0,0,39.5,1,1,271,283
35.50206500,35502065,0,-0.00047870376147329807,0.0017632808303460479,0.0012381154811009765,-0.6878129839897156,-0.07794134318828583,-9.860645294189453,0,0,39.5,1,1,271,283
35.53362200,35533622,0,0.0021504834294319153,-0.0013534855097532272,0.0010683947475627065,-0.6878755688667297,-0.07785729318857193,-9.861459732055664,0,0,39.5,1,1,271,282
35.56476100,35564761,0,0.0025625035632401705,-0.002422990743070841,0.0006458962452597916,-0.6879382133483887,-0.07777559757232666,-9.862274169921875,0,0,39.5,1,1,271,282
35.59613300,35596133,0,0.0015792029444128275,-0.0018597461748868227,0.0008130497299134731,-0.6880007386207581,-0.07769634574651718,-9.863086700439453,0,0,39.5,1,1,271,282
35.62769400,35627694,0,5.801309089292772e-05,-0.0016448501264676452,0.0011299963807687163,-0.6880629062652588,-0.07761964946985245,-9.863892555236816,0,0,39.5,1,1,271,282
35.65861700,35658617,0,0.0007271460490301251,-0.0037270858883857727,0.0006728058215230703,-0.6881245374679565,-0.07761793583631516,-9.864691734313965,0,0,39.5,1,1,271,282
35.69007600,35690076,0,-0.0001412986166542396,-0.0015061033191159368,0.0003929070080630481,-0.6881852746009827,-0.07775717973709106,-9.865480422973633,0,0,39.5,1,1,271,282
35.72107300,35721073,0,-0.00030113759567029774,-0.0005470211617648602,0.0006284404080361128,-0.6882450580596924,-0.07795252650976181,-9.866257667541504,0,0,39.5,1,1,271,282
35.75275900,35752759,0,0.0007962665986269712,-0.0025258248206228018,0.001016399823129177,-0.6883037686347961,-0.07812611013650894,-9.867020606994629,0,0,39.5,1,1,271,282
35.78365700,35783657,0,0.0009635546593926847,0.00034058454912155867,0.0013847170630469918,-0.6883612871170044,-0.07827913016080856,-9.867766380310059,0,0,39.5,1,1,271,282
35.81518400,35815184,0,-0.00168595218565315,0.0026147551834583282,0.0009047255734913051,-0.688417375087738,-0.0784127488732338,-9.868494987487793,0,0,39.5,1,1,271,282
35.84613200,35846132,0,-0.00076746114064008,0.0032882338855415583,0.0010774249676615,-0.6884720921516418,-0.07852811366319656,-9.869205474853516,0,0,39.5,1,1,271,282
35.87784600,35877846,0,-4.272969817975536e-05,0.001503128558397293,0.0010994327021762729,-0.6885253190994263,-0.07862634211778641,-9.869895935058594,0,0,39.5,1,1,271,282
35.90881000,35908810,0,0.00020550547924358398,0.0006135505973361433,0.0005856324569322169,-0.688576877117157,-0.07870852947235107,-9.870565414428711,0,0,39.5,1,1,271,282
35.94007100,35940071,0,0.0011257227743044496,-0.0014731879346072674,0.0005339434137567878,-0.6886268854141235,-0.07877570390701294,-9.871213912963867,0,0,39.5,1,1,271,282
35.97114000,35971140,0,0.00033417317899875343,-0.001088590594008565,0.0008395805489271879,-0.6886751055717468,-0.07882890850305557,-9.871840476989746,0,0,39.5,1,1,271,282
36.00269100,36002691,0,0.0013847720110788941,-5.401137241278775e-05,0.0011944330763071775,-0.6887216567993164,-0.07886912673711777,-9.872445106506348,0,0,39.5,1,1,271,282
36.03364400,36033644,0,0.002737329574301839,0.00037423588219098747,0.0008774108137004077,-0.6887664198875427,-0.07889729738235474,-9.873025894165039,0,0,39.5,1,1,271,282
36.06511200,36065112,0,0.0007447287207469344,0.000881754735019058,0.0007360121235251427,-0.6888094544410706,-0.07891436666250229,-9.873583793640137,0,0,39.5,1,1,271,282
36.09610800,36096108,0,-0.0007929534767754376,7.691721293667797e-06,0.0005565269384533167,-0.6888507008552551,-0.07892119139432907,-9.87411880493164,0,0,39.5,1,1,271,282
36.12773700,36127737,0,-0.0022118743509054184,0.0018675082828849554,0.0009881535079330206,-0.6888901591300964,-0.07891862094402313,-9.874629974365234,0,0,39.5,1,1,271,282
36.15905100,36159051,0,-0.0008184839389286935,0.0020585190504789352,0.0007060219068080187,-0.6889278292655945,-0.07897982746362686,-9.875118255615234,0,0,39.5,1,1,271,282
36.19009900,36190099,0,0.0008734524017199874,-0.0014704404165968299,0.00045345944818109274,-0.6889637112617493,-0.07917150110006332,-9.875584602355957,0,0,39.5,1,1,271,282
36.22155000,36221550,0,0.0016055286396294832,-0.0026981718838214874,0.0011796202743425965,-0.688997745513916,-0.07940947264432907,-9.87602710723877,0,0,39.5,1,1,271,282
36.25257300,36252573,0,0.00199977308511734,-0.0018323962576687336,0.0008660540333949029,-0.6890301704406738,-0.07961654663085938,-9.876447677612305,0,0,39.5,1,1,271,282
36.28408500,36284085,0,0.0027033912483602762,-0.0017925534630194306,0.0012651307042688131,-0.6890609264373779,-0.07979457825422287,-9.876846313476562,0,0,39.5,1,1,271,282
36.31519800,36315198,0,0.0033300903160125017,-0.003913283813744783,0.0009724271949380636,-0.6890900135040283,-0.07994535565376282,-9.877222061157227,0,0,39.5,1,1,271,282
36.34659200,36346592,0,0.0010455794399604201,0.00021815754007548094,0.0007785694906488061,-0.689117431640625,-0.0800706297159195,-9.877574920654297,0,0,39.5,1,1,271,282
36.37793900,36377939,0,0.0010141622042283416,0.0021707022096961737,0.0004704743332695216,-0.6891432404518127,-0.0801720842719078,-9.877906799316406,0,0,39.5,1,1,271,282
36.40924800,36409248,0,0.0027715086471289396,-0.00034676006180234253,2.912514901254326e-06,-0.6891674399375916,-0.08025138825178146,-9.878217697143555,0,0,39.5,1,1,271,282
36.44018300,36440183,0,0.0010338746942579746,-0.00235372269526124,-6.097245932323858e-05,-0.6891900300979614,-0.08031009882688522,-9.878508567810059,0,0,39.5,1,1,271,282
36.47160100,36471601,0,-0.0003309015301056206,-0.0021141248289495707,0.00017263756308238953,-0.6892111897468567,-0.08034975826740265,-9.878780364990234,0,0,39.5,1,1,271,282
36.50266100,36502661,0,-0.00133048789575696,-0.0017887128051370382,0.0011492623016238213,-0.6892307996749878,-0.08037184178829193,-9.879032135009766,0,0,39.5,1,1,271,282
36.53412800,36534128,0,0.00013353054237086326,-0.00012385963054839522,0.000937896256800741,-0.6892489790916443,-0.08037775754928589,-9.879265785217285,0,0,39.5,1,1,271,282
36.56505700,36565057,0,-0.00015459678252227604,0.0015836866805329919,0.0006690636510029435,-0.689265787601471,-0.08036885410547256,-9.87948226928711,0,0,39.5,1,1,271,282
36.59662900,36596629,0,0.0021649212576448917,-0.001275051268748939,0.0006347047747112811,-0.6892812848091125,-0.08034641295671463,-9.879682540893555,0,0,39.5,1,1,271,282
36.62768900,36627689,0,0.0001934786996571347,-0.0015706465346738696,0.0009218155755661428,-0.6892954111099243,-0.08031168580055237,-9.879866600036621,0,0,39.5,1,1,271,282
36.65905800,36659058,0,-0.0007104150136001408,0.00030395700014196336,0.000675060844514519,-0.6893084049224854,-0.0802658423781395,-9.880035400390625,0,0,39.5,1,1,271,282
36.69054200,36690542,0,-0.00041385702206753194,0.0014091921038925648,0.0005530287162400782,-0.6893202662467957,-0.08021000027656555,-9.8801908493042,0,0,39.5,1,1,271,282
36.72160500,36721605,0,-8.635032281745225e-05,-0.0005739721818827093,0.0006047089118510485,-0.6893310546875,-0.0801452249288559,-9.880331039428711,0,0,39.5,1,1,271,282
36.75315100,36753151,0,0.0008835333865135908,-0.001567132188938558,0.0010338815627619624,-0.6893407106399536,-0.08007252216339111,-9.880459785461426,0,0,39.5,1,1,271,282
36.78410700,36784107,0,0.0019577955827116966,-0.002562290523201227,0.0011484993156045675,-0.6893495321273804,-0.07999283820390701,-9.880576133728027,0,0,39.5,1,1,271,282
36.81573800,36815738,0,0.0007329699001275003,-0.001515351701527834,0.0013585899723693728,-0.689357340335846,-0.07990705966949463,-9.880681037902832,0,0,39.5,1,1,271,282
36.84665700,36846657,0,-0.0002462121192365885,0.0016664380673319101,0.00139958830550313,-0.6893643140792847,-0.07981602847576141,-9.880772590637207,0,0,39.5,1,1,271,282
36.87840500,36878405,0,-8.738651376916096e-05,0.00025939883198589087,0.0020930503960698843,-0.6893704533576965,-0.07972054928541183,-9.880855560302734,0,0,39.5,1,1,271,282
36.90931200,36909312,0,-0.00033419602550566196,0.0016386236529797316,0.001561040640808642,-0.6893758177757263,-0.07962135225534439,-9.880927085876465,0,0,39.5,1,1,271,282
36.94060600,36940606,0,0.0003502373874653131,0.0012075291015207767,0.0011788225965574384,-0.6893805265426636,-0.0795191302895546,-9.880989074707031,0,0,39.5,1,1,271,282
36.97156000,36971560,0,0.0008610025397501886,0.0015612317947670817,0.0007738303975202143,-0.6893844604492188,-0.07941453158855438,-9.88104248046875,0,0,39.5,1,1,271,282
37.00330200,37003302,0,-0.0008485852740705013,0.00012168585817562416,0.0005990201025269926,-0.689387857913971,-0.0793081521987915,-9.881086349487305,0,0,39.5,1,1,271,282
37.03415400,37034154,0,1.282096718568937e-06,0.0009405267192050815,3.199500861228444e-05,-0.6893905997276306,-0.07920054346323013,-9.881123542785645,0,0,39.5,1,1,271,282
37.06557900,37065579,0,2.7728043278330006e-05,0.001243149978108704,0.00037778407568112016,-0.6893927454948425,-0.07909221947193146,-9.881153106689453,0,0,39.5,1,1,271,282
37.09664000,37096640,0,0.0007342561730183661,0.0003158703912049532,0.000612444244325161,-0.6893944144248962,-0.07898364216089249,-9.88117504119873,0,0,39.5,1,1,271,282
37.12816100,37128161,0,0.0019600684754550457,-0.001812513917684555,0.0007453918806277215,-0.689395546913147,-0.07887525111436844,-9.881190299987793,0,0,39.5,1,1,271,282
37.15916600,37159166,0,0.0016335624968633056,-0.001787864021025598,0.0006742562400177121,-0.6893962025642395,-0.07876743376255035,-9.881199836730957,0,0,39.5,1,1,271,282
37.19053200,37190532,0,0.0012670658761635423,-0.0010032851714640856,0.0007634563371539116,-0.6893965005874634,-0.07866054773330688,-9.881203651428223,0,0,39.5,1,1,271,282
37.22217600,37222176,0,0.0013129761209711432,-0.0023040047381073236,0.001245339633896947,-0.6893963813781738,-0.0785549208521843,-9.881202697753906,0,0,39.5,1,1,271,282
37.25314200,37253142,0,0.0005699206376448274,-0.0025711071211844683,0.0012290452141314745,-0.6893958449363708,-0.07845082879066467,-9.881196975708008,0,0,39.5,1,1,271,282
37.28460500,37284605,0,-0.001190383918583393,-0.0015919115394353867,0.0010397711303085089,-0.6893950700759888,-0.0783485621213913,-9.881187438964844,0,0,39.5,1,1,271,282
37.31565500,37315655,0,-0.002017045859247446,-0.0011591216316446662,0.0013790804659947753,-0.6893939971923828,-0.07824834436178207,-9.881173133850098,0,0,39.5,1,1,271,282
37.34705700,37347057,0,-0.0020272128749638796,-0.0002941879502031952,0.0007959854556247592,-0.6893926858901978,-0.07815037667751312,-9.881155014038086,0,0,39.5,1,1,271,282
37.37848900,37378489,0,-4.7133700718404725e-05,-0.000283214874798432,0.0005370098515413702,-0.6893911957740784,-0.07805483043193817,-9.881133079528809,0,0,39.5,1,1,271,282
37.40991800,37409918,0,0.0007393677369691432,4.693025857704924e-06,0.0006013944512233138,-0.6893894672393799,-0.07796188443899155,-9.881108283996582,0,0,39.5,1,1,271,282
37.44064900,37440649,0,0.0024918692652136087,-0.0021764650009572506,0.000384227343602106,-0.6893876194953918,-0.0778716504573822,-9.881081581115723,0,0,39.5,1,1,271,282
37.47210300,37472103,0,0.001384468050673604,-0.002000143053010106,0.001032876898534596,-0.6893855929374695,-0.07778424769639969,-9.88105297088623,0,0,39.5,1,1,271,282
37.50306500,37503065,0,-0.0013161675306037068,0.001896849018521607,0.0017190257785841823,-0.6893834471702576,-0.07769975066184998,-9.881022453308105,0,0,39.5,1,1,271,282
37.53455500,37534555,0,-0.002151397056877613,0.0016401986358687282,0.0018289308063685894,-0.6893811225891113,-0.07761824131011963,-9.880990982055664,0,0,39.5,1,1,271,282
37.56561800,37565618,0,-0.0013123287353664637,0.0017913288902491331,0.0009583602659404278,-0.6893787384033203,-0.07753976434469223,-9.880958557128906,0,0,39.5,1,1,271,282
37.59711300,37597113,0,-0.00028266498702578247,0.0006536142318509519,0.0008414511103183031,-0.6893762350082397,-0.07746437937021255,-9.8809232711792,0,0,39.5,1,1,271,282
37.62867000,37628670,0,-0.0005716525483876467,0.0010285646421834826,0.0009219611529260874,-0.6893737316131592,-0.0773920938372612,-9.880887985229492,0,0,39.5,1,1,271,282
37.65960700,37659607,0,-0.0013151641469448805,0.0017805090174078941,0.0007016615127213299,-0.6893709897994995,-0.07732291519641876,-9.880851745605469,0,0,39.5,1,1,271,282
37.69111600,37691116,0,0.00022823456674814224,0.0005047409795224667,0.0007384737255051732,-0.6893683075904846,-0.07725685834884644,-9.880814552307129,0,0,39.5,1,1,271,282
37.72213400,37722134,0,0.0006249657017178833,0.0020885877311229706,0.0008623120374977589,-0.6893655061721802,-0.07719389349222183,-9.880777359008789,0,0,39.5,1,1,271,282
37.75357500,37753575,0,0.002131628105416894,0.002017086371779442,0.0009221201180480421,-0.6893628239631653,-0.07713399082422256,-9.880741119384766,0,0,39.5,1,1,271,282
37.78465800,37784658,0,0.003539480734616518,-0.001715503167361021,0.0012688246788457036,-0.6893600821495056,-0.07707711309194565,-9.880705833435059,0,0,39.5,1,1,271,282
37.81607500,37816075,0,0.002368329791352153,-0.002010790631175041,0.0012499024160206318,-0.6893573999404907,-0.07702323794364929,-9.880669593811035,0,0,39.5,1,1,271,282
37.84709300,37847093,0,0.0014765906380489469,-0.0013297729892656207,0.0009522499749436975,-0.689354658126831,-0.07697229832410812,-9.880634307861328,0,0,39.5,1,1,271,282
37.87883100,37878831,0,0.00016800728917587548,-0.0029827768448740244,0.0014705434441566467,-0.6893519759178162,-0.07692424952983856,-9.880599021911621,0,0,39.5,1,1,271,282
37.90985700,37909857,0,-0.00041778001468628645,-0.0009145794901996851,0.0012712659081444144,-0.6893492937088013,-0.07687900960445404,-9.88056468963623,0,0,39.5,1,1,271,282
37.94120700,37941207,0,0.00023376823810394853,0.0007240240229293704,0.0008134153322316706,-0.6893466114997864,-0.07690887898206711,-9.88053035736084,0,0,39.5,1,1,271,282
37.97209000,37972090,0,-0.0003442930174060166,-4.875826198258437e-05,0.0006585041410289705,-0.6893439888954163,-0.07707971334457397,-9.88049602508545,0,0,39.0,1,1,271,282
38.00362200,38003622,0,-0.0012924197362735868,0.0002718060277402401,-6.84758197166957e-05,-0.6893414855003357,-0.07730652391910553,-9.880463600158691,0,0,39.0,1,1,271,282
38.03510300,38035103,0,-0.0009800407569855452,0.0011303093051537871,0.00031126945395953953,-0.6893390417098999,-0.07751134783029556,-9.88043212890625,0,0,39.0,1,1,271,282
38.06623700,38066237,0,-0.0006898705614730716,0.001450308016501367,0.0013759286375716329,-0.6893365979194641,-0.07769526541233063,-9.880401611328125,0,0,39.0,1,1,271,282
38.09759100,38097591,0,-0.00023992349451873451,-0.00013728393241763115,0.0009117022855207324,-0.6893342137336731,-0.07785936444997787,-9.880373001098633,0,0,39.0,1,1,271,282
38.12865800,38128658,0,0.0005958881811238825,-0.002457804512232542,0.0006953307311050594,-0.6893319487571716,-0.07800470292568207,-9.88034439086914,0,0,39.0,1,1,271,282
38.16007500,38160075,0,-0.0001883917866507545,-0.002253736136481166,0.001457752543501556,-0.6893297433853149,-0.07813233882188797,-9.880317687988281,0,0,39.0,1,1,271,282
38.19112300,38191123,0,-0.0006431072833947837,-0.0006715882336720824,0.0013737805420532823,-0.6893275380134583,-0.07824327796697617,-9.880290985107422,0,0,39.0,1,1,271,282
38.22259400,38222594,0,0.000638498633634299,-0.0020051775500178337,0.0016612033359706402,-0.6893254518508911,-0.07833854109048843,-9.880267143249512,0,0,39.0,1,1,271,282
38.25372000,38253720,0,0.00036436860682442784,-0.000640838232357055,0.00144247489515692,-0.689323365688324,-0.07841909676790237,-9.880242347717285,0,0,39.0,1,1,271,282
38.28522000,38285220,0,-0.0005306471139192581,0.0017567059257999063,0.0007187551236711442,-0.6893213987350464,-0.0784858837723732,-9.880219459533691,0,0,39.0,1,1,271,282
38.31616900,38316169,0,-0.0005052720662206411,0.0017258219886571169,0.0012264858232811093,-0.6893194317817688,-0.07853983342647552,-9.880196571350098,0,0,39.0,1,1,271,282
38.34762600,38347626,0,0.0011057629017159343,0.00023392910952679813,0.0013713855296373367,-0.6893176436424255,-0.07858182489871979,-9.880175590515137,0,0,39.0,1,1,271,282
38.37933000,38379330,0,0.0012520209420472383,0.00041155965300276875,0.0012940600281581283,-0.6893159747123718,-0.07861271500587463,-9.880155563354492,0,0,39.0,1,1,271,282
38.41030900,38410309,0,-0.00010388949158368632,0.001199362799525261,0.0009894350077956915,-0.6893144249916077,-0.07863332331180573,-9.880136489868164,0,0,39.0,1,1,271,282
38.44166500,38441665,0,-0.0009668753482401371,9.583955397829413e-05,0.0011200972367078066,-0.6893128752708435,-0.07864445447921753,-9.880117416381836,0,0,39.0,1,1,271,282
38.47259600,38472596,0,-0.0009911184897646308,0.00040743951103650033,0.0004031146818306297,-0.6893114447593689,-0.07864686101675034,-9.880098342895508,0,0,39.0,1,1,270,282
38.50411500,38504115,0,-0.0005757175385951996,-1.5787278243806213e-05,9.06255590962246e-05,-0.6893100738525391,-0.07864128798246384,-9.880081176757812,0,0,39.0,1,1,270,282
38.53505500,38535055,0,-0.001004317426122725,-0.00024860314442776144,0.0003388405602890998,-0.689308762550354,-0.07862842828035355,-9.880064010620117,0,0,39.0,1,1,270,282
38.56663600,38566636,0,-0.003328826976940036,0.002728925319388509,0.0003893482789862901,-0.689307451248169,-0.07860895991325378,-9.880049705505371,0,0,39.0,1,1,270,282
38.59755800,38597558,0,-0.0013886886881664395,-0.000783008465077728,0.0008480158867314458,-0.6893062591552734,-0.0785835012793541,-9.880034446716309,0,0,39.0,1,1,270,282
38.62911700,38629117,0,0.0005638865404762328,-0.002588176866993308,0.0007276113028638065,-0.6893051266670227,-0.07855268567800522,-9.880021095275879,0,0,39.0,1,1,270,282
38.66008800,38660088,0,0.001816757139749825,-0.003610799554735422,0.0007439889013767242,-0.689303994178772,-0.07851705700159073,-9.880008697509766,0,0,39.0,1,1,270,282
38.69159500,38691595,0,-0.00012350516044534743,-0.0005813173484057188,0.0006076900172047317,-0.6893030405044556,-0.0784771740436554,-9.879997253417969,0,0,39.0,1,1,270,282
38.72311700,38723117,0,-0.0009781596018001437,0.000850520096719265,0.0015768671873956919,-0.6893020272254944,-0.0784335508942604,-9.879986763000488,0,0,39.0,1,1,270,282
38.75408000,38754080,0,-0.0007081834482960403,0.0019193199696019292,0.0004923049127683043,-0.6893012523651123,-0.07838666439056396,-9.87997817993164,0,0,39.0,1,1,270,282
38.78556400,38785564,0,-0.0007294864626601338,0.0003879251016769558,0.00035089461016468704,-0.689300537109375,-0.07833696156740189,-9.879971504211426,0,0,39.0,1,1,270,282
38.81664700,38816647,0,0.0007701440481469035,-0.0023378063924610615,0.0006103342166170478,-0.6892998814582825,-0.07828488200902939,-9.879963874816895,0,0,39.0,1,1,270,282
38.84815600,38848156,0,0.0016218835953623056,-0.0031976669561117887,0.0007615526556037366,-0.6892992854118347,-0.0782308280467987,-9.87995719909668,0,0,39.0,1,1,270,282
38.87939100,38879391,0,0.0021331876050680876,-0.002117013791576028,0.001281792065128684,-0.6892988681793213,-0.07817515730857849,-9.879951477050781,0,0,39.0,1,1,270,282
38.91077700,38910777,0,0.001189586240798235,6.512545223813504e-05,0.0014339055633172393,-0.6892983913421631,-0.078118234872818,-9.8799467086792,0,0,39.0,1,1,270,282
38.94158100,38941581,0,0.0007588411099277437,0.00034351402428001165,0.001633034902624786,-0.6892980337142944,-0.07806037366390228,-9.879942893981934,0,0,39.0,1,1,270,282
38.97313100,38973131,0,0.001074453117325902,-0.001981895649805665,0.0016707712784409523,-0.6892977356910706,-0.07800187915563583,-9.879940032958984,0,0,39.0,1,1,270,282
39.00412700,39004127,0,-0.0006732844631187618,-0.0012236671755090356,0.0007875634473748505,-0.6892974972724915,-0.07794301956892014,-9.879938125610352,0,0,39.0,1,1,270,282
39.03557700,39035577,0,-0.00046608084812760353,-0.001057863119058311,0.0007818233571015298,-0.6892972588539124,-0.07788405567407608,-9.879936218261719,0,0,39.0,1,1,270,282
39.06662400,39066624,0,0.0007418933673761785,0.00028581643709912896,0.0012799560790881515,-0.6892970204353333,-0.07782521098852158,-9.879934310913086,0,0,39.0,1,1,270,282
39.09814900,39098149,0,-0.0006708336877636611,0.0017402172088623047,0.001406020950525999,-0.6892967820167542,-0.07776670157909393,-9.879932403564453,0,0,39.0,1,1,270,282
39.12961800,39129618,0,-0.0011495605576783419,0.0022583394311368465,0.0010625094873830676,-0.6892966032028198,-0.07770870625972748,-9.87993049621582,0,0,39.0,1,1,270,282
39.16060100,39160601,0,-0.0004887324175797403,0.002250620862469077,0.0006628748960793018,-0.689296543598175,-0.07765142619609833,-9.879928588867188,0,0,39.0,1,1,270,282
39.19206800,39192068,0,-8.66436239448376e-05,0.001846828730776906,0.0006848863558843732,-0.6892964243888855,-0.07759498804807663,-9.879926681518555,0,0,39.0,1,1,270,282
39.22305700,39223057,0,-0.0016531924484297633,0.001232751877978444,0.0006342864944599569,-0.6892964839935303,-0.07753954082727432,-9.879924774169922,0,0,39.0,1,1,270,282
39.25460700,39254607,0,-0.0007447535754181445,-0.0011182017624378204,0.0006978890742175281,-0.689296543598175,-0.07748521864414215,-9.879921913146973,0,0,39.0,1,1,270,282
39.28564500,39285645,0,0.000566598551813513,-0.0021529037039726973,-0.00016787830099929124,-0.6892966032028198,-0.07743213325738907,-9.879920959472656,0,0,39.0,1,1,270,282
39.31720900,39317209,0,0.0026371299754828215,-0.0032508503645658493,0.00021190194820519537,-0.6892968416213989,-0.07738037407398224,-9.879921913146973,0,0,39.0,1,1,270,282
39.34814900,39348149,0,0.0028487544041126966,-0.0025411255192011595,0.0006739140953868628,-0.6892969608306885,-0.07733000814914703,-9.879922866821289,0,0,39.0,1,1,270,282
39.37980700,39379807,0,0.0017353235743939877,-0.0003038609866052866,0.0013739675050601363,-0.6892971396446228,-0.07728113234043121,-9.879923820495605,0,0,39.0,1,1,270,282
39.41140900,39411409,0,0.00014915206702426076,0.0017624655738472939,0.00127582682762295,-0.6892973184585571,-0.07723379880189896,-9.879926681518555,0,0,39.0,1,1,270,282
39.44217300,39442173,0,-0.0022880129981786013,0.0028866706416010857,0.0004535121552180499,-0.6892973780632019,-0.07718804478645325,-9.879928588867188,0,0,39.0,1,1,270,282
39.50458100,39504581,0,0.0008890610770322382,-0.002820619149133563,0.0006960586179047823,-0.6892975568771362,-0.07714392244815826,-9.879929542541504,0,0,39.0,1,1,270,282
39.56724100,39567241,0,0.0021263263188302517,-0.0003608869737945497,0.000840680324472487,-0.689297616481781,-0.0771014392375946,-9.879929542541504,0,0,39.0,1,1,270,281
39.62977900,39629779,0,0.0005879407399334013,-0.0027916952967643738,0.0015424760058522224,-0.6892977952957153,-0.07706064730882645,-9.879929542541504,0,0,39.0,1,1,270,281
39.69204600,39692046,0,-0.0018725873669609427,0.00015586565132252872,0.001160089042969048,-0.6892979145050049,-0.0770215317606926,-9.879929542541504,0,0,39.0,1,1,270,281
39.75512100,39755121,0,0.0018272085580974817,-0.0010210576001554728,0.0009111013496294618,-0.6892980933189392,-0.07698411494493484,-9.879929542541504,0,0,39.0,1,1,270,281
39.81760200,39817602,0,-0.0008797940681688488,0.0003537511802278459,0.0009793401695787907,-0.6892982721328735,-0.076948381960392,-9.879929542541504,0,0,39.0,1,1,270,281
39.88042300,39880423,0,-0.0005947814206592739,-0.002162744291126728,0.0004985068808309734,-0.6892984509468079,-0.07691434025764465,-9.879929542541504,0,0,39.0,1,1,270,281
39.94273300,39942733,0,0.00044471342698670924,-6.872710946481675e-05,0.0008158179698511958,-0.6892985701560974,-0.07688196003437042,-9.879929542541504,0,0,39.0,1,1,270,281
40.00504600,40005046,0,0.001776489894837141,-0.00022040738258510828,0.0008133332012221217,-0.689298689365387,-0.07685123383998871,-9.879929542541504,0,0,39.0,1,1,270,281
40.06758700,40067587,0,0.00126130401622504,-0.001784124644473195,0.000975751259829849,-0.6892988085746765,-0.07682213187217712,-9.879929542541504,0,0,39.0,1,1,270,281
40.13024600,40130246,0,-0.001120021566748619,3.354125510668382e-05,0.00017864318215288222,-0.6892989277839661,-0.07679461687803268,-9.879929542541504,0,0,39.0,1,1,270,281
40.19256800,40192568,0,4.222054121783003e-05,-0.0008288647513836622,0.00043094006832689047,-0.6892990469932556,-0.0767686665058136,-9.879929542541504,0,0,39.0,1,1,270,281
40.25506000,40255060,0,0.00023000648070592433,-0.0020363912917673588,0.000647149863652885,-0.6892991662025452,-0.07674423605203629,-9.879929542541504,0,0,39.0,1,1,270,281
40.31757600,40317576,0,0.000637141230981797,-0.0012918309075757861,0.0007917707553133368,-0.6892992854118347,-0.07672131061553955,-9.879929542541504,0,0,39.0,1,1,270,281
40.38096700,40380967,0,0.0018038377165794373,-0.0025432920083403587,0.001032872823998332,-0.689299464225769,-0.07669983059167862,-9.879929542541504,0,0,39.0,1,1,270,281
40.44329400,40443294,0,0.0032976330257952213,-0.002043022308498621,0.0013302438892424107,-0.6892996430397034,-0.0766797587275505,-9.879929542541504,0,0,39.0,1,1,270,281
40.50564600,40505646,0,0.0008462186669930816,-0.0005356285255402327,0.0015078341821208596,-0.6892998218536377,-0.07666105031967163,-9.879929542541504,0,0,39.0,1,1,270,281
40.56808200,40568082,0,0.0023012403398752213,-0.0017084400169551373,0.0006662434316240251,-0.6892999410629272,-0.07664365321397781,-9.879929542541504,0,0,39.0,1,1,270,281
40.63065100,40630651,0,-0.0021187439560890198,0.001703272107988596,0.0006869425997138023,-0.6893001198768616,-0.07662753015756607,-9.879929542541504,0,0,39.0,1,1,270,281
40.69310900,40693109,0,0.001770603354088962,-0.0027367158327251673,0.0015418820548802614,-0.6893001794815063,-0.07661262899637222,-9.879929542541504,0,0,39.0,1,1,270,281
40.75562400,40755624,0,0.0016018550377339125,-0.00331433629617095,0.0011896960204467177,-0.6893003582954407,-0.07659891247749329,-9.879929542541504,0,0,39.0,1,1,270,281
40.81808900,40818089,0,-9.633359150029719e-05,0.002701359800994396,0.00048147523193620145,-0.6893004179000854,-0.07658632099628448,-9.879929542541504,0,0,39.0,1,1,270,281
40.88084500,40880845,0,-0.0013659473042935133,0.0007926305406726897,0.0005823609535582364,-0.6893005967140198,-0.07657480984926224,-9.879929542541504,0,0,39.0,1,1,270,281
40.94388300,40943883,0,-0.0006838379194959998,0.0013155987253412604,0.0006042661843821406,-0.6893006563186646,-0.07656432688236237,-9.879929542541504,0,0,39.0,1,1,270,281
41.00612200,41006122,0,0.0008197997231036425,-0.0011035201605409384,0.001111997407861054,-0.6893008351325989,-0.07655482739210129,-9.879929542541504,0,0,39.0,1,1,270,281
41.06857600,41068576,0,-0.00022225588327273726,-0.001020929659716785,0.0007928156410343945,-0.6893008947372437,-0.07654626667499542,-9.879929542541504,0,0,39.0,1,1,270,281
41.13110800,41131108,0,0.0003907997743226588,-0.00026324993814341724,0.0010053236037492752,-0.6893010139465332,-0.07653860002756119,-9.879929542541504,0,0,39.0,1,1,270,281
41.19362200,41193622,0,0.0009223316446878016,0.0005515537923201919,0.00046787335304543376,-0.6893010139465332,-0.076531782746315,-9.879929542541504,0,0,39.0,1,1,270,281
41.25608300,41256083,0,-0.00013632248737849295,0.000866205315105617,0.0011735582957044244,-0.6893009543418884,-0.07652575522661209,-9.879929542541504,0,0,39.0,1,1,270,281
41.31860000,41318600,0,-0.00040698936209082603,0.0021527656354010105,0.0014574532397091389,-0.6893008351325989,-0.07652048021554947,-9.879929542541504,0,0,39.0,1,1,270,281
41.38149000,41381490,0,-0.0012510145315900445,-0.001752843614667654,0.0012377211824059486,-0.6893006563186646,-0.07651590555906296,-9.879929542541504,0,0,39.0,1,1,270,281
41.44396800,41443968,0,-0.0003681056259665638,0.0007326728664338589,0.0011852014577016234,-0.6893005967140198,-0.07651199400424957,-9.879929542541504,0,0,39.0,1,1,270,281
41.50613000,41506130,0,-0.0008483618148602545,0.002099990379065275,0.0006015741964802146,-0.6893004775047302,-0.07650870829820633,-9.879929542541504,0,0,39.0,1,1,270,281
41.56907200,41569072,0,-0.0007447079406119883,-0.000850098324008286,0.0012990041868761182,-0.689300537109375,-0.07650599628686905,-9.879929542541504,0,0,39.0,1,1,270,281
41.63176400,41631764,0,0.0012210411950945854,-0.0008918967214412987,0.0014354161685332656,-0.6893005967140198,-0.07650383561849594,-9.879929542541504,0,0,39.0,1,1,270,281
41.69424000,41694240,0,-0.001286613056436181,-0.00020290928659960628,0.0010255889501422644,-0.6893006563186646,-0.07650218158960342,-9.879929542541504,0,0,39.0,1,1,270,281
41.75659400,41756594,0,0.00027996060089208186,0.0005402362439781427,0.00122257845941931,-0.6893008351325989,-0.07650099694728851,-9.879929542541504,0,0,39.0,1,1,270,281
41.81914900,41819149,0,-0.0006837917026132345,0.0007276873220689595,0.0005628932849504054,-0.6893008947372437,-0.07650024443864822,-9.879929542541504,0,0,39.0,1,1,270,281
41.88191200,41881912,0,-0.0015394333750009537,0.004382259212434292,0.002309598959982395,-0.6893010139465332,-0.07649990171194077,-9.879929542541504,0,0,39.0,1,1,270,281
41.94425000,41944250,0,0.0016178952064365149,0.0007055350579321384,0.0014147453475743532,-0.6893010139465332,-0.07649991661310196,-9.879929542541504,0,0,39.0,1,1,270,281
42.00660400,42006604,0,0.00042368145659565926,0.0004175133944954723,0.0012615376617759466,-0.6893009543418884,-0.07650026679039001,-9.879929542541504,0,0,39.0,1,1,270,281
42.06915500,42069155,0,-0.0013016529846936464,0.00038336904253810644,0.0007250038906931877,-0.6893008351325989,-0.07650091499090195,-9.879929542541504,0,0,39.0,1,1,270,281
42.13233100,42132331,0,0.0018357266671955585,0.0016550857108086348,0.0011303848586976528,-0.6893006563186646,-0.07650183886289597,-9.879929542541504,0,0,39.0,1,1,270,281
42.19477900,42194779,0,0.0011906045256182551,-0.001932772109284997,0.0008915163925848901,-0.6893005967140198,-0.07650302350521088,-9.879929542541504,0,0,39.0,1,1,270,281
42.25711400,42257114,0,0.0008023325935937464,-9.608266555005684e-05,0.0009288948494940996,-0.6893004775047302,-0.0765044316649437,-9.879929542541504,0,0,39.0,1,1,270,281
42.31960000,42319600,0,3.636974361143075e-05,-0.0005768822738900781,0.0009699146612547338,-0.689300537109375,-0.07650603353977203,-9.879929542541504,0,0,39.0,1,1,270,281
42.38239900,42382399,0,-0.0010427512461319566,0.0008138003759086132,0.000677653937600553,-0.6893005967140198,-0.0765078142285347,-9.879929542541504,0,0,39.0,1,1,270,281
42.44484500,42444845,0,0.0009505555499345064,-0.0003464316250756383,0.0016787633066996932,-0.6893006563186646,-0.0765097513794899,-9.879929542541504,0,0,39.0,1,1,270,281
42.50712600,42507126,0,0.001126403221860528,0.0017453819746151567,0.0012799638789147139,-0.6893008351325989,-0.07651183009147644,-9.879929542541504,0,0,39.0,1,1,269,281
42.56961700,42569617,0,0.00020828282868023962,-0.0017910986207425594,0.001103995949961245,-0.6893008947372437,-0.07651402056217194,-9.879929542541504,0,0,39.0,1,1,269,280
42.63264700,42632647,0,0.0026179433334618807,-0.0014534690417349339,0.0017786654643714428,-0.6893010139465332,-0.07651631534099579,-9.879929542541504,0,0,39.0,1,1,269,280
42.69511800,42695118,0,-0.0007431380217894912,0.0026445994153618813,0.0008143510203808546,-0.6893010139465332,-0.07651867717504501,-9.879929542541504,0,0,39.0,1,1,269,280
42.75762700,42757627,0,0.00012106412032153457,-0.0001694834209047258,0.0011614123359322548,-0.6893009543418884,-0.07652110606431961,-9.879929542541504,0,0,39.0,1,1,269,280
42.82014100,42820141,0,0.0022517628967761993,-0.0015033710515126586,0.0005836010677739978,-0.6893008351325989,-0.07652358710765839,-9.879929542541504,0,0,38.0,1,1,269,280
42.88283400,42882834,0,0.0018675047904253006,-0.0009304977138526738,0.000814113940577954,-0.6893006563186646,-0.07652611285448074,-9.879929542541504,0,0,38.0,1,1,269,280
42.94533800,42945338,0,0.0010524067329242826,-4.594700294546783e-05,0.0011878892546519637,-0.6893005967140198,-0.0765286535024643,-9.879929542541504,0,0,38.0,1,1,269,280
43.00762000,43007620,0,0.0010825635399669409,-0.0006071573006920516,0.00029758058371953666,-0.6893004775047302,-0.07660356909036636,-9.879929542541504,0,0,38.0,1,1,269,280
43.07007600,43070076,0,-0.000497016473673284,-0.00018592536798678339,0.0006578421453014016,-0.689300537109375,-0.07681677490472794,-9.879929542541504,0,0,38.0,1,1,269,280
43.13317300,43133173,0,-0.00039091514190658927,0.0008719227625988424,0.000839237414766103,-0.6893005967140198,-0.07708334922790527,-9.879929542541504,0,0,38.0,1,1,269,280
43.19563800,43195638,0,0.000332734634866938,-0.0011958364630118012,0.0008220800664275885,-0.6893006563186646,-0.07732538878917694,-9.879929542541504,0,0,38.0,1,1,269,280
43.25808900,43258089,0,0.0005341001087799668,-0.003142938017845154,0.001589666586369276,-0.6893008351325989,-0.07754406332969666,-9.879929542541504,0,0,38.0,1,1,269,280
43.32054600,43320546,0,0.0010002702474594116,-0.00045771506847813725,0.0014326733071357012,-0.6893008947372437,-0.07774054259061813,-9.879929542541504,0,0,38.0,1,1,269,280
43.38333800,43383338,0,0.0010178486118093133,0.0009167976677417755,0.0010337720159441233,-0.6893010139465332,-0.07791595906019211,-9.879929542541504,0,0,38.0,1,1,269,280
43.44582800,43445828,0,0.000181199808139354,-0.00048464341671206057,0.0014684547204524279,-0.6893010139465332,-0.07807145267724991,-9.879929542541504,0,0,38.0,1,1,269,280
43.50813400,43508134,0,-0.0008653633994981647,-0.0008481500553898513,0.0006484909681603312,-0.6893009543418884,-0.07820811867713928,-9.879929542541504,0,0,38.0,1,1,269,280
43.57054700,43570547,0,0.0008260187460109591,5.661422619596124e-06,0.0010936849284917116,-0.6893008351325989,-0.07832703739404678,-9.879929542541504,0,0,38.0,1,1,269,280
43.63372900,43633729,0,-0.0013046833919361234,-0.00026725884526968,0.0016655438812449574,-0.6893006563186646,-0.07842927426099777,-9.879929542541504,0,0,38.0,1,1,269,280
43.69613300,43696133,0,0.0016790400259196758,-0.0022330775391310453,0.0007651596097275615,-0.6893005967140198,-0.07851586490869522,-9.879929542541504,0,0,38.0,1,1,269,280
43.75861500,43758615,0,-0.0014165848260745406,-0.0017316379817202687,0.0011337815085425973,-0.6893004775047302,-0.07858780771493912,-9.879929542541504,0,0,38.0,1,1,269,280
43.82105700,43821057,0,-0.0001974185142898932,-0.0025041992776095867,0.0020094853825867176,-0.689300537109375,-0.07864607870578766,-9.879929542541504,0,0,38.0,1,1,269,280
43.88390400,43883904,0,0.0007823922787792981,-0.0012935997219756246,0.0013219625689089298,-0.6893005967140198,-0.07869162410497665,-9.879929542541504,0,0,38.0,1,1,269,280
43.94626700,43946267,0,-0.0005921326810494065,-0.0013227538438513875,0.0011805567191913724,-0.6893006563186646,-0.07872534543275833,-9.879929542541504,0,0,38.0,1,1,269,280
44.00858400,44008584,0,-0.0004921802319586277,-0.0002046081208391115,0.0009963028132915497,-0.6893008351325989,-0.07874812930822372,-9.879929542541504,0,0,38.0,1,1,269,280
44.07113200,44071132,0,0.0017752686981111765,-0.0029839195776730776,0.0006919107399880886,-0.6893008947372437,-0.07876081019639969,-9.879929542541504,0,0,38.0,1,1,269,280
44.13413100,44134131,0,0.00039214995922520757,0.0009588079992681742,0.0005975362728349864,-0.6893010139465332,-0.07876421511173248,-9.879929542541504,0,0,38.0,1,1,269,280
44.19671800,44196718,0,0.0007436144514940679,0.00047487320262007415,0.0012439590645954013,-0.6893010139465332,-0.0787590965628624,-9.879929542541504,0,0,38.0,1,1,269,280
44.25907800,44259078,0,0.0018219654448330402,-0.0015938758151605725,0.0010584131814539433,-0.6893009543418884,-0.07874621450901031,-9.879929542541504,0,0,38.0,1,1,269,280
44.32155700,44321557,0,0.0013993866741657257,-0.0014157629339024425,0.000933708215598017,-0.6893008351325989,-0.07872628420591354,-9.879929542541504,0,0,38.0,1,1,269,280
44.38448700,44384487,0,0.002827162854373455,-0.0032267053611576557,0.0010937557090073824,-0.6893006563186646,-0.0786999836564064,-9.879929542541504,0,0,38.0,1,1,269,280
44.41833300,44418333,0,0.002749789971858263,-0.0027244731318205595,0.0009356781374663115,-0.6893005967140198,-0.07874029129743576,-9.879929542541504,0,0,38.0,1,1,269,280
44.41875600,44418756,0,0.001706077717244625,-0.0011909200111404061,0.0001638102694414556,-0.6893728375434875,-0.07891375571489334,-9.88000202178955,0,0,38.0,1,1,269,280
44.42142100,44421421,0,0.0015486916527152061,0.008374221622943878,-0.0020031689200550318,-0.6911453008651733,-0.08230344951152802,-9.880264282226562,0,0,38.0,1,1,269,280
44.42402000,44424020,0,-0.010779821313917637,-0.00047240228741429746,-0.0030571669340133667,-0.694166898727417,-0.08524547517299652,-9.881135940551758,0,0,38.0,1,1,269,280
44.42668500,44426685,0,0.0015012766234576702,0.003052451880648732,0.0017790952697396278,-0.6965925097465515,-0.08900556713342667,-9.88217830657959,0,0,38.0,1,1,269,280
44.42910800,44429108,0,0.0031556831672787666,-0.0035825001541525126,-0.0037141432985663414,-0.696821391582489,-0.09064200520515442,-9.884293556213379,0,0,38.0,1,1,269,280
44.43156800,44431568,0,0.0010950759751722217,-0.006699706427752972,-0.0014249891974031925,-0.6980075836181641,-0.09044411778450012,-9.885849952697754,0,0,38.0,1,1,269,280
44.43396400,44433964,0,-0.0036265694070607424,-0.0019584980327636003,-0.005119713023304939,-0.7010341286659241,-0.08938593417406082,-9.89151382446289,0,0,38.0,1,1,269,280
44.43657400,44436574,0,-0.002707716776058078,0.009488342329859734,0.004227533005177975,-0.7013397216796875,-0.0857834741473198,-9.893619537353516,0,0,38.0,1,1,269,280
44.43899400,44438994,0,0.006179822608828545,0.0027649272233247757,-0.001879961579106748,-0.7025395631790161,-0.08429153263568878,-9.89272689819336,0,0,38.0,1,1,269,280
44.44143400,44441434,0,0.005578033626079559,-0.002315688878297806,0.005799567326903343,-0.705424964427948,-0.08309020847082138,-9.89146900177002,0,0,38.0,1,1,269,280
44.44396300,44443963,0,-0.00029985595028847456,-0.006717701442539692,0.000634087307844311,-0.7076863646507263,-0.0825943574309349,-9.89055347442627,0,0,38.0,1,1,269,280
44.44658300,44446583,0,-0.005177187733352184,0.006544267758727074,0.0023584666196256876,-0.7085104584693909,-0.08269203454256058,-9.891514778137207,0,0,38.0,1,1,269,280
44.44896200,44448962,0,0.0046317544765770435,-0.0073935529217123985,7.393836858682334e-05,-0.7077555656433105,-0.08385720103979111,-9.889925003051758,0,0,38.0,1,1,269,280
44.45146100,44451461,0,-0.008427607826888561,0.015223918482661247,-0.00600449601188302,-0.7063326239585876,-0.08517537266016006,-9.888199806213379,0,0,38.0,1,1,269,280
44.45396000,44453960,0,-0.007879627868533134,-0.0006278469809331,-0.0050565642304718494,-0.7034891843795776,-0.08581826835870743,-9.886458396911621,0,0,38.0,1,1,269,280
44.45653200,44456532,0,-0.003344153519719839,-0.005852887406945229,0.009227710776031017,-0.7020806670188904,-0.08195570111274719,-9.883737564086914,0,0,38.0,1,1,269,280
44.45906500,44459065,0,0.003329311031848192,0.0004977859789505601,0.002579042222350836,-0.702748715877533,-0.07589153945446014,-9.884169578552246,0,0,38.0,1,1,269,280
44.46146200,44461462,0,-0.0010746961925178766,-0.010056668892502785,-0.006587723270058632,-0.7051536440849304,-0.07065122574567795,-9.8856840133667,0,0,38.0,1,1,269,280
44.46393100,44463931,0,0.005087540950626135,-0.0110483318567276,0.0032934891059994698,-0.7074100971221924,-0.06732916831970215,-9.888983726501465,0,0,38.0,1,1,269,280
44.46655300,44466553,0,0.0030891629867255688,-0.00027037429390475154,0.0042382050305604935,-0.7088102102279663,-0.07013305276632309,-9.889493942260742,0,0,38.0,1,1,269,280
44.46893000,44468930,0,0.001579951262101531,-0.0009934958070516586,0.006442168261855841,-0.7091732025146484,-0.07722379267215729,-9.887792587280273,0,0,38.0,1,1,269,280
44.47153500,44471535,0,0.006269925273954868,0.001067867036908865,-0.003081943839788437,-0.7072936296463013,-0.0873815268278122,-9.883790969848633,0,0,38.0,1,1,269,280
44.47392800,44473928,0,0.007337889634072781,-0.007685165852308273,-0.009883822873234749,-0.7060366868972778,-0.09419062733650208,-9.881949424743652,0,0,38.0,1,1,269,280
44.47653500,44476535,0,-0.0002786946133710444,0.006994850467890501,0.0038450320716947317,-0.7056664228439331,-0.09696773439645767,-9.880419731140137,0,0,38.0,1,1,269,280
44.47892900,44478929,0,0.009563615545630455,0.010166507214307785,0.004074858035892248,-0.7060873508453369,-0.09831799566745758,-9.882502555847168,0,0,38.0,1,1,269,280
44.48156900,44481569,0,-0.00019813235849142075,0.0066650910302996635,0.0006441737641580403,-0.7049007415771484,-0.10012853145599365,-9.88365650177002,0,0,38.0,1,1,269,280
44.48392800,44483928,0,0.0010196706280112267,-0.0022665755823254585,0.00055608747061342,-0.7055109143257141,-0.10486576706171036,-9.88370418548584,0,0,38.0,1,1,269,280
44.48654700,44486547,0,0.00022533637820743024,0.017474940046668053,-0.0007298809359781444,-0.7033884525299072,-0.10698604583740234,-9.886265754699707,0,0,38.0,1,1,269,280
44.48896100,44488961,0,-0.00208134762942791,0.004716821946203709,-0.003206409513950348,-0.7009744048118591,-0.1099066212773323,-9.892601013183594,0,0,38.0,1,1,269,280
44.49150500,44491505,0,-0.0002978201664518565,-0.010631473734974861,-0.0034601909574121237,-0.7008457779884338,-0.11113227903842926,-9.895785331726074,0,0,38.0,1,1,269,280
44.49392500,44493925,0,-0.014323299750685692,0.004773655906319618,0.008344179019331932,-0.7024237513542175,-0.11137927323579788,-9.897369384765625,0,0,38.0,1,1,269,280
44.49650600,44496506,0,-0.0051622334867715836,-0.001673455466516316,0.00045787531416863203,-0.7017660140991211,-0.11183439940214157,-9.8948974609375,0,0,38.0,1,1,269,280
44.49904200,44499042,0,-0.007404530420899391,-0.0007276168325915933,-0.002301020547747612,-0.7016018033027649,-0.11122781783342361,-9.893245697021484,0,0,38.0,1,1,269,280
44.50153500,44501535,0,-0.005080582108348608,0.008821407333016396,-0.005621057935059071,-0.69879150390625,-0.11178702116012573,-9.887654304504395,0,0,38.0,1,1,269,280
44.50405400,44504054,0,-0.006623100023716688,0.006735983304679394,-0.00015099234587978572,-0.6979771256446838,-0.11245731264352798,-9.885865211486816,0,0,38.0,1,1,269,280
44.50666000,44506660,0,-0.002440565498545766,0.005043363198637962,-0.006700770929455757,-0.6986462473869324,-0.1138734221458435,-9.886292457580566,0,0,38.0,1,1,269,280
44.50924400,44509244,0,-0.013940510340034962,-0.005295497365295887,-0.005461706314235926,-0.6985923647880554,-0.11289691925048828,-9.883012771606445,0,0,38.0,1,1,269,280
44.51151400,44511514,0,0.00618563499301672,-0.010667924769222736,0.0037634368054568768,-0.6994717717170715,-0.10880864411592484,-9.879258155822754,0,0,38.0,1,1,269,280
44.51392800,44513928,0,0.004165656864643097,-0.010990379378199577,-0.0012932156678289175,-0.7004967927932739,-0.10256866365671158,-9.874021530151367,0,0,38.0,1,1,269,280
44.51650100,44516501,0,0.005847014021128416,-0.012511861510574818,0.0050167180597782135,-0.7030331492424011,-0.09525071084499359,-9.869756698608398,0,0,38.0,1,1,269,280
44.51893000,44518930,0,-0.0020919658709317446,0.01360140461474657,-0.006379673723131418,-0.7063552737236023,-0.09003318846225739,-9.867595672607422,0,0,38.0,1,1,269,280
44.52150200,44521502,0,0.008118183352053165,0.010652627795934677,0.003135593608021736,-0.7067439556121826,-0.08616843819618225,-9.866728782653809,0,0,38.0,1,1,269,280
44.52395100,44523951,0,-0.003412006888538599,0.006756904534995556,0.0002543534501455724,-0.7053147554397583,-0.08574677258729935,-9.864191055297852,0,0,38.0,1,1,269,280
44.52658900,44526589,0,-0.010359889827668667,0.014240687713027,-0.006412140559405088,-0.7022858262062073,-0.08767497539520264,-9.863347053527832,0,0,38.0,1,1,269,280
44.52893100,44528931,0,0.005892990157008171,0.005269312299787998,0.0009231145959347486,-0.7004967331886292,-0.0929851084947586,-9.867517471313477,0,0,38.0,1,1,269,280
44.53145900,44531459,0,0.004364666994661093,0.005896712653338909,0.004031831864267588,-0.7016018033027649,-0.09824876487255096,-9.873093605041504,0,0,38.0,1,1,269,280
44.53393400,44533934,0,-0.012386901304125786,0.001029391773045063,0.0002122008299920708,-0.7025774717330933,-0.10091647505760193,-9.878300666809082,0,0,38.0,1,1,269,280
44.53643500,44536435,0,-0.001861482742242515,0.005614410154521465,0.005196199286729097,-0.7076510190963745,-0.10054897516965866,-9.883298873901367,0,0,38.0,1,1,269,280
44.53894800,44538948,0,-0.0002281225024489686,0.007071573752909899,-0.002473230240866542,-0.713500440120697,-0.10173600912094116,-9.88721752166748,0,0,38.0,1,1,269,280
44.54146100,44541461,0,0.0007537780911661685,-0.0054292501881718636,0.0016081600915640593,-0.7155500054359436,-0.10265565663576126,-9.890352249145508,0,0,38.0,1,1,269,280
44.54393400,44543934,0,-0.0036389853339642286,-0.01156200747936964,-0.00486935256049037,-0.7146672606468201,-0.10115759819746017,-9.891647338867188,0,0,38.0,1,1,269,280
44.54655200,44546552,0,-0.0005006412975490093,0.0021949370857328176,0.003937181551009417,-0.7171790599822998,-0.09630811959505081,-9.897945404052734,0,0,38.0,1,1,269,280
44.54906300,44549063,0,0.004183665849268436,0.005769696086645126,0.0008119911071844399,-0.7196478247642517,-0.09299415349960327,-9.900545120239258,0,0,38.0,1,1,269,280
44.55156500,44551565,0,-0.007303483784198761,0.010059034451842308,0.001169369206763804,-0.7198464870452881,-0.09282682090997696,-9.8991060256958,0,0,38.0,1,1,269,280
44.55393500,44553935,0,-0.007128996774554253,0.011120428331196308,-0.0062405080534517765,-0.7189725041389465,-0.0944715291261673,-9.896681785583496,0,0,38.0,1,1,269,280
44.55656700,44556567,0,0.009959486313164234,-0.007056078873574734,-0.0003852812515106052,-0.718650758266449,-0.09909622371196747,-9.892145156860352,0,0,38.0,1,1,269,280
44.55904100,44559041,0,0.0004512081213761121,0.010586007498204708,-0.001385857118293643,-0.7149345874786377,-0.10511346906423569,-9.887028694152832,0,0,38.0,1,1,269,280
44.56143300,44561433,0,-0.008693058043718338,-2.5226907382602803e-05,0.00331110623665154,-0.7102273106575012,-0.10810617357492447,-9.883309364318848,0,0,38.0,1,1,269,280
44.56403700,44564037,0,0.006783317308872938,0.0052284253761172295,-0.003443807130679488,-0.7054751515388489,-0.10805762559175491,-9.880411148071289,0,0,38.0,1,1,269,280
44.56653700,44566537,0,-0.0033061783760786057,-0.007320352829992771,0.0025757132098078728,-0.7030794620513916,-0.10825030505657196,-9.877908706665039,0,0,38.0,1,1,269,280
44.56900500,44569005,0,-0.004411933943629265,-0.00020380424393806607,0.008301212452352047,-0.7030317187309265,-0.10931899398565292,-9.88117790222168,0,0,38.0,1,1,269,280
44.57156300,44571563,0,-0.006657795049250126,0.004528820980340242,-0.005988322198390961,-0.7032917141914368,-0.11007826030254364,-9.885307312011719,0,0,38.0,1,1,269,280
44.57396000,44573960,0,-0.0071809254586696625,0.007258199155330658,0.001060232287272811,-0.7049619555473328,-0.11133554577827454,-9.887092590332031,0,0,38.0,1,1,269,280
44.57646000,44576460,0,-0.01765107549726963,0.002084621461108327,0.003452528966590762,-0.707011878490448,-0.11308510601520538,-9.888861656188965,0,0,38.0,1,1,269,280
44.57895900,44578959,0,0.0068236058577895164,-0.001102933892980218,0.0014197289710864425,-0.7081190347671509,-0.11405894160270691,-9.887846946716309,0,0,38.0,1,1,269,280
44.58143400,44581434,0,-0.004526297561824322,6.131113332230598e-05,-0.00014666009519714862,-0.7103206515312195,-0.11161176860332489,-9.89199161529541,0,0,38.0,1,1,269,280
44.58404300,44584043,0,-0.007042981218546629,0.0005114261293783784,0.007359019014984369,-0.7103800177574158,-0.10772289335727692,-9.895219802856445,0,0,38.0,1,1,269,280
44.58653600,44586536,0,-0.006737168878316879,0.0009876274270936847,-0.010014573112130165,-0.7073695063591003,-0.10575303435325623,-9.891242027282715,0,0,38.0,1,1,269,280
44.58894900,44588949,0,0.009372139349579811,-0.005283321253955364,0.011495457962155342,-0.7078701257705688,-0.10507593303918839,-9.887418746948242,0,0,38.0,1,1,269,280
44.59150800,44591508,0,0.005376030225306749,0.004664074629545212,-0.0006289943703450263,-0.7088590264320374,-0.10308951139450073,-9.880436897277832,0,0,38.0,1,1,269,280
44.59407300,44594073,0,0.007301324978470802,-0.012783627025783062,-0.003061965573579073,-0.7094208002090454,-0.09847334027290344,-9.876537322998047,0,0,38.0,1,1,269,280
44.59646700,44596467,0,-0.003752245334908366,0.002827485091984272,-0.004900135099887848,-0.7089013457298279,-0.09510677307844162,-9.87463092803955,0,0,38.0,1,1,269,280
44.59895900,44598959,0,-0.010407799854874611,0.0016925056697800756,0.0026055290363729,-0.708684504032135,-0.09210467338562012,-9.873466491699219,0,0,38.0,1,1,269,280
44.60153700,44601537,0,0.006693398579955101,0.003979932516813278,-0.003995268605649471,-0.7089851498603821,-0.0895775854587555,-9.872880935668945,0,0,38.0,1,1,269,280
44.60404200,44604042,0,0.0036226343363523483,0.0020226724445819855,0.001154980855062604,-0.7068548798561096,-0.0874720886349678,-9.871479988098145,0,0,38.0,1,1,269,280
44.60663800,44606638,0,0.003838669741526246,-0.002547935349866748,-0.0001772963150870055,-0.7045450210571289,-0.08475487679243088,-9.869904518127441,0,0,38.0,1,1,269,280
44.60926800,44609268,0,0.0010640271939337254,-0.01908286288380623,0.0012996739242225885,-0.7020699381828308,-0.08352099359035492,-9.871566772460938,0,0,38.0,1,1,269,280
44.61156900,44611569,0,0.009342659264802933,0.0001974741753656417,0.0032992649357765913,-0.7009274363517761,-0.08097528666257858,-9.872823715209961,0,0,38.0,1,1,269,280
44.61392300,44613923,0,-0.0010059872874990106,0.007860803045332432,-0.005525168962776661,-0.7020187377929688,-0.07853762805461884,-9.871171951293945,0,0,38.0,1,1,269,280
44.61657100,44616571,0,0.008258477784693241,0.0010959909996017814,0.003693727310746908,-0.7024393081665039,-0.07748348265886307,-9.868249893188477,0,0,38.0,1,1,269,280
44.61892600,44618926,0,0.00885685533285141,-0.008758995682001114,-0.00453158700838685,-0.7044815421104431,-0.07655937224626541,-9.86872673034668,0,0,38.0,1,1,269,280
44.62150500,44621505,0,0.007535665761679411,-0.00826606061309576,0.003286966821178794,-0.7048987150192261,-0.07711666077375412,-9.872842788696289,0,0,38.0,1,1,269,280
44.62392400,44623924,0,0.001680386601947248,-0.002441761316731572,0.0018452832009643316,-0.705721914768219,-0.07586277276277542,-9.880643844604492,0,0,38.0,1,1,269,280
44.62664300,44626643,0,-0.0034684869460761547,0.002868970623239875,0.003979828674346209,-0.7069202661514282,-0.07606622576713562,-9.886116981506348,0,0,38.0,1,1,269,280
44.62892900,44628929,0,-0.0032930655870586634,0.005122274626046419,-0.003909972030669451,-0.7071280479431152,-0.07419002056121826,-9.887889862060547,0,0,38.0,1,1,269,280
44.63150700,44631507,0,0.0009717657812871039,0.009927290491759777,0.001075788284651935,-0.7079615592956543,-0.07380906492471695,-9.890865325927734,0,0,38.0,1,1,269,280
44.63394800,44633948,0,0.00010921994544332847,0.0026801535859704018,-0.00059009890537709,-0.7113772630691528,-0.07362030446529388,-9.88913345336914,0,0,38.0,1,1,269,280
44.63651000,44636510,0,-0.00792564358562231,-0.004253759048879147,0.00570762250572443,-0.7109175324440002,-0.0721563994884491,-9.88718318939209,0,0,38.0,1,1,269,280
44.63900600,44639006,0,-0.0031773531809449196,-0.0015793911879882216,0.0001795002754079178,-0.7103981375694275,-0.07140802592039108,-9.886123657226562,0,0,38.0,1,1,269,280
44.64142000,44641420,0,-0.005972542334347963,0.0032080430537462234,-0.001672526472248137,-0.7097312808036804,-0.07383561134338379,-9.88723087310791,0,0,38.0,1,1,269,280
44.64396400,44643964,0,-0.0021276965271681547,0.002373401541262865,0.006192303262650967,-0.707233726978302,-0.07823111861944199,-9.887556076049805,0,0,38.0,1,1,269,280
44.64654300,44646543,0,-0.002729219850152731,-0.0029536159709095955,-0.0015014028176665306,-0.7026287913322449,-0.08105149120092392,-9.88682746887207,0,0,38.0,1,1,269,280
44.64900800,44649008,0,0.00020336135639809072,-0.009242648258805275,0.00439886748790741,-0.6986219882965088,-0.08071091771125793,-9.886120796203613,0,0,38.0,1,1,269,280
44.65153900,44651539,0,0.0015922923339530826,0.0005771945579908788,-0.007665554527193308,-0.6955986618995667,-0.08425929397344589,-9.88564395904541,0,0,38.0,1,1,269,280
44.65393200,44653932,0,-0.008472287096083164,0.006615027319639921,-0.0017842615488916636,-0.6950183510780334,-0.08800917118787766,-9.885783195495605,0,0,38.0,1,1,269,280
44.65656900,44656569,0,0.007070088759064674,0.004365756642073393,0.002416246337816119,-0.6952803134918213,-0.09161753207445145,-9.884861946105957,0,0,38.0,1,1,269,280
44.65893000,44658930,0,0.0026191347278654575,0.0015942762838676572,0.0008503121207468212,-0.6980525851249695,-0.09294174611568451,-9.884293556213379,0,0,38.0,1,1,269,280
44.66156800,44661568,0,-0.005797772668302059,0.017417900264263153,-0.0017699557356536388,-0.6985484957695007,-0.09182336926460266,-9.8828125,0,0,38.0,1,1,269,280
44.66403800,44664038,0,-0.006304475013166666,0.008714402094483376,0.005333909299224615,-0.698842465877533,-0.08894197642803192,-9.879616737365723,0,0,38.0,1,1,269,280
44.66654300,44666543,0,0.00618206849321723,0.009845116175711155,0.0016435316065326333,-0.6972008943557739,-0.08532252162694931,-9.873109817504883,0,0,38.0,1,1,269,280
44.66899300,44668993,0,-0.004742152988910675,0.005444440990686417,-0.0037913694977760315,-0.6960564255714417,-0.08361440896987915,-9.867114067077637,0,0,38.0,1,1,269,280
44.67153300,44671533,0,0.0017444334225729108,-0.0041700731962919235,-0.0007228258764371276,-0.6955934166908264,-0.08598238229751587,-9.863090515136719,0,0,38.0,1,1,269,280
44.67399500,44673995,0,0.0056419470347464085,-0.007255634292960167,-0.0018736295169219375,-0.6940030455589294,-0.0930105596780777,-9.862136840820312,0,0,38.0,1,1,269,280
44.67646100,44676461,0,-0.0015817710664123297,-0.011714210733771324,0.0024326061829924583,-0.6954941749572754,-0.09959227591753006,-9.8642578125,0,0,38.0,1,1,269,280
44.67893400,44678934,0,0.008538900874555111,-0.009967949241399765,-0.006218017544597387,-0.6996577978134155,-0.10332727432250977,-9.868205070495605,0,0,38.0,1,1,269,280
44.68143000,44681430,0,0.011454146355390549,-0.006142732687294483,0.0019264786969870329,-0.7033088207244873,-0.10457682609558105,-9.877168655395508,0,0,38.0,1,1,269,280
44.68408000,44684080,0,0.0003179538471158594,0.007175678852945566,0.0031517271418124437,-0.7068015336990356,-0.10686405748128891,-9.886177062988281,0,0,38.0,1,1,269,280
44.68653200,44686532,0,0.0022000044118613005,-0.00813936349004507,-0.0027453929651528597,-0.7081265449523926,-0.10944413393735886,-9.891359329223633,0,0,38.0,1,1,269,280
44.68903100,44689031,0,0.015381457284092903,-0.002653231378644705,0.0016423632623627782,-0.7065452933311462,-0.11148539185523987,-9.891637802124023,0,0,38.0,1,1,269,280
44.69142900,44691429,0,0.0028342553414404392,-0.007494642864912748,-0.004483396653085947,-0.7045182585716248,-0.11142107844352722,-9.890305519104004,0,0,38.0,1,1,269,280
44.69396400,44693964,0,-0.014801084995269775,-0.0023871753364801407,-0.0006337687373161316,-0.7045610547065735,-0.11249586939811707,-9.887797355651855,0,0,38.0,1,1,269,280
44.69643000,44696430,0,-0.0036039119586348534,0.008052564226090908,0.0019310349598526955,-0.7067679762840271,-0.1128038689494133,-9.883689880371094,0,0,38.0,1,1,269,280
44.69896100,44698961,0,-0.0009605141240172088,0.003758501261472702,-0.002937042387202382,-0.7101536393165588,-0.11251869052648544,-9.879931449890137,0,0,38.0,1,1,269,280
44.70153900,44701539,0,-8.895456267055124e-05,-0.006250386126339436,-0.0011683297343552113,-0.7108358144760132,-0.11185190081596375,-9.877345085144043,0,0,38.0,1,1,269,280
44.70400800,44704008,0,0.004270321223884821,-0.003476813668385148,0.01180857140570879,-0.7132431864738464,-0.11091826856136322,-9.877007484436035,0,0,38.0,1,1,269,280
44.70666800,44706668,0,0.008311368525028229,-0.003910582512617111,-0.009883870370686054,-0.7178694009780884,-0.10920481383800507,-9.876593589782715,0,0,38.0,1,1,269,280
44.70932700,44709327,0,-0.0003513586998451501,0.003621707670390606,0.00546643603593111,-0.7231574654579163,-0.10633515566587448,-9.87692642211914,0,0,38.0,1,1,269,280
44.71143200,44711432,0,-0.006725721061229706,-0.007284223102033138,-0.00570232979953289,-0.7257082462310791,-0.10182920843362808,-9.876829147338867,0,0,38.0,1,1,269,280
44.71399500,44713995,0,0.004323377273976803,0.0034928524401038885,-0.00430147023871541,-0.7273024916648865,-0.09882953763008118,-9.87829303741455,0,0,38.0,1,1,269,280
44.71653900,44716539,0,0.0012909297365695238,0.001021030475385487,-0.00043346392340026796,-0.7289834022521973,-0.09796639531850815,-9.875117301940918,0,0,38.0,1,1,269,280
44.71896200,44718962,0,-0.003689666511490941,-0.006773751694709063,0.004111368674784899,-0.7297910451889038,-0.09745199978351593,-9.864537239074707,0,0,38.0,1,1,269,280
44.72142900,44721429,0,-0.008210534229874611,0.005240787286311388,-0.002548960270360112,-0.7284379005432129,-0.09859026968479156,-9.858092308044434,0,0,38.0,1,1,269,280
44.72396400,44723964,0,0.004174429923295975,-0.0007999147637747228,-0.00335213216021657,-0.7253503203392029,-0.09951726347208023,-9.854826927185059,0,0,38.0,1,1,269,280
44.72653800,44726538,0,-0.006855469197034836,0.00618968578055501,0.004287037532776594,-0.7211819291114807,-0.09524744749069214,-9.857089042663574,0,0,38.0,1,1,269,280
44.72907600,44729076,0,-0.012315871194005013,0.023408951237797737,-0.0009304324630647898,-0.7186669111251831,-0.0888495072722435,-9.861286163330078,0,0,38.0,1,1,269,280
44.73142900,44731429,0,0.007182680070400238,-0.0010351475793868303,0.0022510122507810593,-0.7173103094100952,-0.08322460204362869,-9.869694709777832,0,0,38.0,1,1,269,280
44.73404400,44734044,0,-0.0019011967815458775,-0.004961893893778324,-2.3739001335343346e-05,-0.7141138911247253,-0.08278164267539978,-9.875204086303711,0,0,38.0,1,1,269,280
44.73644900,44736449,0,0.00767937209457159,-0.0052125463262200356,0.006042938679456711,-0.7090107798576355,-0.08549191057682037,-9.879225730895996,0,0,38.0,1,1,269,280
44.73903700,44739037,0,-0.00038751866668462753,-0.0157161932438612,0.001986659597605467,-0.705867350101471,-0.08889444172382355,-9.878649711608887,0,0,38.0,1,1,269,280
44.74143400,44741434,0,-0.009696404449641705,0.0007210002513602376,-0.0017133685760200024,-0.7088848352432251,-0.0885094553232193,-9.874932289123535,0,0,38.0,1,1,269,280
44.74400900,44744009,0,-0.01025383360683918,0.012019895948469639,-0.005009545013308525,-0.7118282914161682,-0.08686693757772446,-9.8739013671875,0,0,38.0,1,1,269,280
44.74653600,44746536,0,-0.0032881801016628742,0.00865781307220459,-0.0021921887528151274,-0.7120793461799622,-0.08623268455266953,-9.86921501159668,0,0,38.0,1,1,269,280
44.74900500,44749005,0,-0.004624292254447937,0.013795088045299053,-0.005837963428348303,-0.7133187055587769,-0.0889146476984024,-9.8706636428833,0,0,38.0,1,1,269,280
44.75157600,44751576,0,-0.010893161408603191,0.0064350091852247715,-0.000581279571633786,-0.714859664440155,-0.09077761322259903,-9.87331771850586,0,0,38.0,1,1,269,280
44.75393400,44753934,0,0.0012415809324011207,0.012172779068350792,-0.005160205997526646,-0.7174190282821655,-0.09105179458856583,-9.875776290893555,0,0,38.0,1,1,269,280
44.75653300,44756533,0,-0.0009020038996823132,0.0022382172755897045,0.0012610513949766755,-0.7179630398750305,-0.09325099736452103,-9.88123607635498,0,0,38.0,1,1,269,280
44.75905900,44759059,0,-0.0022874660789966583,0.005707905162125826,-0.006788258906453848,-0.7177914381027222,-0.09146656841039658,-9.885396957397461,0,0,38.0,1,1,269,280
44.76156600,44761566,0,0.001709801726974547,-0.00855124369263649,0.008430159650743008,-0.7169395089149475,-0.08754140883684158,-9.886672973632812,0,0,38.0,1,1,269,280
44.76393400,44763934,0,0.004010126460343599,0.006243258714675903,0.00222890661098063,-0.7152825593948364,-0.08445888012647629,-9.889117240905762,0,0,38.0,1,1,269,280
44.76653800,44766538,0,0.00018621205526869744,-0.002140974160283804,-0.008152524940669537,-0.7143483757972717,-0.07991666346788406,-9.890907287597656,0,0,38.0,1,1,269,280
44.76904100,44769041,0,-0.010706010274589062,0.003364608623087406,-0.0002381268423050642,-0.7120628952980042,-0.07597487419843674,-9.890791893005371,0,0,38.0,1,1,269,280
44.77146100,44771461,0,-0.0006303280242718756,-0.0038734436966478825,-0.007822088897228241,-0.7139371037483215,-0.07387569546699524,-9.889915466308594,0,0,38.0,1,1,269,280
44.77400600,44774006,0,0.012935459613800049,-0.008210028521716595,0.006610239390283823,-0.7145881652832031,-0.07573088258504868,-9.886124610900879,0,0,38.0,1,1,269,280
44.77646100,44776461,0,-0.0003851609362754971,0.008106193505227566,0.0003617851180024445,-0.7149997353553772,-0.0794161781668663,-9.881892204284668,0,0,38.0,1,1,269,280
44.77893100,44778931,0,0.009650868363678455,-0.002486087381839752,-0.004175256006419659,-0.7160603404045105,-0.08037691563367844,-9.876590728759766,0,0,38.0,1,1,269,280
44.78143400,44781434,0,0.0008943701977841556,0.006292281206697226,0.004037090577185154,-0.7159086465835571,-0.08391628414392471,-9.873075485229492,0,0,38.0,1,1,269,280
44.78393000,44783930,0,-0.011678086593747139,0.010595476254820824,-0.005507821682840586,-0.7138559222221375,-0.0903293713927269,-9.871891975402832,0,0,38.0,1,1,269,280
44.78656900,44786569,0,-0.009975327178835869,0.005399149842560291,-0.0010941984364762902,-0.7094967365264893,-0.09624914079904556,-9.870667457580566,0,0,38.0,1,1,269,280
44.78893100,44788931,0,-0.0014862335519865155,0.0104217529296875,0.00881140399724245,-0.7068312168121338,-0.10057485103607178,-9.871420860290527,0,0,38.0,1,1,269,280
44.79146300,44791463,0,-0.009408512152731419,0.003173916367813945,-0.00454302504658699,-0.7036831974983215,-0.09906698018312454,-9.868026733398438,0,0,38.0,1,1,269,280
44.79392900,44793929,0,0.002825419884175062,-0.008147679269313812,0.004392687231302261,-0.7021491527557373,-0.09393259137868881,-9.864021301269531,0,0,38.0,1,1,269,280
44.79657400,44796574,0,-0.0005725223454646766,-0.011676372960209846,0.002818650333210826,-0.7024203538894653,-0.08730655163526535,-9.861342430114746,0,0,38.0,1,1,269,280
44.79893300,44798933,0,0.010600329376757145,0.0020606352481991053,-0.001214597374200821,-0.7023844122886658,-0.08333109319210052,-9.860507011413574,0,0,38.0,1,1,269,280
44.80151000,44801510,0,-0.004709320142865181,-0.0010728484485298395,0.0010905294911935925,-0.6988955140113831,-0.08053611218929291,-9.863163948059082,0,0,38.0,1,1,269,280
44.80393300,44803933,0,0.003915381617844105,0.0056882137432694435,0.006230469793081284,-0.6943467855453491,-0.08124423772096634,-9.869847297668457,0,0,38.0,1,1,269,280
44.80663800,44806638,0,-0.0020246696658432484,-0.007066966965794563,-0.001280835596844554,-0.6912617683410645,-0.08667042851448059,-9.880049705505371,0,0,38.0,1,1,269,280
44.80928600,44809286,0,-0.01237622182816267,-0.0011725265067070723,-0.007210017181932926,-0.6892939209938049,-0.09091410040855408,-9.885976791381836,0,0,38.0,1,1,269,280
44.81146100,44811461,0,0.0011678712908178568,0.007964583113789558,0.0025275051593780518,-0.6867256164550781,-0.09289632737636566,-9.888338088989258,0,0,38.0,1,1,269,280
44.81403800,44814038,0,0.0075876107439398766,-0.015304632484912872,0.00014926026051398367,-0.6864526271820068,-0.09212788194417953,-9.891738891601562,0,0,38.0,1,1,269,280
44.81646000,44816460,0,-0.00438878545537591,-0.005279913078993559,-0.002950680674985051,-0.6873517036437988,-0.09230900555849075,-9.894599914550781,0,0,38.0,1,1,269,280
44.81906700,44819067,0,0.005232776049524546,0.004508282523602247,0.0018794388743117452,-0.6882655620574951,-0.09182612597942352,-9.895445823669434,0,0,38.0,1,1,269,280
44.82156400,44821564,0,0.007637456525117159,8.089830225799233e-05,0.003536699339747429,-0.6894147992134094,-0.08863727003335953,-9.896320343017578,0,0,38.0,1,1,269,280
44.82396000,44823960,0,-0.0011422757524996996,8.435755444224924e-05,-0.0006951741524972022,-0.6900247931480408,-0.08608733862638474,-9.893767356872559,0,0,38.0,1,1,269,280
44.82655400,44826554,0,-0.005221246276050806,-0.0040714493952691555,-0.00044508633436635137,-0.6907215118408203,-0.08500516414642334,-9.89065170288086,0,0,38.0,1,1,269,280
44.82899500,44828995,0,0.006192692089825869,-0.007380298338830471,-0.0015647151740267873,-0.6940250992774963,-0.08653268218040466,-9.885056495666504,0,0,38.0,1,1,269,280
44.83146400,44831464,0,-0.002461687196046114,-0.0038134646601974964,0.0034016016870737076,-0.6946072578430176,-0.0912284404039383,-9.880624771118164,0,0,38.0,1,1,269,280
44.83396100,44833961,0,0.0006026843329891562,-0.002295868005603552,0.0038212276995182037,-0.6960245370864868,-0.0941564217209816,-9.879252433776855,0,0,38.0,1,1,269,280
44.83644800,44836448,0,-8.152965165209025e-05,0.010328976437449455,0.005759203806519508,-0.7006236910820007,-0.08899858593940735,-9.88094711303711,0,0,38.0,1,1,269,280
44.83896200,44838962,0,0.003318755654618144,0.009650420397520065,0.002295763697475195,-0.7041707038879395,-0.082644023001194,-9.880888938903809,0,0,38.0,1,1,269,280
44.84151300,44841513,0,-0.01040513813495636,-0.010002238675951958,-0.002626760397106409,-0.7054754495620728,-0.07737919688224792,-9.877500534057617,0,0,38.0,1,1,269,280
44.84400800,44844008,0,-0.0003256259369663894,0.00412585586309433,0.007769599091261625,-0.708905041217804,-0.07365309447050095,-9.876222610473633,0,0,38.0,1,1,269,280
44.84654200,44846542,0,-0.00012744478590320796,0.008929308503866196,-0.0032265298068523407,-0.7128546237945557,-0.0702374055981636,-9.875850677490234,0,0,38.0,1,1,269,280
44.84900400,44849004,0,0.0019806819036602974,0.008109531365334988,-0.006453272420912981,-0.7170464992523193,-0.06642824411392212,-9.875113487243652,0,0,38.0,1,1,269,280
44.85146000,44851460,0,0.00565883656963706,0.009116833098232746,0.0035189976915717125,-0.7214910984039307,-0.06868885457515717,-9.87541675567627,0,0,38.0,1,1,269,280
44.85396100,44853961,0,0.0058295284397900105,-0.0009146311786025763,-0.0001509807916590944,-0.7243942618370056,-0.07144708186388016,-9.878705024719238,0,0,38.0,1,1,269,280
44.85646300,44856463,0,0.00784619152545929,-0.002315410180017352,-4.719970456790179e-05,-0.7259141802787781,-0.07452762126922607,-9.876882553100586,0,0,38.0,1,1,269,280
44.85893700,44858937,0,0.00027448960463516414,0.0040343464352190495,-0.004234619438648224,-0.7245302796363831,-0.07641695439815521,-9.876638412475586,0,0,38.0,1,1,269,280
44.86143200,44861432,0,-0.008580333553254604,-0.0012725015403702855,-0.005435961298644543,-0.7254868149757385,-0.07905576378107071,-9.879944801330566,0,0,38.0,1,1,269,280
44.86406600,44864066,0,-0.010314860381186008,-0.0017349866684526205,0.002847986062988639,-0.72785884141922,-0.08482511341571808,-9.885640144348145,0,0,38.0,1,1,269,280
44.86658600,44866586,0,-0.010804052464663982,0.009016764350235462,0.008875860832631588,-0.7285196781158447,-0.08900762349367142,-9.889058113098145,0,0,38.0,1,1,269,280
44.86893300,44868933,0,-0.0010676163947209716,-0.0021093073301017284,-0.0033944700844585896,-0.7289286851882935,-0.09225782006978989,-9.893661499023438,0,0,38.0,1,1,269,280
44.87146000,44871460,0,-0.01115819439291954,0.014675725251436234,0.00019988170242868364,-0.7293551564216614,-0.09708040207624435,-9.899382591247559,0,0,38.0,1,1,269,280
44.87404300,44874043,0,-0.01032720785588026,0.005804360844194889,-0.0023158458061516285,-0.7272260785102844,-0.09804520010948181,-9.897540092468262,0,0,38.0,1,1,269,280
44.87674400,44876744,0,-0.004207642283290625,-0.005058887414634228,0.0007922142976894975,-0.7241719961166382,-0.10109499841928482,-9.894149780273438,0,0,38.0,1,1,269,280
44.87922900,44879229,0,0.0013789308723062277,-0.010841228067874908,-0.0027245022356510162,-0.7212533354759216,-0.10602453351020813,-9.889386177062988,0,0,38.0,1,1,269,280
44.88155100,44881551,0,-0.0009960390161722898,-0.0034142222721129656,0.005052248015999794,-0.7196468114852905,-0.10748407244682312,-9.880526542663574,0,0,38.0,1,1,269,280
44.88394700,44883947,0,0.010328885167837143,-0.0011688655940815806,0.00371803087182343,-0.7181224822998047,-0.1077265664935112,-9.873887062072754,0,0,38.0,1,1,269,280
44.88661800,44886618,0,-0.010466409847140312,0.00020080960530322045,-0.0007253441144712269,-0.7180863618850708,-0.10980181396007538,-9.8707914352417,0,0,38.0,1,1,269,280
44.88896500,44888965,0,0.0013660832773894072,0.005184095818549395,-0.006047529634088278,-0.7161597013473511,-0.11204033344984055,-9.865371704101562,0,0,38.0,1,1,269,280
44.89153600,44891536,0,0.001367307617329061,-0.008166917599737644,0.001893938984721899,-0.714738130569458,-0.11393879354000092,-9.861472129821777,0,0,38.0,1,1,269,280
44.89392700,44893927,0,-0.002585393376648426,-0.002082778373733163,-0.0065482743084430695,-0.7083762884140015,-0.11081455647945404,-9.86117935180664,0,0,38.0,1,1,269,280
44.89654500,44896545,0,0.004037169739603996,-0.0021754323970526457,6.225418474059552e-05,-0.7022844552993774,-0.10407967865467072,-9.864714622497559,0,0,38.0,1,1,269,280
44.89893000,44898930,0,0.0039783804677426815,0.007432918064296246,0.0050362152978777885,-0.6996422410011292,-0.09601154178380966,-9.871485710144043,0,0,38.0,1,1,269,280
44.90154500,44901545,0,-0.006928212940692902,-0.0008505206205882132,0.0002063018619082868,-0.6976808309555054,-0.08787886798381805,-9.87695026397705,0,0,38.0,1,1,269,280
44.90392800,44903928,0,0.0062536816112697124,0.006982624996453524,-0.002446287777274847,-0.697479784488678,-0.08177636563777924,-9.881159782409668,0,0,38.0,1,1,269,280
44.90664800,44906648,0,0.0008672772673889995,0.0049714636988937855,0.0023353726137429476,-0.6981557607650757,-0.07829396426677704,-9.87987232208252,0,0,38.0,1,1,269,280
44.90933200,44909332,0,-0.007399154826998711,0.005866206716746092,-0.0008940678671933711,-0.7010554075241089,-0.07490910589694977,-9.8805513381958,0,0,38.0,1,1,269,280
44.91154200,44911542,0,0.0033809086307883263,-0.009823765605688095,0.001307490631006658,-0.703966498374939,-0.07508350163698196,-9.886280059814453,0,0,38.0,1,1,269,280
44.91403200,44914032,0,0.014133869670331478,-0.010111445561051369,0.0018929686630144715,-0.7082563042640686,-0.07157793641090393,-9.889673233032227,0,0,38.0,1,1,269,280
44.91655500,44916555,0,-0.004262653179466724,-0.008433799259364605,-0.0014484976418316364,-0.7123338580131531,-0.07133745402097702,-9.885448455810547,0,0,38.0,1,1,269,280
44.91906700,44919067,0,-0.002531224861741066,0.001333029824309051,0.004505976568907499,-0.7139665484428406,-0.07574958354234695,-9.881020545959473,0,0,38.0,1,1,269,280
44.92149400,44921494,0,0.0012275552144274116,-0.014637491665780544,-0.00256103347055614,-0.7133134007453918,-0.0800161063671112,-9.879334449768066,0,0,38.0,1,1,269,280
44.92393100,44923931,0,0.005860312841832638,0.007382526528090239,0.002751745982095599,-0.7112300992012024,-0.08353284746408463,-9.877165794372559,0,0,38.0,1,1,269,280
44.92660700,44926607,0,-0.0003629731945693493,0.004022608511149883,-0.0015869156923145056,-0.7112919688224792,-0.08417470753192902,-9.878765106201172,0,0,38.0,1,1,269,280
44.92892700,44928927,0,0.0008656542049720883,-0.00310369860380888,0.0056395684368908405,-0.709571361541748,-0.08188244700431824,-9.875831604003906,0,0,38.0,1,1,269,280
44.93157400,44931574,0,0.0032461860682815313,-0.0018211806891486049,0.007247314788401127,-0.7123681902885437,-0.08000072836875916,-9.874809265136719,0,0,38.0,1,1,269,280
44.93393000,44933930,0,-0.008900456130504608,0.004885009489953518,-0.012293734587728977,-0.7149420976638794,-0.07568417489528656,-9.876999855041504,0,0,38.0,1,1,269,280
44.93656800,44936568,0,0.007428370416164398,0.0007953330641612411,-0.005149146541953087,-0.7201296091079712,-0.0735703855752945,-9.883041381835938,0,0,38.0,1,1,269,280
44.93892800,44938928,0,0.0008204536861740053,-0.0011025373823940754,0.003208849811926484,-0.7228842973709106,-0.0741710439324379,-9.88681411743164,0,0,38.0,1,1,269,280
44.94146300,44941463,0,0.0033959655556827784,-0.00498544005677104,-0.0018235250608995557,-0.7245460748672485,-0.07611682265996933,-9.88825798034668,0,0,38.0,1,1,269,280
44.94392700,44943927,0,0.010402476415038109,-0.015206249430775642,0.005340330768376589,-0.7265921831130981,-0.07492831349372864,-9.890823364257812,0,0,38.0,1,1,269,280
44.94657900,44946579,0,-0.0046417186968028545,0.006993264425545931,-0.005006861407309771,-0.7277519106864929,-0.07318264991044998,-9.89078140258789,0,0,38.0,1,1,269,280
44.94892900,44948929,0,-0.0025002844631671906,0.0043270946480333805,0.010236124508082867,-0.7278748750686646,-0.0708264410495758,-9.892645835876465,0,0,38.0,1,1,269,280
44.95150800,44951508,0,-0.01289377361536026,0.0028264110442250967,0.00040883495239540935,-0.7282014489173889,-0.07118497788906097,-9.889937400817871,0,0,38.0,1,1,269,280
44.95396100,44953961,0,0.00042937789112329483,-0.012814418412744999,-0.004117796663194895,-0.7282429337501526,-0.07090869545936584,-9.886323928833008,0,0,38.0,1,1,269,280
44.95656200,44956562,0,-0.0009973194682970643,0.004011315293610096,-0.0020822298247367144,-0.7263741493225098,-0.0720505639910698,-9.883123397827148,0,0,38.0,1,1,269,280
44.95893300,44958933,0,0.00035626065800897777,0.011272700503468513,0.00396703090518713,-0.7220385670661926,-0.07025747746229172,-9.87995433807373,0,0,38.0,1,1,269,280
44.96156000,44961560,0,0.011286712251603603,-0.0009486721246503294,-0.0020765841472893953,-0.717194139957428,-0.06599923223257065,-9.881645202636719,0,0,38.0,1,1,269,280
44.96393200,44963932,0,-0.01033172570168972,0.01882380247116089,-0.0005315677844919264,-0.7117673754692078,-0.06177907809615135,-9.881956100463867,0,0,38.0,1,1,269,280
44.96657000,44966570,0,-0.005901762749999762,-0.0026433649472892284,0.003215749515220523,-0.7078524827957153,-0.06057093292474747,-9.87895679473877,0,0,38.0,1,1,269,280
44.96900900,44969009,0,-0.017143072560429573,0.015384246595203876,-0.007669204846024513,-0.705051600933075,-0.05906499922275543,-9.878328323364258,0,0,38.0,1,1,269,280
44.97157300,44971573,0,-0.002378246746957302,0.012769940309226513,-0.002093668095767498,-0.7033677101135254,-0.06302455067634583,-9.876873970031738,0,0,38.0,1,1,269,280
44.97393300,44973933,0,0.01025051437318325,-0.006487240549176931,0.002556796884164214,-0.7028738260269165,-0.06652459502220154,-9.876567840576172,0,0,38.0,1,1,269,280
44.97658600,44976586,0,-0.007530762813985348,-0.0008575103711336851,0.0037052552215754986,-0.7019066214561462,-0.07187429815530777,-9.874024391174316,0,0,38.0,1,1,269,280
44.97904100,44979041,0,-0.003460921347141266,-0.0003435183607507497,-0.005986119620501995,-0.699289083480835,-0.07841499149799347,-9.870278358459473,0,0,38.0,1,1,269,280
44.98145900,44981459,0,0.014429919421672821,0.001958409557119012,-0.0039475467056035995,-0.6962048411369324,-0.08221420645713806,-9.869294166564941,0,0,38.0,1,1,269,280
44.98393500,44983935,0,0.001985599286854267,-0.009547468274831772,-0.0003479724400676787,-0.6932376027107239,-0.08372825384140015,-9.870213508605957,0,0,38.0,1,1,269,280
44.98655700,44986557,0,-0.008911059238016605,0.0050733075477182865,0.006976366974413395,-0.6920558214187622,-0.08194366842508316,-9.875581741333008,0,0,38.0,1,1,269,280
44.98893500,44988935,0,0.00022019474999979138,-0.0016438395250588655,5.229330781730823e-05,-0.6925032734870911,-0.07842575013637543,-9.881171226501465,0,0,38.0,1,1,269,280
44.99150800,44991508,0,0.0066182478331029415,-0.006393798626959324,-0.0022019208408892155,-0.6931676864624023,-0.07292252779006958,-9.888229370117188,0,0,38.0,1,1,269,280
44.99396100,44993961,0,0.00806458480656147,-0.010080548003315926,-0.0018843866419047117,-0.6957008838653564,-0.06858235597610474,-9.896255493164062,0,0,38.0,1,1,269,280
44.99654200,44996542,0,0.0035731219686567783,-0.00016769603826105595,0.0052256169728934765,-0.6983031630516052,-0.064874067902565,-9.899895668029785,0,0,38.0,1,1,269,280
44.99907000,44999070,0,-0.0033298488706350327,0.009744541719555855,-0.0012081697350367904,-0.702216625213623,-0.06468973308801651,-9.901153564453125,0,0,38.0,1,1,269,280
45.00153900,45001539,0,-0.0021746212150901556,-0.004669696558266878,-0.0022166117560118437,-0.7051401734352112,-0.06632455438375473,-9.900206565856934,0,0,38.0,1,1,269,280
45.00396200,45003962,0,-0.0022865054197609425,-0.007852385751903057,-0.003634462831541896,-0.7082327008247375,-0.06710800528526306,-9.900552749633789,0,0,38.0,1,1,269,280
45.00663300,45006633,0,-0.010633332654833794,-0.004047240596264601,-0.001921308459714055,-0.7084320783615112,-0.06914686411619186,-9.897857666015625,0,0,38.0,1,1,269,280
45.00927500,45009275,0,-0.0016916956519708037,-0.009227490052580833,0.002833705861121416,-0.7097629904747009,-0.07266509532928467,-9.896161079406738,0,0,38.0,1,1,269,280
45.01146000,45011460,0,0.009835525415837765,-0.013443280011415482,-0.008705079555511475,-0.7135149836540222,-0.07487036287784576,-9.895234107971191,0,0,38.0,1,1,269,280
45.01395900,45013959,0,-0.0021919049322605133,0.014612771570682526,0.006049910094588995,-0.7156104445457458,-0.07757402956485748,-9.894540786743164,0,0,38.0,1,1,269,280
45.01654000,45016540,0,-0.0027943735476583242,0.006274922750890255,-0.004200401715934277,-0.7155446410179138,-0.0773468017578125,-9.891633033752441,0,0,38.0,1,1,269,280
45.01896200,45018962,0,0.01290034782141447,-0.00967593677341938,-0.0009902040474116802,-0.7123011350631714,-0.07830837368965149,-9.883630752563477,0,0,38.0,1,1,269,280
45.02156300,45021563,0,0.0005328630795702338,-0.00033640951733104885,0.0019878139719367027,-0.7092911005020142,-0.07856716215610504,-9.876358985900879,0,0,38.0,1,1,269,280
45.02406200,45024062,0,-0.00974092073738575,0.0016103974776342511,0.0035267008934170008,-0.7063614726066589,-0.07947420328855515,-9.86712646484375,0,0,38.0,1,1,269,280
45.02657800,45026578,0,0.010805855505168438,-0.00031886249780654907,-0.004172459710389376,-0.7020063996315002,-0.08193835616111755,-9.862735748291016,0,0,38.0,1,1,269,280
45.02895100,45028951,0,-0.004440933000296354,-0.013296756893396378,0.006806058343499899,-0.7019302248954773,-0.08461559563875198,-9.864148139953613,0,0,38.0,1,1,269,280
45.03157000,45031570,0,0.0003272340982221067,-0.010023003444075584,-0.0050962031818926334,-0.7064962387084961,-0.08574387431144714,-9.870657920837402,0,0,38.0,1,1,269,280
45.03393100,45033931,0,0.017703957855701447,-0.008391547948122025,0.00522213988006115,-0.7121457457542419,-0.08593419194221497,-9.874874114990234,0,0,38.0,1,1,269,280
45.03655600,45036556,0,0.004487695172429085,0.009089390747249126,0.0043906862847507,-0.7143967151641846,-0.08809378743171692,-9.877784729003906,0,0,38.0,1,1,269,280
45.03892400,45038924,0,-0.012373296543955803,0.016901928931474686,-0.0012450440553948283,-0.7127344012260437,-0.09069754183292389,-9.88003158569336,0,0,38.0,1,1,269,280
45.04156600,45041566,0,-0.010894045233726501,0.0018502639140933752,0.0002781453949864954,-0.7117481827735901,-0.0938565582036972,-9.883251190185547,0,0,38.0,1,1,269,280
45.04406300,45044063,0,-0.0006740496028214693,-0.0010868004756048322,0.0036281405482441187,-0.7112166881561279,-0.09719603508710861,-9.888657569885254,0,0,38.0,1,1,269,280
45.04657000,45046570,0,0.0047274199314415455,-0.01202400028705597,-0.004708151798695326,-0.7077314853668213,-0.0989641472697258,-9.890772819519043,0,0,38.0,1,1,269,280
45.04904900,45049049,0,-0.011495688930153847,0.01757214218378067,-0.008230156265199184,-0.7071447968482971,-0.1004326269030571,-9.89411735534668,0,0,38.0,1,1,269,280
45.05153700,45051537,0,0.0039861127734184265,-0.007390675600618124,0.012640574015676975,-0.706010639667511,-0.09641849994659424,-9.89513874053955,0,0,38.0,1,1,269,280
45.05400500,45054005,0,0.020064573734998703,-0.018159711733460426,-0.007293162867426872,-0.70704185962677,-0.09422870725393295,-9.894400596618652,0,0,38.0,1,1,269,280
45.05653500,45056535,0,0.007221040781587362,-0.0018738668877631426,0.009171407669782639,-0.7090583443641663,-0.09306112676858902,-9.895852088928223,0,0,38.0,1,1,269,280
45.05893100,45058931,0,-0.010615268722176552,0.006973321083933115,-0.006563181057572365,-0.7105688452720642,-0.09417925775051117,-9.89624309539795,0,0,38.0,1,1,269,280
45.06153900,45061539,0,0.0015274172183126211,0.008573773317039013,-0.00567979458719492,-0.7119277119636536,-0.09495095163583755,-9.894118309020996,0,0,38.0,1,1,269,280
45.06393200,45063932,0,-0.0025327051989734173,0.006538302171975374,0.012114625424146652,-0.7122882008552551,-0.09255314618349075,-9.887224197387695,0,0,38.0,1,1,269,280
45.06660500,45066605,0,-0.0029958400409668684,0.003137405728921294,-0.0038031917065382004,-0.7135722041130066,-0.08983273059129715,-9.8818998336792,0,0,38.0,1,1,269,280
45.06893100,45068931,0,0.006240688264369965,-0.008804346434772015,0.004684539046138525,-0.7124929428100586,-0.08934526145458221,-9.875466346740723,0,0,38.0,1,1,269,280
45.07154400,45071544,0,0.006489756517112255,-0.01689021661877632,0.004507082048803568,-0.7101331949234009,-0.08614324778318405,-9.873762130737305,0,0,38.0,1,1,269,280
45.07393300,45073933,0,-0.0032791125122457743,0.009724990464746952,-0.0013827149523422122,-0.7088741064071655,-0.08383386582136154,-9.874076843261719,0,0,38.0,1,1,269,280
45.07656700,45076567,0,-0.009139159694314003,0.005870379973202944,-0.010797194205224514,-0.7073999643325806,-0.08266856521368027,-9.876030921936035,0,0,38.0,1,1,269,280
45.07893300,45078933,0,0.0033947613555938005,-0.006642204709351063,0.0045312438160181046,-0.7053222060203552,-0.08158530294895172,-9.879474639892578,0,0,38.0,1,1,269,280
45.08145900,45081459,0,0.012331146746873856,0.0021154701244086027,0.005437041632831097,-0.7039913535118103,-0.07729802280664444,-9.88258171081543,0,0,38.0,1,1,269,280
45.08406300,45084063,0,0.0034903015475720167,-0.00959892850369215,0.001089201308786869,-0.7052747011184692,-0.07433123141527176,-9.886011123657227,0,0,38.0,1,1,269,280
45.08654800,45086548,0,-0.008339096792042255,0.0017548302421346307,0.0016717265825718641,-0.7073675394058228,-0.07223501801490784,-9.890560150146484,0,0,38.0,1,1,269,280
45.08907800,45089078,0,-0.001656459178775549,0.0037081711925566196,0.001888101571239531,-0.7057139873504639,-0.0717286467552185,-9.89041805267334,0,0,38.0,1,1,269,280
45.09146300,45091463,0,-0.0036863679997622967,0.005234199576079845,0.0011755949817597866,-0.7000324726104736,-0.07583837956190109,-9.886974334716797,0,0,38.0,1,1,269,280
45.09396400,45093964,0,0.001183458254672587,-0.00853573065251112,-0.006585309747606516,-0.6975725889205933,-0.07712851464748383,-9.884925842285156,0,0,38.0,1,1,269,280
45.09650700,45096507,0,-0.00994429737329483,0.011390822939574718,0.00020278860756661743,-0.7007015943527222,-0.07974684983491898,-9.88556957244873,0,0,38.0,1,1,269,280
45.09893500,45098935,0,-0.0016669015167281032,-0.00481855683028698,0.01018067542463541,-0.7042069435119629,-0.08120270818471909,-9.887260437011719,0,0,38.0,1,1,269,280
45.10150900,45101509,0,0.00873776338994503,0.0013079721247777343,0.0028648723382502794,-0.7067092657089233,-0.08156375586986542,-9.890705108642578,0,0,38.0,1,1,269,280
45.10396000,45103960,0,0.0017314051510766149,-0.0020514694042503834,-0.0027958822902292013,-0.7072846293449402,-0.08159320056438446,-9.89155101776123,0,0,38.0,1,1,269,280
45.10662400,45106624,0,0.00310228718444705,2.2417481886805035e-05,0.001072950311936438,-0.7064605355262756,-0.07851067930459976,-9.889979362487793,0,0,38.0,1,1,269,280
45.10926800,45109268,0,0.0015449782367795706,-0.005475263111293316,0.0037625187542289495,-0.7051112651824951,-0.0743355005979538,-9.887747764587402,0,0,38.0,1,1,269,280
45.11156100,45111561,0,-0.00142265937756747,0.0103531489148736,-0.006225684192031622,-0.7018881440162659,-0.07202209532260895,-9.884227752685547,0,0,38.0,1,1,269,280
45.11403500,45114035,0,-0.005045429337769747,0.0012020793510600924,0.0035741489846259356,-0.7002471685409546,-0.071668840944767,-9.884902954101562,0,0,38.0,1,1,269,280
45.11643300,45116433,0,0.0009693299070931971,-0.009783382527530193,0.004387481138110161,-0.6973578929901123,-0.07420989871025085,-9.885260581970215,0,0,38.0,1,1,269,280
45.11896200,45118962,0,0.0067749121226370335,-0.0075324405916035175,-0.004087010398507118,-0.6946152448654175,-0.07466111332178116,-9.88648509979248,0,0,38.0,1,1,269,280
45.12143200,45121432,0,-0.00789142120629549,0.008577064611017704,-0.0062752398662269115,-0.6917001008987427,-0.07425276190042496,-9.885969161987305,0,0,38.0,1,1,269,280
45.12396300,45123963,0,0.0018291432643309236,-0.00833122804760933,0.0006290293531492352,-0.6910929083824158,-0.07358184456825256,-9.886198043823242,0,0,38.0,1,1,269,280
45.12659500,45126595,0,0.004976026248186827,-0.008705688640475273,0.008430256508290768,-0.6920377612113953,-0.07433012872934341,-9.883808135986328,0,0,38.0,1,1,269,280
45.12907500,45129075,0,0.005462112370878458,-0.010085122659802437,0.0009270037990063429,-0.6930707097053528,-0.07283453643321991,-9.88365650177002,0,0,38.0,1,1,269,280
45.13143300,45131433,0,0.0003007710329256952,-0.0031076346058398485,0.006271365564316511,-0.6962591409683228,-0.07209411263465881,-9.884811401367188,0,0,38.0,1,1,269,280
45.13407100,45134071,0,-0.003172490280121565,0.0062139807268977165,-0.012486420571804047,-0.7020940780639648,-0.0695129930973053,-9.889272689819336,0,0,38.0,1,1,269,280
45.13656500,45136565,0,-0.0017375715542584658,0.00938489194959402,-0.005796927493065596,-0.7034844160079956,-0.06847123056650162,-9.892251968383789,0,0,38.0,1,1,269,280
45.13896200,45138962,0,-0.002856727223843336,0.007601387333124876,0.006338879931718111,-0.7024787664413452,-0.0663650631904602,-9.891602516174316,0,0,38.0,1,1,269,280
45.14143300,45141433,0,-0.008351569063961506,0.01563601940870285,0.0009231637814082205,-0.7032005190849304,-0.06248389929533005,-9.887519836425781,0,0,38.0,1,1,269,280
45.14396300,45143963,0,-0.01838412508368492,0.015393777750432491,-0.0005242037586867809,-0.7048384547233582,-0.05644585192203522,-9.88148021697998,0,0,38.0,1,1,269,280
45.14653600,45146536,0,-0.01503974199295044,0.00846935622394085,-0.005124600604176521,-0.7052158713340759,-0.05600878968834877,-9.875457763671875,0,0,38.0,1,1,269,280
45.14900500,45149005,0,-0.0022410661913454533,0.025445058941841125,-0.0007599463569931686,-0.7057825326919556,-0.05808102712035179,-9.871829986572266,0,0,38.0,1,1,269,280
45.15146300,45151463,0,-0.00019794557010754943,-0.008246427401900291,-0.0034252398181706667,-0.7053020000457764,-0.05894993618130684,-9.86860179901123,0,0,38.0,1,1,269,280
45.15399600,45153996,0,0.0061104255728423595,0.0008230532985180616,0.002238138811662793,-0.703421950340271,-0.05989005044102669,-9.86530876159668,0,0,38.0,1,1,269,280
45.15657800,45156578,0,0.0024116928689181805,0.007915754802525043,-0.003802609397098422,-0.6975634694099426,-0.06044159457087517,-9.864361763000488,0,0,38.0,1,1,269,280
45.15896100,45158961,0,-0.001811681897379458,-0.0022454415448009968,0.0006638452759943902,-0.6946066617965698,-0.061380576342344284,-9.867658615112305,0,0,38.0,1,1,269,280
45.16143200,45161432,0,-0.003125306684523821,-0.01063787192106247,0.005352905485779047,-0.6943534016609192,-0.06483902037143707,-9.86691665649414,0,0,38.0,1,1,269,280
45.16400800,45164008,0,-0.0016241003759205341,-0.002656995551660657,-7.453594298567623e-05,-0.6974589824676514,-0.06445851922035217,-9.861876487731934,0,0,38.0,1,1,269,280
45.16654100,45166541,0,0.005693229380995035,-0.010411476716399193,-0.002775567350909114,-0.7019421458244324,-0.062139786779880524,-9.858878135681152,0,0,38.0,1,1,269,280
45.16896200,45168962,0,-0.0126745430752635,0.006362484768033028,-0.0039835055358707905,-0.7054606676101685,-0.06386008113622665,-9.856712341308594,0,0,38.0,1,1,269,280
45.17146400,45171464,0,0.01485973410308361,-0.0059379818849265575,0.0026551191695034504,-0.7076541185379028,-0.06726714968681335,-9.858366966247559,0,0,38.0,1,1,269,280
45.17393400,45173934,0,0.002196983201429248,-0.0016971087316051126,0.0013322281884029508,-0.708512544631958,-0.07203961908817291,-9.862228393554688,0,0,38.0,1,1,269,280
45.17653400,45176534,0,0.004650487564504147,-0.004850571975111961,0.003782745450735092,-0.7089905142784119,-0.07453778386116028,-9.864851951599121,0,0,38.0,1,1,269,280
45.17907000,45179070,0,-0.004219998139888048,0.015076295472681522,-0.0006237956113182008,-0.7115030288696289,-0.07181847095489502,-9.869205474853516,0,0,38.0,1,1,269,280
45.18157500,45181575,0,-0.001701613888144493,0.011001233011484146,0.0020135450176894665,-0.7119730710983276,-0.07123266160488129,-9.870777130126953,0,0,38.0,1,1,269,280
45.18394800,45183948,0,0.002940946025773883,0.008149419911205769,0.006257221568375826,-0.7120851278305054,-0.07175815105438232,-9.873723030090332,0,0,38.0,1,1,269,280
45.18655700,45186557,0,-0.005867778789252043,0.008507534861564636,0.00022817860008217394,-0.7089130878448486,-0.07235274463891983,-9.87895679473877,0,0,38.0,1,1,269,280
45.18904100,45189041,0,-0.009486069902777672,0.006474536377936602,0.0024243376683443785,-0.7061343789100647,-0.07151134312152863,-9.88716983795166,0,0,38.0,1,1,269,280
45.19146500,45191465,0,-0.01624869741499424,0.01562788523733616,-0.006676046177744865,-0.7044389247894287,-0.06943841278553009,-9.895807266235352,0,0,38.0,1,1,269,280
45.19392900,45193929,0,-0.0003797023091465235,0.007236500270664692,0.004713341128081083,-0.7030820250511169,-0.0671769306063652,-9.897208213806152,0,0,38.0,1,1,269,280
45.19650900,45196509,0,-0.0030015017837285995,0.002705514198169112,-0.0006838226690888405,-0.701288640499115,-0.06630963832139969,-9.898253440856934,0,0,38.0,1,1,269,280
45.19893000,45198930,0,-0.010352314449846745,0.008874943479895592,0.0022134012542665005,-0.6988315582275391,-0.06410807371139526,-9.896526336669922,0,0,38.0,1,1,269,280
45.20158700,45201587,0,-0.009941992349922657,0.011898313648998737,-0.004406564403325319,-0.6977649331092834,-0.06634672731161118,-9.891359329223633,0,0,38.0,1,1,269,280
45.20392600,45203926,0,0.007748651318252087,-0.006839216686785221,0.004139542579650879,-0.6957639455795288,-0.06845207512378693,-9.888457298278809,0,0,38.0,1,1,269,280
45.20662100,45206621,0,0.013768818229436874,-0.013736383989453316,0.0013463770737871528,-0.6973519921302795,-0.06948041170835495,-9.885846138000488,0,0,38.0,1,1,269,280
45.20927800,45209278,0,-0.010278673842549324,0.004302509129047394,-0.007268847431987524,-0.6972426176071167,-0.0685763955116272,-9.8817720413208,0,0,38.0,1,1,269,280
45.21150800,45211508,0,-0.007675941567867994,0.007865012623369694,0.0061531877145171165,-0.6963285207748413,-0.06926920264959335,-9.876875877380371,0,0,38.0,1,1,269,280
45.21392500,45213925,0,-0.007893754169344902,-0.0041506667621433735,-0.0010931615252047777,-0.6988358497619629,-0.07208942621946335,-9.874432563781738,0,0,38.0,1,1,269,280
45.21654000,45216540,0,0.011426698416471481,0.0007705478928983212,-0.004224879201501608,-0.6995436549186707,-0.07744430750608444,-9.875633239746094,0,0,38.0,1,1,269,280
45.21890500,45218905,0,-0.00802568718791008,0.006241539027541876,0.003314930945634842,-0.7005053162574768,-0.08332251012325287,-9.874672889709473,0,0,38.0,1,1,269,280
45.22142200,45221422,0,-0.011188765987753868,0.0027173571288585663,-0.011183847673237324,-0.7005509734153748,-0.08687674254179001,-9.873431205749512,0,0,38.0,1,1,269,280
45.22392100,45223921,0,0.0007499554776586592,-0.007627315819263458,0.000841374509036541,-0.7003004550933838,-0.0870518907904625,-9.875802040100098,0,0,38.0,1,1,269,280
45.22646300,45226463,0,-0.007407151162624359,-0.003909756895154715,0.010820386931300163,-0.7038466930389404,-0.08682674169540405,-9.874835014343262,0,0,38.0,1,1,269,280
45.22890500,45228905,0,-0.00778943719342351,-0.0016387359937652946,-0.005368613637983799,-0.7063403725624084,-0.08842486888170242,-9.873196601867676,0,0,38.0,1,1,269,280
45.23143000,45231430,0,0.01561228558421135,0.0006664026295766234,-0.005478677339851856,-0.7093656063079834,-0.08836667984724045,-9.873588562011719,0,0,38.0,1,1,269,280
45.23408700,45234087,0,0.007018376607447863,0.00503193773329258,0.003719654632732272,-0.7096461057662964,-0.08823632448911667,-9.871747016906738,0,0,38.0,1,1,269,280
45.23650800,45236508,0,-0.003538586664944887,0.0025847211945801973,0.003246668726205826,-0.707639753818512,-0.08768023550510406,-9.868062019348145,0,0,38.0,1,1,269,280
45.23893300,45238933,0,0.0020545748993754387,0.003024068893864751,-0.006807052064687014,-0.7062934041023254,-0.08199634402990341,-9.865296363830566,0,0,38.0,1,1,269,280
45.24157900,45241579,0,-0.0010951776057481766,-0.003575759008526802,-0.0019744052551686764,-0.7054245471954346,-0.07628338783979416,-9.86617374420166,0,0,38.0,1,1,269,280
45.24396300,45243963,0,0.0010878016473725438,0.006403787061572075,0.0033868616446852684,-0.7063133716583252,-0.07042817026376724,-9.868253707885742,0,0,38.0,1,1,269,280
45.24659400,45246594,0,-0.011461014859378338,0.01006596814841032,0.003953912295401096,-0.7087293267250061,-0.0674050822854042,-9.869478225708008,0,0,38.0,1,1,269,280
45.24893300,45248933,0,-0.004765911493450403,-0.002118427073583007,0.007456585299223661,-0.7093937397003174,-0.06579364091157913,-9.87049388885498,0,0,38.0,1,1,269,280
45.25143200,45251432,0,0.013109598308801651,-0.009269902482628822,0.003987714648246765,-0.7081815600395203,-0.06529061496257782,-9.870891571044922,0,0,38.0,1,1,269,280
45.25394900,45253949,0,0.0023695994168519974,-0.0038541345857083797,-0.007081825751811266,-0.707939624786377,-0.06928090006113052,-9.868932723999023,0,0,38.0,1,1,269,280
45.25646100,45256461,0,-0.0032964623533189297,-0.0016565679106861353,0.0027066401671618223,-0.7049164772033691,-0.07566423714160919,-9.863130569458008,0,0,38.0,1,1,269,280
45.25893500,45258935,0,-0.02261015959084034,0.004648766480386257,-0.0005687218508683145,-0.7048595547676086,-0.08060705661773682,-9.859830856323242,0,0,38.0,1,1,269,280
45.26143300,45261433,0,-0.004654940217733383,0.014616651460528374,0.0050462051294744015,-0.7044724225997925,-0.08315357565879822,-9.856705665588379,0,0,38.0,1,1,269,280
45.26393200,45263932,0,-0.004332807846367359,0.0012889010831713676,-0.001498461584560573,-0.7046664357185364,-0.08337117731571198,-9.861885070800781,0,0,38.0,1,1,269,280
45.26654500,45266545,0,-0.00459533603861928,-0.013966779224574566,-0.006150463595986366,-0.7010594606399536,-0.08145894855260849,-9.863402366638184,0,0,38.0,1,1,269,280
45.26906300,45269063,0,0.008124548941850662,-0.0029515372589230537,0.002847088733687997,-0.6976871490478516,-0.08088098466396332,-9.86672306060791,0,0,38.0,1,1,269,280
45.27144800,45271448,0,0.006128028035163879,0.0015572340926155448,0.006302987225353718,-0.6958956122398376,-0.08113554865121841,-9.869678497314453,0,0,38.0,1,1,269,280
45.27393500,45273935,0,-0.0013720092829316854,-0.008016555570065975,-0.0038935584016144276,-0.6956692337989807,-0.07852008938789368,-9.874465942382812,0,0,38.0,1,1,269,280
45.27644900,45276449,0,-0.008864612318575382,0.005248000845313072,-0.004602500237524509,-0.6965594291687012,-0.07354049384593964,-9.880367279052734,0,0,38.0,1,1,269,280
45.27893300,45278933,0,-0.006557360291481018,0.00711859529837966,-0.002626072848215699,-0.6979734301567078,-0.06895851343870163,-9.881826400756836,0,0,38.0,1,1,269,280
45.28143500,45281435,0,-0.0018125013448297977,-4.361013270681724e-05,3.7715068174293265e-05,-0.6999710202217102,-0.06232748180627823,-9.882485389709473,0,0,38.0,1,1,269,280
45.28393200,45283932,0,0.005180059932172298,-0.009461077861487865,-0.0008259339374490082,-0.6986237168312073,-0.058009352535009384,-9.881913185119629,0,0,38.0,1,1,269,280
45.28658400,45286584,0,0.0031140281353145838,-0.012816671282052994,-0.00393533194437623,-0.695501446723938,-0.05847318843007088,-9.877052307128906,0,0,38.0,1,1,269,280
45.28901100,45289011,0,0.0024862047284841537,0.0029113146010786295,0.007247922010719776,-0.6969376802444458,-0.06279159337282181,-9.87382698059082,0,0,38.0,1,1,269,280
45.29156300,45291563,0,0.01581931672990322,-0.001955141546204686,0.0034943262580782175,-0.6978157758712769,-0.0667644590139389,-9.873478889465332,0,0,38.0,1,1,269,280
45.29405100,45294051,0,-0.0056388480588793755,0.007029428146779537,0.00014200476289261132,-0.6985881328582764,-0.06810367107391357,-9.873828887939453,0,0,38.0,1,1,269,280
45.29646300,45296463,0,0.0018557426519691944,0.003604317782446742,-0.0009941618191078305,-0.6972846388816833,-0.06935840845108032,-9.871978759765625,0,0,38.0,1,1,269,280
45.29894800,45298948,0,-0.0072158039547502995,-0.0062387981452047825,-0.0018576012225821614,-0.6978023648262024,-0.07347099483013153,-9.86993408203125,0,0,38.0,1,1,269,280
45.30151100,45301511,0,-0.002975073177367449,0.005532464478164911,-0.001401575282216072,-0.6969572305679321,-0.07652956992387772,-9.866897583007812,0,0,38.0,1,1,269,280
45.30393400,45303934,0,0.0020739471074193716,-0.0016614121850579977,0.0051580858416855335,-0.6945325136184692,-0.07690771669149399,-9.862204551696777,0,0,38.0,1,1,269,280
45.30662700,45306627,0,-0.014408028684556484,-0.009809317998588085,-0.0006409322377294302,-0.6903488636016846,-0.07414111495018005,-9.85817813873291,0,0,38.0,1,1,269,280
45.30927500,45309275,0,-0.00744097214192152,-0.0025944840162992477,0.004147450905293226,-0.6847487688064575,-0.07567206770181656,-9.85051155090332,0,0,38.0,1,1,269,280
45.31153200,45311532,0,-0.005677867215126753,0.0009514890844002366,-0.004774521570652723,-0.6831414103507996,-0.07822351902723312,-9.847503662109375,0,0,38.0,1,1,269,280
45.31405600,45314056,0,0.0080874590203166,0.0056695095263421535,-0.004857269581407309,-0.6840527653694153,-0.07813209295272827,-9.850789070129395,0,0,38.0,1,1,269,280
45.31653800,45316538,0,0.0022287198808044195,0.010455610230565071,-0.0028681550174951553,-0.6843865513801575,-0.07647722214460373,-9.85422420501709,0,0,38.0,1,1,269,280
45.31892900,45318929,0,-0.002576896222308278,-0.005357087589800358,0.00047543420805595815,-0.6836526989936829,-0.0747060552239418,-9.851099967956543,0,0,38.0,1,1,269,280
45.32154000,45321540,0,0.006920759566128254,-0.005840979516506195,0.0007471251883544028,-0.6839113235473633,-0.07257991284132004,-9.850013732910156,0,0,38.0,1,1,269,280
45.32393200,45323932,0,0.0010805563069880009,0.008540546521544456,0.0007173109333962202,-0.6855978965759277,-0.07302211225032806,-9.850837707519531,0,0,38.0,1,1,269,280
45.32654200,45326542,0,-0.00883561559021473,0.0020110891200602055,-0.0023348398972302675,-0.686004638671875,-0.07371243089437485,-9.848652839660645,0,0,38.0,1,1,269,280
45.32896400,45328964,0,-0.011984942480921745,-0.0006791629712097347,0.0034369935747236013,-0.6898924112319946,-0.07277673482894897,-9.849260330200195,0,0,38.0,1,1,269,280
45.33146400,45331464,0,-0.0015148371458053589,0.01411475334316492,-6.92753164912574e-05,-0.6956964135169983,-0.07519476860761642,-9.849026679992676,0,0,38.0,1,1,269,280
45.33392700,45333927,0,-0.011458592489361763,0.005311241373419762,0.005594724789261818,-0.7002342939376831,-0.08041593432426453,-9.850515365600586,0,0,38.0,1,1,269,280
45.33658500,45336585,0,0.004477918613702059,-0.00873852614313364,-0.0020297663286328316,-0.7038446664810181,-0.08119136095046997,-9.853612899780273,0,0,38.0,1,1,269,280
45.33900200,45339002,0,0.007582251913845539,0.008623030968010426,0.002638968639075756,-0.7038617134094238,-0.07834798842668533,-9.8560791015625,0,0,38.0,1,1,269,280
45.34150500,45341505,0,0.007383729796856642,0.0017568389885127544,-0.002039009239524603,-0.7037673592567444,-0.07345090806484222,-9.859369277954102,0,0,38.0,1,1,269,280
45.34393100,45343931,0,-0.003839277196675539,0.00941744726151228,-0.006088230758905411,-0.7023534178733826,-0.06922046840190887,-9.864269256591797,0,0,38.0,1,1,269,280
45.34659500,45346595,0,-0.0006396095268428326,-0.0029732591938227415,0.006325230002403259,-0.7031709551811218,-0.06612496823072433,-9.868898391723633,0,0,38.0,1,1,269,280
45.34893500,45348935,0,0.0021140051539987326,-0.008645360358059406,-0.00045188283547759056,-0.7057085633277893,-0.06420329213142395,-9.873385429382324,0,0,38.0,1,1,269,280
45.35150800,45351508,0,0.003114015096798539,-0.006693095434457064,-0.002885023131966591,-0.7030571699142456,-0.06230238452553749,-9.873699188232422,0,0,38.0,1,1,269,280
45.35393100,45353931,0,-0.011976098641753197,-7.956129411468282e-05,0.0038541960529983044,-0.7030635476112366,-0.05629734322428703,-9.876799583435059,0,0,38.0,1,1,269,280
45.35653100,45356531,0,-0.0010171507019549608,0.008121805265545845,-0.0016053486615419388,-0.7042019367218018,-0.049506716430187225,-9.878192901611328,0,0,38.0,1,1,269,280
45.35900800,45359008,0,0.0035857073962688446,0.0030704692471772432,-0.0006474846159107983,-0.7048030495643616,-0.04565901681780815,-9.877115249633789,0,0,38.0,1,1,269,280
45.36146200,45361462,0,0.005445790942758322,-0.007902243174612522,-0.004418495111167431,-0.70601487159729,-0.04269210994243622,-9.876108169555664,0,0,38.0,1,1,269,280
45.36393000,45363930,0,0.0024670357815921307,0.0064452774822711945,-0.00105766870547086,-0.7084850668907166,-0.037713609635829926,-9.87851333618164,0,0,38.0,1,1,269,280
45.36657200,45366572,0,-0.010050486773252487,-0.007204527501016855,0.001548607018776238,-0.7095761299133301,-0.03714608773589134,-9.88326644897461,0,0,38.0,1,1,269,280
45.36895900,45368959,0,0.001786505919881165,0.004534345585852861,-0.0019629078451544046,-0.7068307399749756,-0.04065074026584625,-9.88731575012207,0,0,38.0,1,1,269,280
45.37150400,45371504,0,-0.009891743771731853,0.017219386994838715,-0.0052351318299770355,-0.7052653431892395,-0.049003805965185165,-9.88913345336914,0,0,38.0,1,1,269,280
45.37393300,45373933,0,-0.006171207409352064,0.006627918686717749,0.0017152081709355116,-0.7025152444839478,-0.05888848006725311,-9.883367538452148,0,0,38.0,1,1,269,280
45.37672300,45376723,0,0.0028885924257338047,0.002131114713847637,-0.002129187108948827,-0.700072705745697,-0.060748063027858734,-9.876873970031738,0,0,38.0,1,1,269,280
45.37924500,45379245,0,-0.004977846518158913,-0.0020116469822824,-0.000738958187866956,-0.7005016207695007,-0.060200903564691544,-9.874238967895508,0,0,38.0,1,1,269,280
45.38160200,45381602,0,-0.005984500981867313,0.010171878151595592,-0.0017323698848485947,-0.7020536661148071,-0.06252491474151611,-9.873757362365723,0,0,38.0,1,1,269,280
45.38394700,45383947,0,-0.0036570935044437647,-0.004830160178244114,0.006470696534961462,-0.7056963443756104,-0.0636853501200676,-9.874147415161133,0,0,38.0,1,1,269,280
45.38654600,45386546,0,0.009605798870325089,-0.008541694842278957,0.0071630412712693214,-0.7094331979751587,-0.06326131522655487,-9.872469902038574,0,0,38.0,1,1,269,280
45.38903000,45389030,0,-0.008584297262132168,-2.0837560441577807e-05,-0.009162003174424171,-0.7116944193840027,-0.061974093317985535,-9.869525909423828,0,0,38.0,1,1,269,280
45.39157600,45391576,0,0.005113900173455477,-0.0018490460934117436,-0.004690205212682486,-0.7158898115158081,-0.05690942332148552,-9.870523452758789,0,0,38.0,1,1,269,280
45.39400600,45394006,0,0.0011927260784432292,-9.703123942017555e-05,0.007965434342622757,-0.7169013023376465,-0.05438085272908211,-9.87099552154541,0,0,38.0,1,1,269,280
45.39643400,45396434,0,-0.0026371381245553493,-0.0038973228074610233,0.0034193091560155153,-0.716320276260376,-0.05262152478098869,-9.866100311279297,0,0,38.0,1,1,269,280
45.39904400,45399044,0,0.004460655152797699,-0.005479767918586731,0.0007848357781767845,-0.713415801525116,-0.05551376938819885,-9.858108520507812,0,0,38.0,1,1,269,280
45.40148000,45401480,0,0.0010438412427902222,0.0024913449306041002,0.008164841681718826,-0.7113494873046875,-0.059162437915802,-9.852744102478027,0,0,38.0,1,1,269,280
45.40406300,45404063,0,0.00491813849657774,0.001805740874260664,-0.003960407804697752,-0.7109424471855164,-0.06153889372944832,-9.85072135925293,0,0,38.0,1,1,269,280
45.40659600,45406596,0,-0.005261395592242479,0.0016143309185281396,-0.001490104361437261,-0.711510956287384,-0.06525308638811111,-9.852453231811523,0,0,38.0,1,1,269,280
45.40925100,45409251,0,-0.006035830359905958,0.002846952062100172,-0.0012846358586102724,-0.7092552185058594,-0.06749710440635681,-9.85635757446289,0,0,38.0,1,1,269,280
45.41143300,45411433,0,-0.000756352033931762,0.008895440958440304,0.002789736958220601,-0.7061794400215149,-0.0692746713757515,-9.85888385772705,0,0,38.0,1,1,269,280
45.41396100,45413961,0,0.0021035156678408384,0.003974731545895338,0.005859884899109602,-0.7041572332382202,-0.07087475806474686,-9.8572998046875,0,0,38.0,1,1,269,280
45.41650500,45416505,0,-0.0027183890342712402,-0.0019006117945536971,-0.0011943707941100001,-0.7062315344810486,-0.0724278911948204,-9.859318733215332,0,0,38.0,1,1,269,280
45.41900700,45419007,0,0.0037138306070119143,-0.0045890603214502335,-0.004678739234805107,-0.7115740180015564,-0.07371148467063904,-9.865406036376953,0,0,38.0,1,1,269,280
45.42143400,45421434,0,-0.0031914187129586935,0.0070252129808068275,-0.0007133890758268535,-0.7184162139892578,-0.07119525969028473,-9.871798515319824,0,0,38.0,1,1,269,280
45.42396000,45423960,0,-0.006621751002967358,0.004406936466693878,0.004639121238142252,-0.725284218788147,-0.0683438628911972,-9.875605583190918,0,0,38.0,1,1,269,280
45.42658900,45426589,0,-0.0003709270094987005,0.01793222688138485,-0.003431844525039196,-0.7273078560829163,-0.06129121407866478,-9.8792142868042,0,0,38.0,1,1,269,280
45.42899500,45428995,0,-0.017954805865883827,0.004549252800643444,-0.0010103946551680565,-0.724255383014679,-0.05832483246922493,-9.882147789001465,0,0,38.0,1,1,269,280
45.43156300,45431563,0,-0.003086102893576026,0.017162295058369637,0.006479574367403984,-0.7183992862701416,-0.05857060104608536,-9.882607460021973,0,0,38.0,1,1,269,280
45.43394800,45433948,0,0.006313594523817301,-0.0018897488480433822,0.003966444171965122,-0.7139087915420532,-0.058542896062135696,-9.882437705993652,0,0,38.0,1,1,269,280
45.43643500,45436435,0,0.012619353830814362,-0.0004844310460612178,0.0014224183978512883,-0.7118709087371826,-0.06276645511388779,-9.883441925048828,0,0,38.0,1,1,269,280
45.43901100,45439011,0,0.005833595059812069,0.010579711757600307,0.00676789041608572,-0.7079185843467712,-0.07025191187858582,-9.882950782775879,0,0,38.0,1,1,269,280
45.44143500,45441435,0,-0.004262170754373074,0.0019090203568339348,-0.0014604483731091022,-0.70624840259552,-0.07324760407209396,-9.88401985168457,0,0,38.0,1,1,269,280
45.44406800,45444068,0,0.010420097969472408,-0.00022410586825571954,0.0009971624240279198,-0.7042770385742188,-0.07514824718236923,-9.88466739654541,0,0,38.0,1,1,269,280
45.44653500,45446535,0,-0.010012172162532806,0.004155376926064491,-0.0009142477647401392,-0.7035400867462158,-0.07339616119861603,-9.8866548538208,0,0,38.0,1,1,269,280
45.44907800,45449078,0,0.0017062127590179443,-0.01421702466905117,0.0002834123733919114,-0.7041301727294922,-0.07314541190862656,-9.892060279846191,0,0,38.0,1,1,269,280
45.45156100,45451561,0,-0.0005457726656459272,0.006880925036966801,0.0031265069264918566,-0.7023133039474487,-0.07211664319038391,-9.896342277526855,0,0,38.0,1,1,269,280
45.45396000,45453960,0,-0.004226170480251312,-0.008753406815230846,-0.005375479348003864,-0.7001810073852539,-0.07061336934566498,-9.89815902709961,0,0,38.0,1,1,269,280
45.45650900,45456509,0,0.007493483368307352,0.0005946257151663303,0.005167194176465273,-0.6965911388397217,-0.06868039071559906,-9.895451545715332,0,0,38.0,1,1,269,280
45.45893100,45458931,0,-0.0007657554815523326,0.002698266413062811,-0.0014122440479695797,-0.6937532424926758,-0.06902924925088882,-9.890506744384766,0,0,38.0,1,1,269,280
45.46145000,45461450,0,0.00249734940007329,-0.003095848485827446,-0.0022057194728404284,-0.6908404231071472,-0.0723472535610199,-9.888903617858887,0,0,38.0,1,1,269,280
45.46392800,45463928,0,-0.0009242996457032859,-0.004925576038658619,-0.005847565364092588,-0.6864480972290039,-0.07640843838453293,-9.8872709274292,0,0,38.0,1,1,269,280
45.46653700,45466537,0,-0.0037754089571535587,0.005648912396281958,0.004400496371090412,-0.6872299313545227,-0.07664044946432114,-9.887609481811523,0,0,38.0,1,1,269,280
45.46893000,45468930,0,-0.006125001236796379,0.013771794736385345,-0.0014518193202093244,-0.688235878944397,-0.07609086483716965,-9.8863525390625,0,0,38.0,1,1,269,280
45.47157600,45471576,0,-0.002553436439484358,0.006141945719718933,0.0033823074772953987,-0.6916379928588867,-0.07421867549419403,-9.886375427246094,0,0,38.0,1,1,269,280
45.47392900,45473929,0,0.00668671727180481,-0.009646881371736526,-0.0002928623289335519,-0.6931139826774597,-0.07601696997880936,-9.888886451721191,0,0,38.0,1,1,269,280
45.47646200,45476462,0,0.011047313921153545,0.004105334635823965,-0.008368629030883312,-0.6947826743125916,-0.07587309926748276,-9.89141845703125,0,0,38.0,1,1,269,280
45.47893500,45478935,0,-0.0030946084298193455,-0.012749495916068554,0.0017394230235368013,-0.6994401812553406,-0.07566839456558228,-9.897945404052734,0,0,38.0,1,1,269,280
45.48153600,45481536,0,-0.010071299970149994,0.002416767878457904,0.0051060887053608894,-0.7025004625320435,-0.07508748024702072,-9.901819229125977,0,0,38.0,1,1,269,280
45.48396100,45483961,0,-0.0022173875477164984,0.005775474477559328,-0.004112261813133955,-0.7036917805671692,-0.07591424882411957,-9.904871940612793,0,0,38.0,1,1,269,280
45.48654200,45486542,0,0.0025224746204912663,-0.01180642656981945,0.0012077356223016977,-0.7038687467575073,-0.07494959235191345,-9.9031400680542,0,0,38.0,1,1,269,280
45.48893100,45488931,0,0.002526812953874469,-0.010485248640179634,-0.0036001973785459995,-0.6998305916786194,-0.0717872679233551,-9.901246070861816,0,0,38.0,1,1,269,280
45.49153600,45491536,0,0.011267285794019699,0.0039405785501003265,-0.001393954618833959,-0.6948062777519226,-0.06983572989702225,-9.899303436279297,0,0,38.0,1,1,269,280
45.49406300,45494063,0,-0.015927119180560112,0.004061379004269838,0.003931381739675999,-0.6896380186080933,-0.06679529696702957,-9.896682739257812,0,0,38.0,1,1,269,280
45.49656400,45496564,0,-1.233482726092916e-05,-0.0024390360340476036,-0.0030222549103200436,-0.6837931871414185,-0.06648584455251694,-9.890555381774902,0,0,38.0,1,1,269,280
45.49893000,45498930,0,-0.00801688153296709,0.011358886957168579,0.007317713461816311,-0.6789305210113525,-0.0649254098534584,-9.884082794189453,0,0,38.0,1,1,269,280
45.50153000,45501530,0,0.005666928831487894,-0.01005238201469183,0.0016525923274457455,-0.6762036085128784,-0.06483667343854904,-9.878031730651855,0,0,38.0,1,1,269,280
45.50406100,45504061,0,0.003994746133685112,-0.007619971409440041,-0.00708820391446352,-0.6727600693702698,-0.06857015937566757,-9.865058898925781,0,0,38.0,1,1,269,280
45.50661900,45506619,0,0.005911620333790779,-0.007445272523909807,0.010428576730191708,-0.6730777025222778,-0.06714329868555069,-9.855273246765137,0,0,38.0,1,1,269,280
45.50926500,45509265,0,-0.0029786136001348495,-0.001853322610259056,-0.0015352454502135515,-0.6781646609306335,-0.06161309406161308,-9.848833084106445,0,0,38.0,1,1,269,280
45.51145900,45511459,0,-0.010595029219985008,0.0123521713539958,-0.007079686503857374,-0.6832253336906433,-0.05723026767373085,-9.842499732971191,0,0,38.0,1,1,269,280
45.51393100,45513931,0,0.0014153056545183063,0.014372555539011955,0.0056190998293459415,-0.6859962344169617,-0.05386165902018547,-9.835253715515137,0,0,38.0,1,1,269,280
45.51656800,45516568,0,0.003124916460365057,-0.009976726025342941,0.0009153927676379681,-0.6884954571723938,-0.052255649119615555,-9.83108139038086,0,0,38.0,1,1,269,280
45.51893400,45518934,0,-4.975586853106506e-05,-0.008024996146559715,0.0012444633757695556,-0.6909199357032776,-0.05019596591591835,-9.830449104309082,0,0,38.0,1,1,269,280
45.52146000,45521460,0,-0.006470129359513521,-0.0007065453683026135,-0.008436642587184906,-0.6934057474136353,-0.04948839172720909,-9.836273193359375,0,0,38.0,1,1,269,280
45.52393300,45523933,0,-0.00757233053445816,-0.0069207604974508286,0.004515957552939653,-0.6970528960227966,-0.048981908708810806,-9.841958045959473,0,0,38.0,1,1,269,280
45.52653600,45526536,0,-0.0007659594994038343,-0.0016702545108273625,-0.0006344025605358183,-0.6979381442070007,-0.04775324463844299,-9.846759796142578,0,0,38.0,1,1,269,280
45.52901300,45529013,0,0.0006407322362065315,-0.012916794046759605,-0.0015485677868127823,-0.6961556077003479,-0.04693062603473663,-9.85198974609375,0,0,38.0,1,1,269,280
45.53143300,45531433,0,-0.006916168611496687,0.0023424599785357714,0.002057483186945319,-0.6968011260032654,-0.04851655662059784,-9.855561256408691,0,0,38.0,1,1,269,280
