timestamp,TimeUS,I,GyrX,GyrY,GyrZ,AccX,AccY,AccZ,EG,EA,T,GH,AH,GHz,AHz
72.97291600,72972916,0,0.0003021006705239415,0.0010192707413807511,0.001698323991149664,-0.6756995320320129,0.19256974756717682,-9.868083953857422,0,0,45.0,1,1,1756,1830
72.97556700,72975567,0,-1.5779651221237145e-06,0.0015820552362129092,0.001643279567360878,-0.6739510893821716,0.1909330189228058,-9.86958122253418,0,0,45.0,1,1,1756,1830
72.97823500,72978235,0,-0.000597830512560904,0.0018729576840996742,0.0019042778294533491,-0.6739945411682129,0.18800640106201172,-9.871883392333984,0,0,45.0,1,1,1756,1830
72.98040600,72980406,0,-0.0014924133429303765,0.0036844464484602213,0.0014485529391095042,-0.6794052124023438,0.1833127737045288,-9.869363784790039,0,0,45.0,1,1,1756,1830
72.98291100,72982911,0,-0.002264343434944749,0.004595613572746515,0.00040320129483006895,-0.6838613748550415,0.17751654982566833,-9.864912986755371,0,0,45.0,1,1,1756,1830
72.98541200,72985412,0,-0.0034485100768506527,0.004213828127831221,-7.453666330548003e-05,-0.6850957870483398,0.17161694169044495,-9.862951278686523,0,0,45.0,1,1,1756,1830
72.98819600,72988196,0,-0.004681756719946861,0.0035865958780050278,-0.0004826535878237337,-0.6869156360626221,0.1666080206632614,-9.86032485961914,0,0,45.0,1,1,1756,1830
72.99042300,72990423,0,-0.004635002929717302,0.0021140628959983587,-0.0005652931286022067,-0.6870154142379761,0.16476228833198547,-9.860713958740234,0,0,45.0,1,1,1756,1830
72.99291200,72992912,0,-0.002981616649776697,0.00031289082835428417,-0.0006238954374566674,-0.6850226521492004,0.16393308341503143,-9.856786727905273,0,0,45.0,1,1,1756,1830
72.99541400,72995414,0,-0.001293223351240158,-0.0011473784688860178,-0.0014065839350223541,-0.6839867234230042,0.16887934505939484,-9.850051879882812,0,0,45.0,1,1,1756,1830
72.99813700,72998137,0,-1.6145637346198782e-05,-0.000435209454735741,-0.001532785128802061,-0.6823039054870605,0.17643553018569946,-9.847306251525879,0,0,45.0,1,1,1756,1830
73.00042900,73000429,0,0.0013505560345947742,0.0002727763494476676,-0.0009870629291981459,-0.6822171807289124,0.18519699573516846,-9.848424911499023,0,0,45.0,1,1,1756,1830
73.00290900,73002909,0,0.0024995876010507345,0.000747227924875915,-0.0006741198594681919,-0.6818810105323792,0.19278572499752045,-9.851579666137695,0,0,45.0,1,1,1756,1830
73.00541600,73005416,0,0.002351626753807068,0.002349911956116557,-0.000260169617831707,-0.681122899055481,0.1994529664516449,-9.85490608215332,0,0,45.0,1,1,1756,1830
73.00818300,73008183,0,0.0020025966223329306,0.002984672551974654,3.4255550417583436e-05,-0.6819038987159729,0.20217475295066833,-9.86243724822998,0,0,45.0,1,1,1756,1830
73.01059400,73010594,0,0.0015852288343012333,0.0029899165965616703,0.0005906600272282958,-0.6848809123039246,0.20281904935836792,-9.868688583374023,0,0,45.0,1,1,1756,1830
73.01290500,73012905,0,0.0008986446773633361,0.0024916427209973335,0.0011122412979602814,-0.6882882714271545,0.2034500390291214,-9.874869346618652,0,0,45.0,1,1,1756,1830
73.01542400,73015424,0,0.0010623636189848185,0.0015015352983027697,0.0006650480208918452,-0.6908715963363647,0.20312771201133728,-9.880943298339844,0,0,45.0,1,1,1756,1830
73.01813300,73018133,0,0.0010300363646820188,0.001100147608667612,0.0008126178290694952,-0.6962288022041321,0.20233775675296783,-9.885005950927734,0,0,45.0,1,1,1756,1830
73.02040600,73020406,0,0.0011474475031718612,0.001776841119863093,0.0013658410171046853,-0.6965211033821106,0.20418575406074524,-9.883212089538574,0,0,45.0,1,1,1756,1830
73.02290000,73022900,0,0.0009432010119780898,0.0016757168341428041,0.001920192502439022,-0.6952158808708191,0.206037700176239,-9.878948211669922,0,0,45.0,1,1,1756,1830
73.02541000,73025410,0,0.00013599390513263643,0.001359214074909687,0.0016622620169073343,-0.6924095749855042,0.2046714723110199,-9.87559700012207,0,0,45.0,1,1,1756,1830
73.02828200,73028282,0,-0.00029228077619336545,0.0010195906506851315,0.001390864490531385,-0.6897055506706238,0.20412124693393707,-9.871273040771484,0,0,45.0,1,1,1756,1830
73.03044800,73030448,0,-0.0012343989219516516,0.0015118527226150036,0.0005612218519672751,-0.6875256299972534,0.20081138610839844,-9.870355606079102,0,0,45.0,1,1,1756,1830
73.03290100,73032901,0,-0.0021148722153156996,0.002678625052794814,0.0009983032941818237,-0.68586665391922,0.19895526766777039,-9.868609428405762,0,0,45.0,1,1,1756,1830
73.03542500,73035425,0,-0.0026978382375091314,0.0035738882143050432,0.0004630738985724747,-0.6851499080657959,0.19909831881523132,-9.868694305419922,0,0,45.0,1,1,1756,1830
73.03823800,73038238,0,-0.0021074421238154173,0.0030545678455382586,0.0006375685334205627,-0.685547947883606,0.19560076296329498,-9.86794662475586,0,0,45.0,1,1,1756,1830
73.04042200,73040422,0,-0.0019399916054680943,0.0020145513117313385,0.0003962476330343634,-0.6891354918479919,0.19031572341918945,-9.862943649291992,0,0,45.0,1,1,1756,1830
73.04290000,73042900,0,-0.003916522022336721,0.0036853516940027475,0.0006176710012368858,-0.6934083104133606,0.1851997673511505,-9.860871315002441,0,0,45.0,1,1,1756,1830
73.04540900,73045409,0,-0.005758622661232948,0.005206524860113859,0.0008061723783612251,-0.6954073905944824,0.18079200387001038,-9.85848331451416,0,0,45.0,1,1,1756,1830
73.04813000,73048130,0,-0.006075745914131403,0.004479060415178537,0.0006478186114691198,-0.6957260966300964,0.1802530586719513,-9.856037139892578,0,0,45.0,1,1,1756,1830
73.05042600,73050426,0,-0.005189505871385336,0.0035763918422162533,0.0007159658125601709,-0.6964060068130493,0.18163181841373444,-9.853490829467773,0,0,45.0,1,1,1756,1830
73.05295300,73052953,0,-0.0038274789694696665,0.0013862020568922162,0.0002649551024660468,-0.6949226260185242,0.18452812731266022,-9.84744930267334,0,0,45.0,1,1,1756,1830
73.05541800,73055418,0,-0.0032355657313019037,0.00029604980954900384,0.0005826365668326616,-0.69636470079422,0.18847768008708954,-9.848213195800781,0,0,45.0,1,1,1756,1830
73.05812700,73058127,0,-0.0025412666145712137,7.636855298187584e-05,0.0008325590169988573,-0.6997312307357788,0.19205500185489655,-9.857858657836914,0,0,45.0,1,1,1756,1830
73.06041100,73060411,0,-0.001021623145788908,-0.0002555412647780031,0.0009356741793453693,-0.7007973194122314,0.1928676813840866,-9.862853050231934,0,0,45.0,1,1,1756,1830
73.06289400,73062894,0,0.0005633385735563934,-0.0006593726575374603,0.0010138776851817966,-0.7009435892105103,0.19536302983760834,-9.862995147705078,0,0,45.0,1,1,1756,1830
73.06540700,73065407,0,0.002061061095446348,-0.0014557978138327599,0.0007316208793781698,-0.7012712359428406,0.19615313410758972,-9.86227798461914,0,0,45.0,1,1,1756,1830
73.06813300,73068133,0,0.0033304018434137106,-0.0021677871700376272,-0.00012290794984437525,-0.6987498998641968,0.19618581235408783,-9.861604690551758,0,0,45.0,1,1,1756,1830
73.07043600,73070436,0,0.004037399310618639,-0.0022061853669583797,-0.00044489410356618464,-0.6972643136978149,0.19349732995033264,-9.862781524658203,0,0,45.0,1,1,1756,1830
73.07293000,73072930,0,0.0045176842249929905,-0.0020049489103257656,-0.000668687338475138,-0.6960390210151672,0.18999072909355164,-9.865608215332031,0,0,45.0,1,1,1756,1830
73.07545100,73075451,0,0.004509315360337496,-0.001258038217201829,-0.0006248565623536706,-0.6953170299530029,0.18619686365127563,-9.867294311523438,0,0,45.0,1,1,1756,1830
73.07811700,73078117,0,0.00424214219674468,-0.0006113028503023088,-0.0008629361400380731,-0.6920511722564697,0.18081654608249664,-9.867335319519043,0,0,45.0,1,1,1756,1830
73.08040100,73080401,0,0.0025607566349208355,0.0012613872531801462,-0.0009405801538378,-0.6909833550453186,0.1761319488286972,-9.869063377380371,0,0,45.0,1,1,1756,1830
73.08292800,73082928,0,0.0011955425143241882,0.0024781893007457256,-0.0006296928622759879,-0.6937735080718994,0.1722399890422821,-9.871554374694824,0,0,45.0,1,1,1756,1830
73.08539700,73085397,0,-0.0006584729999303818,0.00362694775685668,-0.0006186380633153021,-0.6953554153442383,0.16885587573051453,-9.871980667114258,0,0,45.0,1,1,1756,1830
73.08813000,73088130,0,-0.0024442756548523903,0.004043061751872301,-0.001015464891679585,-0.6942606568336487,0.16720309853553772,-9.872954368591309,0,0,45.0,1,1,1756,1830
73.09041700,73090417,0,-0.0037313508801162243,0.004415841307491064,-0.0011901304824277759,-0.6910272836685181,0.16816134750843048,-9.87157917022705,0,0,45.0,1,1,1756,1830
73.09292900,73092929,0,-0.0041353218257427216,0.004617976490408182,-0.00066778325708583,-0.6864742636680603,0.17356324195861816,-9.866850852966309,0,0,45.0,1,1,1756,1830
73.09541200,73095412,0,-0.004485188517719507,0.004116827622056007,-0.0006716797943226993,-0.684158444404602,0.17746008932590485,-9.861764907836914,0,0,45.0,1,1,1756,1830
73.09818800,73098188,0,-0.003929985221475363,0.004925261251628399,-0.0010515527101233602,-0.6831595301628113,0.18297961354255676,-9.858867645263672,0,0,45.0,1,1,1756,1830
73.10041000,73100410,0,-0.0034145531244575977,0.004800721537321806,-0.001440874650143087,-0.6829578280448914,0.18750104308128357,-9.85443115234375,0,0,45.0,1,1,1756,1830
73.10291800,73102918,0,-0.0025339527055621147,0.0036436922382563353,-0.0008003398543223739,-0.6816703677177429,0.18747740983963013,-9.850460052490234,0,0,45.0,1,1,1756,1830
73.10539400,73105394,0,-0.0013421033509075642,0.0027311425656080246,0.00021448734332807362,-0.6801581382751465,0.1870165467262268,-9.850529670715332,0,0,45.0,1,1,1756,1830
73.10820600,73108206,0,-0.00087990757310763,0.0017423855606466532,0.0009685254190117121,-0.6786660552024841,0.19000081717967987,-9.854999542236328,0,0,45.0,1,1,1756,1830
73.11051200,73110512,0,-0.0003119590983260423,0.0005016742506995797,0.0012370983604341745,-0.6791679859161377,0.19192123413085938,-9.862212181091309,0,0,45.0,1,1,1756,1830
73.11292200,73112922,0,-2.1611645934171975e-05,-0.0005255297874100506,0.0013289842754602432,-0.6803447604179382,0.1941797286272049,-9.86441707611084,0,0,45.0,1,1,1756,1830
73.11541200,73115412,0,0.000190597798791714,-0.0013123624958097935,0.0013974369503557682,-0.6845579743385315,0.19836226105690002,-9.865228652954102,0,0,45.0,1,1,1756,1830
73.11814700,73118147,0,-0.001019666320644319,-0.0006643013912253082,0.0012628984404727817,-0.6857365965843201,0.19969134032726288,-9.863734245300293,0,0,45.0,1,1,1756,1830
73.12041400,73120414,0,-0.0017015904886648059,-0.00014621355512645096,0.0008876082138158381,-0.6852396130561829,0.20054836571216583,-9.86002254486084,0,0,45.0,1,1,1756,1830
73.12291900,73122919,0,-0.0009163547656498849,-0.00018251477740705013,0.0011449001030996442,-0.6813662648200989,0.1998065859079361,-9.853543281555176,0,0,45.0,1,1,1756,1830
73.12539900,73125399,0,8.1309350207448e-05,-0.0013391318498179317,0.0013134932378306985,-0.6823301911354065,0.19928479194641113,-9.848156929016113,0,0,45.0,1,1,1756,1830
73.12828200,73128282,0,0.0004089607682544738,-0.0014234815025702119,0.000763505173381418,-0.6854439973831177,0.1957150250673294,-9.844488143920898,0,0,45.0,1,1,1756,1830
73.13042300,73130423,0,0.001308906590566039,-0.001587075530551374,0.0009442413575015962,-0.6897838711738586,0.19231444597244263,-9.84174919128418,0,0,45.0,1,1,1756,1830
73.13293700,73132937,0,0.00202689110301435,-0.0020203632302582264,0.0008661054889671504,-0.6929375529289246,0.19012673199176788,-9.839445114135742,0,0,45.0,1,1,1756,1830
73.13547600,73135476,0,0.0026683846954256296,-0.0021477926056832075,0.0010342183522880077,-0.6964637041091919,0.18577271699905396,-9.839656829833984,0,0,45.0,1,1,1756,1830
73.13822700,73138227,0,0.002567894058302045,-0.0026087318547070026,0.0005900511750951409,-0.6990064978599548,0.18492013216018677,-9.842778205871582,0,0,45.0,1,1,1756,1830
73.14040600,73140406,0,0.0018097456777468324,-0.0018233427545055747,0.000906073662918061,-0.698589026927948,0.18583378195762634,-9.84534740447998,0,0,45.0,1,1,1756,1830
73.14291700,73142917,0,0.0006789658218622208,-0.0012711266754195094,0.0004553469188977033,-0.6982070207595825,0.18551521003246307,-9.847655296325684,0,0,45.0,1,1,1756,1830
73.14541200,73145412,0,-3.57501812686678e-05,-0.0002256864245282486,3.280887540313415e-05,-0.6953842043876648,0.18437817692756653,-9.850460052490234,0,0,45.0,1,1,1756,1830
73.14814000,73148140,0,0.0004568962613120675,0.0008135479292832315,-0.0006866446346975863,-0.6930527687072754,0.18406899273395538,-9.855507850646973,0,0,45.0,1,1,1756,1830
73.15041800,73150418,0,0.001522268634289503,0.0019075266318395734,-0.0007380985771305859,-0.6914528608322144,0.18277320265769958,-9.85881233215332,0,0,45.0,1,1,1756,1830
73.15292000,73152920,0,0.0026219275314360857,0.0014595850370824337,-0.0008386785048060119,-0.6910412907600403,0.18150797486305237,-9.859542846679688,0,0,45.0,1,1,1756,1830
73.15540700,73155407,0,0.0028205043636262417,0.0017270623939111829,-0.001039709779433906,-0.6905373334884644,0.17788387835025787,-9.861888885498047,0,0,45.0,1,1,1756,1830
73.15814100,73158141,0,0.0021220522467046976,0.0024785897694528103,-0.0008805180550552905,-0.6887800693511963,0.17551761865615845,-9.861598014831543,0,0,45.0,1,1,1756,1830
73.16040300,73160403,0,0.0014538211980834603,0.002943847794085741,-0.0010667495662346482,-0.6906018853187561,0.1706937998533249,-9.861583709716797,0,0,45.0,1,1,1756,1830
73.16290200,73162902,0,0.0012237370247021317,0.00358348386362195,-0.0012201470090076327,-0.6957338452339172,0.1694921851158142,-9.861652374267578,0,0,45.0,1,1,1756,1830
73.16541500,73165415,0,0.00014808241394348443,0.004163429606705904,-0.001134798745624721,-0.70123690366745,0.16947194933891296,-9.85859489440918,0,0,45.0,1,1,1756,1830
73.16814300,73168143,0,-0.0008750422857701778,0.0048448373563587666,-0.0007159253000281751,-0.704731822013855,0.16984501481056213,-9.855396270751953,0,0,45.0,1,1,1756,1830
73.17044600,73170446,0,-0.0008944671717472374,0.003853420726954937,-0.000925278349313885,-0.7085280418395996,0.17205265164375305,-9.856106758117676,0,0,45.0,1,1,1756,1830
73.17291700,73172917,0,-0.0017891189781948924,0.003423631889745593,-0.0007667011814191937,-0.7108535766601562,0.17695024609565735,-9.854973793029785,0,0,45.0,1,1,1756,1830
73.17540500,73175405,0,-0.0023352401331067085,0.0034577855840325356,-0.0006771549815312028,-0.7133767604827881,0.18311984837055206,-9.858657836914062,0,0,45.0,1,1,1756,1830
73.17813100,73178131,0,-0.0020395731553435326,0.0032142524141818285,-0.0007544797845184803,-0.7130315899848938,0.18890929222106934,-9.862968444824219,0,0,45.0,1,1,1756,1830
73.18040400,73180404,0,-0.0018071751110255718,0.0029548336751759052,-0.0004769082006532699,-0.7117387056350708,0.19568097591400146,-9.867835998535156,0,0,45.0,1,1,1756,1830
73.18290400,73182904,0,-0.000839978747535497,0.0016462119529023767,-0.0002897166123148054,-0.7086719870567322,0.19911549985408783,-9.870896339416504,0,0,45.0,1,1,1756,1830
73.18540300,73185403,0,0.0005746834794990718,0.0013596729841083288,-0.0005512466887012124,-0.7034105062484741,0.20118927955627441,-9.87283992767334,0,0,45.0,1,1,1756,1830
73.18820200,73188202,0,0.0012058992870151997,0.0017011240124702454,-0.00036572173121385276,-0.6989561319351196,0.1998765617609024,-9.875004768371582,0,0,45.0,1,1,1756,1830
73.19042900,73190429,0,0.0013603357365354896,0.002111998153850436,-0.0007485215901397169,-0.6954820156097412,0.19587814807891846,-9.874322891235352,0,0,45.0,1,1,1756,1830
73.19291600,73192916,0,0.0009604130173102021,0.0031539215706288815,-0.0005730405100621283,-0.6940112113952637,0.19109027087688446,-9.872542381286621,0,0,45.0,1,1,1756,1830
73.19541000,73195410,0,0.0003051201638299972,0.003910677507519722,-0.00039574119728058577,-0.6920185685157776,0.18759746849536896,-9.87216567993164,0,0,45.0,1,1,1756,1830
73.19818100,73198181,0,-0.0011185375042259693,0.00415593758225441,1.8759478734864388e-06,-0.6878911852836609,0.1881672441959381,-9.872766494750977,0,0,45.0,1,1,1756,1830
73.20042100,73200421,0,-0.002468931255862117,0.00454619200900197,-0.0001903152442537248,-0.6854365468025208,0.18960851430892944,-9.871109962463379,0,0,45.0,1,1,1756,1830
73.20290300,73202903,0,-0.0023094185162335634,0.005430799908936024,-0.00017440647934563458,-0.6855623722076416,0.18940001726150513,-9.867714881896973,0,0,45.0,1,1,1756,1830
73.20539800,73205398,0,-0.0027732043527066708,0.006854983977973461,-8.541285205865279e-05,-0.6902559995651245,0.1895858645439148,-9.867708206176758,0,0,45.0,1,1,1756,1830
73.20814600,73208146,0,-0.004134046379476786,0.007818300276994705,-6.0697646404150873e-05,-0.6945492625236511,0.19050811231136322,-9.868948936462402,0,0,45.0,1,1,1756,1830
73.21059400,73210594,0,-0.004417154006659985,0.007476418744772673,7.192947464318422e-07,-0.6972668170928955,0.19263491034507751,-9.867961883544922,0,0,45.0,1,1,1756,1830
73.21291700,73212917,0,-0.004178600385785103,0.00710814306512475,0.0003190019342582673,-0.6995567679405212,0.19621126353740692,-9.867552757263184,0,0,45.0,1,1,1758,1830
73.21542000,73215420,0,-0.0050148204900324345,0.007525912020355463,0.0004008295072708279,-0.7033111453056335,0.2002130150794983,-9.864521026611328,0,0,45.0,1,1,1758,1830
73.21813300,73218133,0,-0.003981851972639561,0.005438739899545908,0.00054342788644135,-0.7019607424736023,0.20017483830451965,-9.861846923828125,0,0,45.0,1,1,1758,1830
73.22041400,73220414,0,-0.00251809717155993,0.0021497507113963366,0.00039507538895122707,-0.6988085508346558,0.2002485692501068,-9.858715057373047,0,0,45.0,1,1,1758,1830
73.22290100,73222901,0,-0.0009854817762970924,-0.0011345436796545982,-0.00011793242447311059,-0.698291540145874,0.19919462502002716,-9.856708526611328,0,0,45.0,1,1,1758,1830
73.22541100,73225411,0,-0.00025538497720845044,-0.0016393562545999885,-0.00037632559542544186,-0.6985989809036255,0.19609420001506805,-9.85710334777832,0,0,45.0,1,1,1758,1830
73.22827900,73228279,0,-0.00024846597807481885,-0.0010765877086669207,-0.0007726501207798719,-0.6972229480743408,0.19290480017662048,-9.85720443725586,0,0,45.0,1,1,1758,1830
73.23042200,73230422,0,0.0004614580830093473,0.0002490584447514266,-0.0007572409813292325,-0.693913459777832,0.18884779512882233,-9.85862922668457,0,0,45.0,1,1,1758,1830
73.23292300,73232923,0,0.0007803540211170912,0.00109329994302243,-0.0002713702851906419,-0.6897795796394348,0.18503409624099731,-9.864439964294434,0,0,45.0,1,1,1758,1830
73.23539400,73235394,0,0.0004993901820853353,0.0021543707698583603,0.00035054239560849965,-0.6868810057640076,0.18634869158267975,-9.876091003417969,0,0,45.0,1,1,1758,1830
73.23821000,73238210,0,0.0015674742171540856,0.002994141075760126,0.00020468977163545787,-0.6845642924308777,0.18468718230724335,-9.883331298828125,0,0,45.0,1,1,1758,1830
73.24042100,73240421,0,0.0021449716296046972,0.0024623475037515163,8.230130333686247e-05,-0.6809988021850586,0.18374429643154144,-9.886526107788086,0,0,45.0,1,1,1758,1830
73.24291500,73242915,0,0.0023816758766770363,0.0019181838724762201,0.0002632763935253024,-0.677646815776825,0.18182416260242462,-9.887508392333984,0,0,45.0,1,1,1758,1830
73.24540800,73245408,0,0.0028785087633877993,0.0012595077278092504,-9.72733960225014e-06,-0.6748836636543274,0.17926816642284393,-9.887032508850098,0,0,45.0,1,1,1758,1830
73.24812100,73248121,0,0.002465135185047984,0.0012687270063906908,-0.0002961333084385842,-0.6715121865272522,0.17517954111099243,-9.884556770324707,0,0,45.0,1,1,1758,1830
73.25043300,73250433,0,0.001131393015384674,0.0009534295531921089,-0.000595475547015667,-0.6740511059761047,0.172207772731781,-9.881392478942871,0,0,45.0,1,1,1758,1830
73.25291600,73252916,0,5.3006766393082216e-05,0.0008861884707584977,-0.0005210095550864935,-0.6771740317344666,0.17092055082321167,-9.87753677368164,0,0,45.0,1,1,1758,1830
73.25541000,73255410,0,-0.001645164447836578,0.0006598584586754441,-0.0006619409541599452,-0.6781638860702515,0.16851025819778442,-9.87421989440918,0,0,45.0,1,1,1758,1830
73.25814200,73258142,0,-0.0024620285257697105,0.00024486074107699096,-0.0006409974303096533,-0.6790529489517212,0.16562996804714203,-9.873396873474121,0,0,45.0,1,1,1758,1830
73.26039900,73260399,0,-0.00203245272859931,-0.0003588759573176503,-0.0003428485069889575,-0.6813637018203735,0.16462887823581696,-9.871380805969238,0,0,45.0,1,1,1758,1830
73.26290200,73262902,0,-0.0015973993577063084,-0.000705961138010025,-0.00042343168752267957,-0.6816942691802979,0.16716469824314117,-9.865147590637207,0,0,45.0,1,1,1758,1830
73.26540200,73265402,0,-0.0014055278152227402,-0.0014043771661818027,-0.00044755605631507933,-0.6799168586730957,0.17091524600982666,-9.85783576965332,0,0,45.0,1,1,1758,1830
73.26813300,73268133,0,-0.0018996431026607752,-0.0014423186657950282,-0.00039369205478578806,-0.6806977987289429,0.17386937141418457,-9.856648445129395,0,0,45.0,1,1,1758,1830
73.27042300,73270423,0,-0.0018893855158239603,-0.0011480555403977633,-0.00028568459674715996,-0.6811758875846863,0.17211328446865082,-9.854702949523926,0,0,45.0,1,1,1758,1830
73.27291400,73272914,0,-0.0023680394515395164,-0.00013644447608385235,-0.000635497912298888,-0.6811023354530334,0.171720951795578,-9.854191780090332,0,0,45.0,1,1,1758,1830
73.27540200,73275402,0,-0.0019097469048574567,-0.0005392438033595681,-0.0002286538074258715,-0.6785871982574463,0.1729584038257599,-9.853779792785645,0,0,45.0,1,1,1758,1830
73.27818800,73278188,0,-0.0018320934614166617,-0.0011553795775398612,0.0002498713438399136,-0.67903071641922,0.17605257034301758,-9.849361419677734,0,0,45.0,1,1,1758,1830
73.28040400,73280404,0,-0.0023669812362641096,-0.0010878345929086208,0.001099497894756496,-0.6791421175003052,0.17659564316272736,-9.848183631896973,0,0,45.0,1,1,1758,1830
73.28290600,73282906,0,-0.002327595604583621,-0.00041876500472426414,0.001956007443368435,-0.6784708499908447,0.1734960526227951,-9.849674224853516,0,0,45.0,1,1,1758,1830
73.28539700,73285397,0,-0.0025089154951274395,-0.0001687101466814056,0.0015130044193938375,-0.6768101453781128,0.17089854180812836,-9.851344108581543,0,0,45.0,1,1,1758,1830
73.28814500,73288145,0,-0.0024456640239804983,0.0003549767716322094,0.0015868288464844227,-0.6764021515846252,0.16889552772045135,-9.855484008789062,0,0,45.0,1,1,1758,1830
73.29041700,73290417,0,-0.001981154317036271,0.0008314354345202446,0.002288384595885873,-0.6779383420944214,0.1669692099094391,-9.861214637756348,0,0,45.0,1,1,1758,1830
73.29292800,73292928,0,-0.0014788112603127956,0.000529164623003453,0.0019006499787792563,-0.681418776512146,0.16512531042099,-9.863511085510254,0,0,45.0,1,1,1758,1830
73.29540300,73295403,0,-0.000767643447034061,0.0011765630915760994,0.0012934869155287743,-0.6813361644744873,0.16292163729667664,-9.860459327697754,0,0,45.0,1,1,1758,1830
73.29813700,73298137,0,-0.00016229096218012273,0.0018334718188270926,0.0007567564025521278,-0.6808916330337524,0.1638694852590561,-9.859278678894043,0,0,45.0,1,1,1758,1830
73.30043700,73300437,0,0.0002318970946362242,0.001107365358620882,0.00023959022655617446,-0.6812023520469666,0.16542889177799225,-9.859060287475586,0,0,45.0,1,1,1758,1830
73.30292400,73302924,0,0.0005270591354928911,-0.00015863862063270062,-0.00039905350422486663,-0.6812929511070251,0.16686579585075378,-9.857076644897461,0,0,45.0,1,1,1758,1830
73.30540100,73305401,0,0.0004342937027104199,-8.335493475897238e-05,-0.0006624710513278842,-0.6808072924613953,0.16410121321678162,-9.853670120239258,0,0,45.0,1,1,1758,1830
73.30813600,73308136,0,0.00015904729661997408,0.00027833611238747835,-0.0005824349354952574,-0.6798545122146606,0.1640172153711319,-9.849514961242676,0,0,45.0,1,1,1758,1830
73.31058300,73310583,0,-0.00019141382654197514,0.0010749760549515486,0.00021960822050459683,-0.6801683306694031,0.16370992362499237,-9.846007347106934,0,0,45.0,1,1,1758,1830
73.31291600,73312916,0,-0.0009339255630038679,0.002631980227306485,-0.00018521772290114313,-0.6794443130493164,0.16473370790481567,-9.846181869506836,0,0,45.0,1,1,1758,1830
73.31540800,73315408,0,-0.001955779967829585,0.005310529377311468,-0.0005193229299038649,-0.6790049076080322,0.16800826787948608,-9.850281715393066,0,0,45.0,1,1,1758,1830
73.31815000,73318150,0,-0.003914734348654747,0.006892345380038023,-0.00043570942943915725,-0.6785873174667358,0.16792944073677063,-9.850944519042969,0,0,45.0,1,1,1758,1830
73.32040500,73320405,0,-0.005685137119144201,0.007533126510679722,0.00018963473848998547,-0.6773145794868469,0.16721414029598236,-9.850174903869629,0,0,45.0,1,1,1758,1830
73.32292700,73322927,0,-0.0060415430925786495,0.00775674544274807,0.00055456452537328,-0.6758479475975037,0.1648413985967636,-9.848918914794922,0,0,45.0,1,1,1758,1830
73.32541400,73325414,0,-0.005152211524546146,0.006606502924114466,0.0004949644790031016,-0.6768476366996765,0.1639774590730667,-9.848125457763672,0,0,45.0,1,1,1758,1830
73.32830000,73328300,0,-0.004387630149722099,0.005366539116948843,6.755526555934921e-05,-0.6782602071762085,0.1646941751241684,-9.849103927612305,0,0,45.0,1,1,1758,1830
73.33043200,73330432,0,-0.003628119360655546,0.003827592357993126,0.00029190044733695686,-0.6795790791511536,0.16742576658725739,-9.850935935974121,0,0,45.0,1,1,1758,1830
73.33291300,73332913,0,-0.00274911941960454,0.0028769581113010645,-0.00015198095934465528,-0.6808010935783386,0.16752219200134277,-9.850682258605957,0,0,45.0,1,1,1758,1830
73.33541000,73335410,0,-0.002266059862449765,0.002201477298513055,-0.00021533149993047118,-0.6788411140441895,0.1672244817018509,-9.848896980285645,0,0,45.0,1,1,1758,1830
73.33824300,73338243,0,-0.0020840829238295555,0.0021771620959043503,-0.00039708660915493965,-0.6756395101547241,0.1692708283662796,-9.849075317382812,0,0,45.0,1,1,1758,1830
73.34040900,73340409,0,-0.0010380790336057544,0.0017307279631495476,-0.00015591438568662852,-0.6784789562225342,0.17256715893745422,-9.851923942565918,0,0,45.0,1,1,1758,1830
73.34289800,73342898,0,0.00026582536520436406,0.0020749391987919807,-0.0001293150126002729,-0.6829488277435303,0.1752573549747467,-9.853547096252441,0,0,45.0,1,1,1758,1830
73.34542100,73345421,0,0.0008805678226053715,0.0029748156666755676,0.00011397061462048441,-0.685513436794281,0.17474888265132904,-9.85604190826416,0,0,45.0,1,1,1758,1830
73.34814100,73348141,0,0.0008014258928596973,0.004163068253546953,0.0004375416610855609,-0.689663290977478,0.1759350746870041,-9.859504699707031,0,0,45.0,1,1,1758,1830
73.35042700,73350427,0,0.000797036977019161,0.0037255589850246906,0.0007161243702284992,-0.6928010582923889,0.17657414078712463,-9.866495132446289,0,0,45.0,1,1,1758,1830
73.35291000,73352910,0,0.0002637439174577594,0.0021775560453534126,0.0005936924135312438,-0.6917418837547302,0.17339973151683807,-9.868783950805664,0,0,45.0,1,1,1758,1830
73.35542300,73355423,0,0.000734304019715637,0.0004594086785800755,0.0008270178223028779,-0.6859399676322937,0.16782456636428833,-9.86923885345459,0,0,45.0,1,1,1758,1830
73.35819700,73358197,0,0.001277867122553289,-0.0006536692380905151,0.0008389392169192433,-0.6807091236114502,0.16429275274276733,-9.866949081420898,0,0,45.0,1,1,1758,1830
73.36041500,73360415,0,0.0009474768303334713,-0.001316394074819982,-0.0001785535569069907,-0.6769974827766418,0.15877801179885864,-9.858208656311035,0,0,45.0,1,1,1758,1830
73.36289100,73362891,0,-0.00021369484602473676,0.00047740628360770643,-0.0005183118628337979,-0.6746636629104614,0.1554451584815979,-9.850825309753418,0,0,45.0,1,1,1758,1830
73.36541600,73365416,0,-0.0019781342707574368,0.001679181819781661,-0.000660578312817961,-0.6704091429710388,0.15406948328018188,-9.840664863586426,0,0,45.0,1,1,1758,1830
73.36819100,73368191,0,-0.0045409356243908405,0.00228687166236341,-0.00035311165265738964,-0.664789617061615,0.15425658226013184,-9.823055267333984,0,0,45.0,1,1,1758,1830
73.37042700,73370427,0,-0.008355848491191864,0.0036615696735680103,-0.001060390379279852,-0.6590781807899475,0.1547352820634842,-9.798908233642578,0,0,45.0,1,1,1758,1830
73.37290500,73372905,0,-0.011880733072757721,0.004381241742521524,-0.0007585105486214161,-0.6584739685058594,0.15966765582561493,-9.777976036071777,0,0,45.0,1,1,1758,1830
73.37540300,73375403,0,-0.013367392122745514,0.0031261437106877565,-0.0003965678333770484,-0.6605575680732727,0.17322196066379547,-9.763772010803223,0,0,45.0,1,1,1758,1830
73.37814400,73378144,0,-0.011539719067513943,0.0017530008917674422,0.00022910877305548638,-0.66319340467453,0.1912091076374054,-9.764542579650879,0,0,45.0,1,1,1758,1830
73.38040900,73380409,0,-0.005476559046655893,0.0007955555920489132,0.0002718859468586743,-0.6677329540252686,0.21335160732269287,-9.78406810760498,0,0,45.0,1,1,1758,1830
73.38290400,73382904,0,0.005903884768486023,0.00036042160354554653,-0.000748300226405263,-0.6730518937110901,0.23006169497966766,-9.822827339172363,0,0,45.0,1,1,1758,1830
73.38540300,73385403,0,0.021596768870949745,-0.0001831585104810074,-0.0016617880901321769,-0.6794213056564331,0.2372480183839798,-9.8741455078125,0,0,45.0,1,1,1758,1830
73.38814400,73388144,0,0.03970475122332573,-0.0018068464705720544,-0.0021799940150231123,-0.6850860714912415,0.2348228245973587,-9.93419361114502,0,0,45.0,1,1,1758,1830
73.39044500,73390445,0,0.05320858582854271,-0.0032504014670848846,-0.002342235529795289,-0.6962192058563232,0.2178526371717453,-9.996209144592285,0,0,45.0,1,1,1758,1830
73.39292900,73392929,0,0.06500262767076492,-0.002349656540900469,-0.0019519476918503642,-0.7077499628067017,0.18824119865894318,-10.050122261047363,0,0,45.0,1,1,1758,1830
73.39541500,73395415,0,0.06904997676610947,-0.0007553268224000931,-0.002158532151952386,-0.7181428074836731,0.14264453947544098,-10.09597110748291,0,0,45.0,1,1,1758,1830
73.39819600,73398196,0,0.0649646744132042,0.0005383630050346255,-0.0012808791361749172,-0.7248360514640808,0.10233675688505173,-10.113482475280762,0,0,45.0,1,1,1758,1830
73.40043100,73400431,0,0.050454284995794296,0.0027668369002640247,-0.0005040962132625282,-0.7288811206817627,0.06563742458820343,-10.108623504638672,0,0,45.0,1,1,1758,1830
73.40291900,73402919,0,0.02691555581986904,0.004643096588551998,0.000640773621853441,-0.7307143807411194,0.03993047773838043,-10.078542709350586,0,0,45.0,1,1,1758,1830
73.40541200,73405412,0,-0.002258575288578868,0.004652667790651321,0.0019227040465921164,-0.7301558256149292,0.028542764484882355,-10.024393081665039,0,0,45.0,1,1,1758,1830
73.40817200,73408172,0,-0.03450915217399597,0.004872472956776619,0.0023216649424284697,-0.7294367551803589,0.03380590304732323,-9.950223922729492,0,0,45.0,1,1,1758,1830
73.41055600,73410556,0,-0.06626221537590027,0.005951753351837397,0.0027422397397458553,-0.7273643612861633,0.055150650441646576,-9.864500999450684,0,0,45.0,1,1,1758,1830
73.41294700,73412947,0,-0.09250784665346146,0.007052857428789139,0.0028247840236872435,-0.7222843766212463,0.08847364783287048,-9.777112007141113,0,0,45.0,1,1,1758,1830
73.41541800,73415418,0,-0.11031311005353928,0.00772395683452487,0.0025905899237841368,-0.7150763273239136,0.1414215862751007,-9.68209171295166,0,0,45.0,1,1,1758,1830
73.41811700,73418117,0,-0.1154031977057457,0.007374227978289127,0.003049877705052495,-0.7108713984489441,0.19194422662258148,-9.616668701171875,0,0,45.0,1,1,1758,1830
73.42040100,73420401,0,-0.10811573266983032,0.006085414905101061,0.0026892710011452436,-0.7077197432518005,0.2437862604856491,-9.573851585388184,0,0,45.0,1,1,1758,1830
73.42290000,73422900,0,-0.08950033783912659,0.0056143347173929214,0.0022132161539047956,-0.7052066326141357,0.288204163312912,-9.558116912841797,0,0,45.0,1,1,1758,1830
73.42539600,73425396,0,-0.05935315042734146,0.005970401223748922,0.001904571196064353,-0.7007120251655579,0.32020309567451477,-9.575318336486816,0,0,45.0,1,1,1758,1830
73.42865900,73428659,0,-0.022665895521640778,0.005785362329334021,0.000916721997782588,-0.6961833238601685,0.33662378787994385,-9.6209135055542,0,0,45.0,1,1,1758,1830
73.43059700,73430597,0,0.016650062054395676,0.005840481258928776,-0.0003731918113771826,-0.6933958530426025,0.33606961369514465,-9.69092082977295,0,0,45.0,1,1,1758,1830
73.43291700,73432917,0,0.05427565053105354,0.006278166081756353,-0.0015825527952983975,-0.6915491223335266,0.32226118445396423,-9.77830696105957,0,0,45.0,1,1,1758,1830
73.43541300,73435413,0,0.08632401376962662,0.006385988090187311,-0.002758550923317671,-0.6841440796852112,0.28578072786331177,-9.889790534973145,0,0,45.0,1,1,1758,1830
73.43822400,73438224,0,0.10829324275255203,0.005454192869365215,-0.0034833939280360937,-0.6794964075088501,0.2423015981912613,-9.977567672729492,0,0,45.0,1,1,1758,1830
73.44040100,73440401,0,0.11798013001680374,0.005080367438495159,-0.0029648542404174805,-0.6750276684761047,0.18924257159233093,-10.051286697387695,0,0,45.0,1,1,1758,1830
73.44290500,73442905,0,0.11481485515832901,0.003268483094871044,-0.0021822364069521427,-0.6743565201759338,0.13519413769245148,-10.102740287780762,0,0,45.0,1,1,1758,1830
73.44539700,73445397,0,0.09798425436019897,0.0032111210748553276,-0.0015818204265087843,-0.6760827898979187,0.08396528661251068,-10.128814697265625,0,0,45.0,1,1,1758,1830
73.44813600,73448136,0,0.0701320543885231,0.00407524686306715,-0.0010294197127223015,-0.677771806716919,0.047014158219099045,-10.12402629852295,0,0,45.0,1,1,1758,1830
73.45043200,73450432,0,0.03587795048952103,0.0050699952989816666,-0.0005051229964010417,-0.6764436364173889,0.025891311466693878,-10.093997955322266,0,0,45.0,1,1,1758,1830
73.45291700,73452917,0,-0.0003853050002362579,0.007426739204674959,0.0001858214382082224,-0.6743156909942627,0.02307862788438797,-10.042082786560059,0,0,45.0,1,1,1758,1830
73.45540400,73455404,0,-0.03541208431124687,0.009050979278981686,0.0007926016114652157,-0.668472170829773,0.04349851980805397,-9.95568561553955,0,0,45.0,1,1,1758,1830
73.45814300,73458143,0,-0.06350542604923248,0.009335841983556747,0.0010429214453324676,-0.6631582379341125,0.0740104615688324,-9.872633934020996,0,0,45.0,1,1,1758,1830
73.46043000,73460430,0,-0.08226612210273743,0.009356535971164703,0.0016535378526896238,-0.660154402256012,0.11385084688663483,-9.789488792419434,0,0,45.0,1,1,1758,1830
73.46290500,73462905,0,-0.09008551388978958,0.010479912161827087,0.0014961695997044444,-0.6580135226249695,0.15538622438907623,-9.718155860900879,0,0,45.0,1,1,1758,1830
73.46540500,73465405,0,-0.08678177744150162,0.009774127043783665,0.00141401425935328,-0.6586326360702515,0.1930793970823288,-9.668195724487305,0,0,45.0,1,1,1758,1830
73.46813700,73468137,0,-0.07316169142723083,0.008523746393620968,0.0011210691882297397,-0.6598213315010071,0.22618155181407928,-9.639532089233398,0,0,45.0,1,1,1758,1830
73.47042200,73470422,0,-0.0527675561606884,0.007379462942481041,0.000903271313291043,-0.6634112596511841,0.2522769570350647,-9.638388633728027,0,0,45.0,1,1,1758,1830
73.47291500,73472915,0,-0.028089741244912148,0.006657531019300222,0.0007593447808176279,-0.66692715883255,0.26745909452438354,-9.664545059204102,0,0,45.0,1,1,1758,1830
73.47540000,73475400,0,-0.0021381478291004896,0.005810501519590616,0.00022022622579243034,-0.6706527471542358,0.2682212293148041,-9.727269172668457,0,0,45.0,1,1,1758,1830
73.47812400,73478124,0,0.021518930792808533,0.0041611031629145145,-0.0004477851034607738,-0.6738587021827698,0.2541406452655792,-9.797714233398438,0,0,45.0,1,1,1758,1830
73.48042000,73480420,0,0.03989618644118309,0.0024445457383990288,-0.0010487799299880862,-0.6793466806411743,0.2324897199869156,-9.873373031616211,0,0,45.0,1,1,1758,1830
73.48291100,73482911,0,0.05091686546802521,0.001142044784501195,-0.0013005008222535253,-0.685528576374054,0.20442765951156616,-9.947793006896973,0,0,45.0,1,1,1758,1830
73.48540600,73485406,0,0.05378824472427368,0.0011880137026309967,-0.001573464018292725,-0.691421389579773,0.17365601658821106,-10.008445739746094,0,0,45.0,1,1,1758,1830
73.48812900,73488129,0,0.04970793053507805,0.002180564682930708,-0.0015781387919560075,-0.695037305355072,0.14709876477718353,-10.050193786621094,0,0,45.0,1,1,1758,1830
73.49042600,73490426,0,0.03966060280799866,0.0017854657489806414,-0.0008671925170347095,-0.6991069316864014,0.1210874617099762,-10.063469886779785,0,0,45.0,1,1,1758,1830
73.49290100,73492901,0,0.02508949488401413,0.002092227339744568,-0.0004198441456537694,-0.7031345963478088,0.09878923743963242,-10.04119873046875,0,0,45.0,1,1,1758,1830
73.49540200,73495402,0,0.007500614505261183,0.003398303175345063,0.00038376194424927235,-0.7033707499504089,0.0939117819070816,-10.001124382019043,0,0,45.0,1,1,1758,1830
73.49812900,73498129,0,-0.010036724619567394,0.004363688640296459,0.001354991807602346,-0.7040868401527405,0.0996980145573616,-9.950160026550293,0,0,45.0,1,1,1758,1830
73.50042200,73500422,0,-0.02475009113550186,0.0046516116708517075,0.001182299805805087,-0.7044731974601746,0.11437507718801498,-9.889056205749512,0,0,45.0,1,1,1758,1830
73.50291200,73502912,0,-0.035492219030857086,0.0038173277862370014,0.0011368197156116366,-0.704736053943634,0.13360708951950073,-9.825804710388184,0,0,45.0,1,1,1758,1830
73.50540800,73505408,0,-0.040343400090932846,0.0017980608390644193,0.0017408474814146757,-0.7045912742614746,0.15867124497890472,-9.766118049621582,0,0,45.0,1,1,1758,1830
73.50812800,73508128,0,-0.038386955857276917,0.00020933084306307137,0.001970132812857628,-0.7017633318901062,0.1871604323387146,-9.718582153320312,0,0,45.0,1,1,1758,1830
73.51060200,73510602,0,-0.029392380267381668,0.0005552956718020141,0.0013882858911529183,-0.6961849927902222,0.21232108771800995,-9.687067985534668,0,0,45.0,1,1,1758,1830
73.51292000,73512920,0,-0.01494891382753849,-0.00038911629235371947,0.0011564141605049372,-0.6923307180404663,0.23100081086158752,-9.675454139709473,0,0,45.0,1,1,1758,1830
73.51542700,73515427,0,0.0019527063705027103,-0.0009446588810533285,0.0010731311049312353,-0.6935736536979675,0.2373817414045334,-9.692131996154785,0,0,45.0,1,1,1758,1830
73.51812900,73518129,0,0.019481195136904716,-0.00168409023899585,0.0008715568110346794,-0.6929999589920044,0.2335921972990036,-9.731672286987305,0,0,45.0,1,1,1758,1830
73.52040400,73520404,0,0.03439314290881157,-0.002370942384004593,0.0013234572252258658,-0.6911171674728394,0.22109773755073547,-9.790968894958496,0,0,45.0,1,1,1758,1830
73.52290500,73522905,0,0.04430616647005081,-0.0017238202271983027,0.0009278754005208611,-0.6876561045646667,0.20170463621616364,-9.858924865722656,0,0,45.0,1,1,1758,1830
73.52540600,73525406,0,0.04831713065505028,-0.0012918171705678105,0.0005056744557805359,-0.6856053471565247,0.1743851751089096,-9.925798416137695,0,0,45.0,1,1,1758,1830
73.52827800,73528278,0,0.04575220122933388,-0.0008557582623325288,0.0005223894841037691,-0.6858146786689758,0.14614953100681305,-9.989227294921875,0,0,45.0,1,1,1758,1830
73.53042900,73530429,0,0.036420322954654694,-0.0001818380696931854,0.00030225366936065257,-0.6855261325836182,0.1213589459657669,-10.04007625579834,0,0,45.0,1,1,1758,1830
73.53290900,73532909,0,0.02185874991118908,0.0007440155022777617,0.0008326706010848284,-0.685326099395752,0.09970750659704208,-10.082212448120117,0,0,45.0,1,1,1758,1830
73.53539900,73535399,0,0.003981089219450951,0.0009432949591428041,0.0006506954086944461,-0.6810185313224792,0.09360665082931519,-10.091812133789062,0,0,45.0,1,1,1758,1830
73.53822600,73538226,0,-0.015052739530801773,0.0011860745726153255,0.0007306742481887341,-0.6766834855079651,0.09849067777395248,-10.077459335327148,0,0,45.0,1,1,1758,1830
73.54040600,73540406,0,-0.034276753664016724,0.0025800487492233515,0.0009164814255200326,-0.6756975054740906,0.1102471649646759,-10.041556358337402,0,0,45.0,1,1,1758,1830
73.54290700,73542907,0,-0.04998643696308136,0.0031724313739687204,0.0010267420439049602,-0.6762974858283997,0.1330002099275589,-9.9866943359375,0,0,45.0,1,1,1758,1830
73.54539900,73545399,0,-0.05916855111718178,0.003312084823846817,0.001558537594974041,-0.67716383934021,0.16198070347309113,-9.919249534606934,0,0,45.0,1,1,1758,1830
73.54818500,73548185,0,-0.06110706180334091,0.003300268901512027,0.0014294612919911742,-0.677200436592102,0.19167689979076385,-9.847765922546387,0,0,45.0,1,1,1758,1830
73.55042700,73550427,0,-0.055964596569538116,0.003133283229544759,0.00032636686228215694,-0.6745588183403015,0.21799777448177338,-9.779227256774902,0,0,45.0,1,1,1758,1830
73.55290700,73552907,0,-0.043885137885808945,0.0029214853420853615,-0.00036609978997148573,-0.6707179546356201,0.24694539606571198,-9.713388442993164,0,0,45.0,1,1,1758,1830
73.55540300,73555403,0,-0.0258925911039114,0.0022390219382941723,-0.0004069638380315155,-0.6684951782226562,0.2643396854400635,-9.674181938171387,0,0,45.0,1,1,1758,1830
73.55813700,73558137,0,-0.0044806054793298244,0.0019370364025235176,-0.0007081549265421927,-0.6670069694519043,0.27314475178718567,-9.656041145324707,0,0,45.0,1,1,1758,1830
73.56041400,73560414,0,0.017673952504992485,0.002257394604384899,-0.0012134215794503689,-0.6690885424613953,0.27281609177589417,-9.665426254272461,0,0,45.0,1,1,1758,1830
73.56291800,73562918,0,0.038587506860494614,0.0028755110688507557,-0.0016698837280273438,-0.6739707589149475,0.26286372542381287,-9.696613311767578,0,0,45.0,1,1,1758,1830
73.56540800,73565408,0,0.05537474900484085,0.003686779411509633,-0.001892541884444654,-0.6786171197891235,0.24449096620082855,-9.746356964111328,0,0,45.0,1,1,1758,1830
73.56813900,73568139,0,0.06524240225553513,0.003947851713746786,-0.001556512899696827,-0.6840291023254395,0.21786369383335114,-9.811360359191895,0,0,45.0,1,1,1758,1830
73.57041900,73570419,0,0.06784278154373169,0.004093628376722336,-0.0011778892949223518,-0.6888468861579895,0.18643303215503693,-9.883776664733887,0,0,45.0,1,1,1758,1830
73.57292100,73572921,0,0.06510262191295624,0.003542662598192692,-0.0013577282661572099,-0.6906050443649292,0.15783636271953583,-9.960415840148926,0,0,45.0,1,1,1758,1830
73.57540000,73575400,0,0.054787494242191315,0.003351074643433094,-0.000947709777392447,-0.6882766485214233,0.12960974872112274,-10.033977508544922,0,0,45.0,1,1,1758,1830
73.57812900,73578129,0,0.038430146872997284,0.001571935834363103,-0.001056354958564043,-0.6852222681045532,0.11013980954885483,-10.072807312011719,0,0,45.0,1,1,1758,1830
73.58039700,73580397,0,0.01865159533917904,6.223355740075931e-05,-0.0013000421458855271,-0.6833733320236206,0.09586852788925171,-10.088993072509766,0,0,45.0,1,1,1758,1830
73.58290100,73582901,0,-0.0029749313835054636,-2.555500395828858e-05,-0.0014419318176805973,-0.6840258240699768,0.09436269104480743,-10.082324981689453,0,0,45.0,1,1,1758,1831
73.58539400,73585394,0,-0.02290448546409607,0.0016434283461421728,-0.0007439461187459528,-0.6825873255729675,0.10150526463985443,-10.055124282836914,0,0,45.0,1,1,1758,1831
73.58814000,73588140,0,-0.04118157550692558,0.0031773098744452,6.903542089276016e-05,-0.6786082983016968,0.11783421784639359,-10.00821304321289,0,0,45.0,1,1,1758,1831
73.59042500,73590425,0,-0.054975371807813644,0.005621177610009909,0.0002786903060041368,-0.6783303618431091,0.137145534157753,-9.949420928955078,0,0,45.0,1,1,1758,1831
73.59292000,73592920,0,-0.061812713742256165,0.006762280594557524,-0.000275881466222927,-0.6819271445274353,0.16227607429027557,-9.87382984161377,0,0,45.0,1,1,1758,1831
73.59540300,73595403,0,-0.062002792954444885,0.00794624537229538,-1.6515596144017763e-05,-0.6821341514587402,0.18085996806621552,-9.81529426574707,0,0,45.0,1,1,1758,1831
73.59813900,73598139,0,-0.05462922155857086,0.00829822476953268,0.00019950872228946537,-0.6814459562301636,0.19982200860977173,-9.766075134277344,0,0,45.0,1,1,1758,1831
73.60041500,73600415,0,-0.04217184707522392,0.0077711595222353935,-0.0001511125883553177,-0.6817331910133362,0.218855619430542,-9.731222152709961,0,0,45.0,1,1,1758,1831
73.60289900,73602899,0,-0.025881033390760422,0.0068833171389997005,-0.0005458759260363877,-0.6825557947158813,0.23166292905807495,-9.7114839553833,0,0,45.0,1,1,1758,1831
73.60540000,73605400,0,-0.0073066093027591705,0.005097630899399519,-0.0002996035909745842,-0.6844610571861267,0.2384876012802124,-9.711749076843262,0,0,45.0,1,1,1758,1831
73.60825000,73608250,0,0.010144617408514023,0.0034652368631213903,-0.0004935515462420881,-0.6853303909301758,0.23743179440498352,-9.732231140136719,0,0,45.0,1,1,1758,1831
73.61057100,73610571,0,0.02531317062675953,0.0023651686497032642,-0.0003728762676473707,-0.6881333589553833,0.2286067008972168,-9.769042015075684,0,0,45.0,1,1,1758,1831
73.61290100,73612901,0,0.036086875945329666,0.0009497414575889707,-8.616891864221543e-05,-0.6899317502975464,0.20733588933944702,-9.82535457611084,0,0,45.0,1,1,1758,1831
73.61542100,73615421,0,0.04135088250041008,0.0004198776150587946,-0.0004762677999678999,-0.6900641918182373,0.18648016452789307,-9.873730659484863,0,0,45.0,1,1,1758,1831
73.61818300,73618183,0,0.041476838290691376,0.0012924830662086606,-0.0010136144701391459,-0.6908521056175232,0.16590891778469086,-9.915849685668945,0,0,45.0,1,1,1758,1831
73.62041200,73620412,0,0.036515410989522934,0.0026495344936847687,-0.0008236228604800999,-0.6920017600059509,0.14674872159957886,-9.947868347167969,0,0,45.0,1,1,1758,1831
73.62289900,73622899,0,0.027403609827160835,0.003679197048768401,-0.0004673542862292379,-0.6945089101791382,0.1307961791753769,-9.96701717376709,0,0,45.0,1,1,1758,1831
73.62540000,73625400,0,0.015927830711007118,0.003313125343993306,-0.00033469198388047516,-0.6960352659225464,0.12156001478433609,-9.972432136535645,0,0,45.0,1,1,1758,1831
73.62829000,73628290,0,0.004672769922763109,0.0026919408701360226,-0.0001170489631476812,-0.6967784762382507,0.11751265823841095,-9.962148666381836,0,0,45.0,1,1,1758,1831
73.63044500,73630445,0,-0.007273425348103046,0.0024525283370167017,0.0005213730037212372,-0.6949278712272644,0.11986672133207321,-9.940496444702148,0,0,45.0,1,1,1758,1831
73.63290600,73632906,0,-0.01612779311835766,0.002449659863486886,0.0005803463864140213,-0.6896944046020508,0.12993325293064117,-9.903022766113281,0,0,45.0,1,1,1758,1831
73.63540500,73635405,0,-0.021730421110987663,0.0033858639653772116,0.0005786658730357885,-0.6852457523345947,0.14294776320457458,-9.868876457214355,0,0,45.0,1,1,1758,1831
73.63827900,73638279,0,-0.023384425789117813,0.0040021659806370735,0.0013244033325463533,-0.6810702681541443,0.1576792150735855,-9.836899757385254,0,0,45.0,1,1,1758,1831
73.64041000,73640410,0,-0.021044744178652763,0.004294706042855978,0.0012038570130243897,-0.6778773665428162,0.17119714617729187,-9.810559272766113,0,0,45.0,1,1,1758,1831
73.64291000,73642910,0,-0.015497162938117981,0.005911647342145443,0.0009084048215299845,-0.6750056147575378,0.18208512663841248,-9.792867660522461,0,0,45.0,1,1,1758,1831
73.64540100,73645401,0,-0.00840151496231556,0.00691959960386157,0.0008386470726691186,-0.6750487089157104,0.18813049793243408,-9.782307624816895,0,0,45.0,1,1,1758,1831
73.64813600,73648136,0,-0.0004999897792004049,0.0074326577596366405,0.0006250862497836351,-0.6749760508537292,0.19030676782131195,-9.783114433288574,0,0,45.0,1,1,1758,1831
73.65043700,73650437,0,0.007399213034659624,0.0060277702286839485,5.898133895243518e-05,-0.6793879270553589,0.19202083349227905,-9.795743942260742,0,0,45.0,1,1,1758,1831
73.65291600,73652916,0,0.01434510201215744,0.003756713354960084,0.00047491726581938565,-0.6851634979248047,0.18770501017570496,-9.821256637573242,0,0,45.0,1,1,1758,1831
73.65540700,73655407,0,0.016888994723558426,0.002711470937356353,-0.0001352780091110617,-0.6916381120681763,0.182509183883667,-9.842177391052246,0,0,45.0,1,1,1758,1831
73.65812700,73658127,0,0.016397740691900253,0.0021558571606874466,-3.9480652048951015e-05,-0.6995946764945984,0.1765960305929184,-9.864690780639648,0,0,45.0,1,1,1758,1831
73.66042600,73660426,0,0.014009589329361916,0.00194761180318892,9.783633868210018e-05,-0.7056218981742859,0.17261415719985962,-9.891156196594238,0,0,45.0,1,1,1758,1831
73.66291500,73662915,0,0.009052946232259274,0.001088333548977971,0.0002990912180393934,-0.7061721682548523,0.16951552033424377,-9.91213607788086,0,0,45.0,1,1,1758,1831
73.66540800,73665408,0,0.0013064282247796655,0.0009400733397342265,-0.00018990208627656102,-0.7060330510139465,0.1706104576587677,-9.926979064941406,0,0,45.0,1,1,1758,1831
73.66812900,73668129,0,-0.007349834777414799,0.001250383909791708,-0.00041596489609219134,-0.7014427185058594,0.17159998416900635,-9.93126106262207,0,0,45.0,1,1,1758,1831
73.67046900,73670469,0,-0.014249201864004135,0.0013210406759753823,0.0004770683590322733,-0.6972585916519165,0.17301346361637115,-9.927803993225098,0,0,45.0,1,1,1758,1831
73.67291100,73672911,0,-0.019782111048698425,0.0018210773123428226,0.0006241520750336349,-0.6947640180587769,0.17810630798339844,-9.909472465515137,0,0,45.0,1,1,1758,1831
73.67540500,73675405,0,-0.022947883233428,0.0019137085182592273,0.00052208750275895,-0.6915714740753174,0.18520048260688782,-9.886472702026367,0,0,45.0,1,1,1758,1831
73.67813200,73678132,0,-0.022194601595401764,0.001855651498772204,0.0006548862438648939,-0.6877256035804749,0.19438689947128296,-9.865279197692871,0,0,45.0,1,1,1758,1831
73.68039900,73680399,0,-0.01766005903482437,0.0008780577918514609,0.0008688191301189363,-0.6855509281158447,0.20466920733451843,-9.845858573913574,0,0,45.0,1,1,1758,1831
73.68292800,73682928,0,-0.009380578994750977,-0.0007744190515950322,0.001299287541769445,-0.6867926716804504,0.21280233561992645,-9.825133323669434,0,0,45.0,1,1,1758,1831
73.68539800,73685398,0,-0.00012461717415135354,-0.0013252041535452008,0.0015817671082913876,-0.6872749328613281,0.21825143694877625,-9.808247566223145,0,0,45.0,1,1,1758,1831
73.68813500,73688135,0,0.009251001290977001,-0.001804732484742999,0.0011565358145162463,-0.6878452897071838,0.2191724181175232,-9.79918098449707,0,0,45.0,1,1,1758,1831
73.69043100,73690431,0,0.01615866646170616,-0.0008979227859526873,5.111944847158156e-05,-0.683955192565918,0.2107318490743637,-9.796472549438477,0,0,45.0,1,1,1758,1831
73.69291500,73692915,0,0.020967597141861916,0.0003779528196901083,-0.00024019010015763342,-0.6765936017036438,0.20196612179279327,-9.801570892333984,0,0,45.0,1,1,1758,1831
73.69540600,73695406,0,0.023693416267633438,0.0003418317355681211,-0.00057255569845438,-0.6723211407661438,0.1927531659603119,-9.81231689453125,0,0,45.0,1,1,1758,1831
73.69814800,73698148,0,0.0243221465498209,0.00040059039019979537,-0.00017515831859782338,-0.6671700477600098,0.1783815622329712,-9.829670906066895,0,0,45.0,1,1,1758,1831
73.70042100,73700421,0,0.02231292612850666,0.0010643473360687494,0.00026394351152703166,-0.6623103618621826,0.16705156862735748,-9.854479789733887,0,0,45.0,1,1,1758,1831
73.70291600,73702916,0,0.017217960208654404,0.0024961992166936398,0.000636393902823329,-0.6580376625061035,0.15932925045490265,-9.877142906188965,0,0,45.0,1,1,1758,1831
73.70541100,73705411,0,0.009189838543534279,0.0037982729263603687,0.0007883349899202585,-0.6549950838088989,0.15404112637043,-9.8955717086792,0,0,45.0,1,1,1758,1831
73.70814000,73708140,0,0.0007587338914163411,0.004429417662322521,0.0006387663306668401,-0.6539166569709778,0.15158390998840332,-9.905609130859375,0,0,45.0,1,1,1758,1831
73.71059500,73710595,0,-0.007411491591483355,0.004920294042676687,0.0006428073393180966,-0.6565189957618713,0.15388958156108856,-9.911423683166504,0,0,45.0,1,1,1758,1831
73.71293000,73712930,0,-0.015266585163772106,0.00446201441809535,0.00015711896412540227,-0.6612306237220764,0.1609409749507904,-9.912481307983398,0,0,45.0,1,1,1758,1831
73.71539900,73715399,0,-0.022747058421373367,0.0039996616542339325,0.0005374617758207023,-0.6645336747169495,0.16715995967388153,-9.906583786010742,0,0,45.0,1,1,1758,1831
73.71813700,73718137,0,-0.027798019349575043,0.0035862356889992952,0.0013398479204624891,-0.6651079058647156,0.1749589592218399,-9.892044067382812,0,0,45.0,1,1,1758,1831
73.72040000,73720400,0,-0.02935764007270336,0.0032788922544568777,0.0010741211008280516,-0.6641519069671631,0.1805887520313263,-9.871007919311523,0,0,45.0,1,1,1758,1831
73.72292600,73722926,0,-0.028659382835030556,0.0037558898329734802,0.0009487656643614173,-0.6654333472251892,0.18909244239330292,-9.85240364074707,0,0,45.0,1,1,1758,1831
73.72540500,73725405,0,-0.024792863056063652,0.00400459673255682,0.0009610849083401263,-0.6676212549209595,0.19818076491355896,-9.83712387084961,0,0,45.0,1,1,1758,1831
73.72830700,73728307,0,-0.01874447800219059,0.003526070388033986,0.0002155339898308739,-0.6718912124633789,0.20552092790603638,-9.824458122253418,0,0,45.0,1,1,1758,1831
73.73043000,73730430,0,-0.010394230484962463,0.0018648605328053236,-0.0005361892399378121,-0.6740894913673401,0.20916558802127838,-9.813272476196289,0,0,45.0,1,1,1758,1831
73.73291000,73732910,0,-0.0017791605787351727,-7.82954812166281e-05,-0.0006535463035106659,-0.6784301400184631,0.21183910965919495,-9.809889793395996,0,0,45.0,1,1,1758,1831
73.73539700,73735397,0,0.006442848592996597,-0.0016207003500312567,-0.001035186112858355,-0.6788229942321777,0.2109701782464981,-9.812429428100586,0,0,45.0,1,1,1758,1831
73.73820300,73738203,0,0.012882898561656475,-0.0024490186478942633,-0.0014868587022647262,-0.6762540340423584,0.20726144313812256,-9.823959350585938,0,0,45.0,1,1,1758,1831
73.74040100,73740401,0,0.016937676817178726,-0.0015374887734651566,-0.001682819682173431,-0.6765758395195007,0.2024838775396347,-9.842040061950684,0,0,45.0,1,1,1758,1831
73.74290800,73742908,0,0.018514474853873253,-0.0008449500892311335,-0.0021768028382211924,-0.6801972389221191,0.1943788379430771,-9.860878944396973,0,0,45.0,1,1,1758,1831
73.74541000,73745410,0,0.019980907440185547,0.00011659369920380414,-0.002551312791183591,-0.6841611862182617,0.18273335695266724,-9.880111694335938,0,0,45.0,1,1,1758,1831
73.74811300,73748113,0,0.019202619791030884,0.0005356227629818022,-0.0024682795628905296,-0.687136709690094,0.169939324259758,-9.899593353271484,0,0,45.0,1,1,1758,1831
73.75046300,73750463,0,0.016024474054574966,0.0019133733585476875,-0.0022628940641880035,-0.6880300045013428,0.15919914841651917,-9.912384986877441,0,0,45.0,1,1,1758,1831
73.75290500,73752905,0,0.011147630400955677,0.0023920093663036823,-0.0016982860397547483,-0.6887650489807129,0.15303479135036469,-9.917752265930176,0,0,45.0,1,1,1758,1831
73.75541700,73755417,0,0.004911486525088549,0.0035906995180994272,-0.001507928129285574,-0.6880519986152649,0.15310335159301758,-9.916370391845703,0,0,45.0,1,1,1758,1831
73.75814300,73758143,0,-0.0014748767716810107,0.005154007114470005,-0.0016964348033070564,-0.6876387000083923,0.15272441506385803,-9.912036895751953,0,0,45.0,1,1,1758,1831
73.76041600,73760416,0,-0.0066911932080984116,0.005616502370685339,-0.0013066704850643873,-0.6892615556716919,0.1534866988658905,-9.909566879272461,0,0,45.0,1,1,1758,1831
73.76289000,73762890,0,-0.010038751177489758,0.004074612632393837,-0.0004427630628924817,-0.6899459958076477,0.1587870866060257,-9.904092788696289,0,0,45.0,1,1,1758,1831
73.76542400,73765424,0,-0.012277860194444656,0.002017411170527339,6.454753747675568e-05,-0.6887436509132385,0.16586965322494507,-9.893866539001465,0,0,45.0,1,1,1758,1831
73.76812400,73768124,0,-0.012355989776551723,0.0008589731296524405,-5.240096288616769e-05,-0.6868552565574646,0.1714436262845993,-9.88170337677002,0,0,45.0,1,1,1758,1831
73.77043700,73770437,0,-0.012185154482722282,-0.00034818152198567986,-0.0006582789937965572,-0.6856861710548401,0.17651665210723877,-9.868326187133789,0,0,45.0,1,1,1758,1831
73.77291300,73772913,0,-0.011360736563801765,-0.001175468205474317,-0.0005435558268800378,-0.6851167678833008,0.18385016918182373,-9.854533195495605,0,0,45.0,1,1,1758,1831
73.77542100,73775421,0,-0.010173296555876732,-0.0007110878359526396,6.843727169325575e-05,-0.6863980293273926,0.18981587886810303,-9.851383209228516,0,0,45.0,1,1,1758,1831
73.77812400,73778124,0,-0.008944516070187092,0.0010994031326845288,0.0005248620291240513,-0.687705934047699,0.19609473645687103,-9.853507041931152,0,0,45.0,1,1,1758,1831
73.78040500,73780405,0,-0.007947984151542187,0.0038089086301624775,0.000358234450686723,-0.6855372190475464,0.19523507356643677,-9.856549263000488,0,0,45.0,1,1,1758,1831
73.78289200,73782892,0,-0.005598108284175396,0.004058185499161482,-0.000472681742394343,-0.6850265264511108,0.1920778602361679,-9.863805770874023,0,0,45.0,1,1,1758,1831
73.78540100,73785401,0,-0.0026803493965417147,0.0035365689545869827,-0.0011767535470426083,-0.6822434067726135,0.18563760817050934,-9.871458053588867,0,0,45.0,1,1,1758,1831
73.78811700,73788117,0,0.0004972110036760569,0.0029117732774466276,-0.0007892923313193023,-0.6813470721244812,0.1793200969696045,-9.87750244140625,0,0,45.0,1,1,1758,1831
73.79042100,73790421,0,0.0017917975783348083,0.0028719031251966953,0.00045159022556617856,-0.6820644736289978,0.17557215690612793,-9.881427764892578,0,0,45.0,1,1,1758,1831
73.79290200,73792902,0,0.0017412779852747917,0.0022708175238221884,0.0008754293667152524,-0.6845411062240601,0.17397785186767578,-9.881912231445312,0,0,45.0,1,1,1758,1831
73.79542700,73795427,0,0.0015334590571001172,0.0015626458916813135,0.0014225103659555316,-0.6850160956382751,0.1707851141691208,-9.878374099731445,0,0,45.0,1,1,1758,1831
73.79813700,73798137,0,0.0014721169136464596,0.0014735176227986813,0.0012491245288401842,-0.6866084933280945,0.16793280839920044,-9.871538162231445,0,0,45.0,1,1,1758,1831
73.80042600,73800426,0,0.0006824597949162126,0.0027437906246632338,0.000654720701277256,-0.6886666417121887,0.16717566549777985,-9.864604949951172,0,0,45.0,1,1,1758,1831
73.80289900,73802899,0,0.0001504569809185341,0.00442259619012475,0.0010306785115972161,-0.6908290386199951,0.1682358831167221,-9.858959197998047,0,0,45.0,1,1,1758,1831
73.80541300,73805413,0,9.291244350606576e-05,0.004633618518710136,0.0009755846695043147,-0.6926748156547546,0.1687295287847519,-9.852700233459473,0,0,45.0,1,1,1758,1831
73.80811500,73808115,0,0.000521102687343955,0.006030242890119553,0.0009468249045312405,-0.6928080320358276,0.168697327375412,-9.850464820861816,0,0,45.0,1,1,1758,1831
73.81059400,73810594,0,0.0020924871787428856,0.0070233759470283985,0.0011167324846610427,-0.691469132900238,0.1727699339389801,-9.852730751037598,0,0,45.0,1,1,1758,1831
73.81290600,73812906,0,0.003807859728112817,0.006379054859280586,0.0020470258314162493,-0.6884438991546631,0.17334800958633423,-9.853156089782715,0,0,45.0,1,1,1758,1831
73.81539600,73815396,0,0.004620595369488001,0.004344562068581581,0.0020659936126321554,-0.6867188215255737,0.16882389783859253,-9.853561401367188,0,0,45.0,1,1,1758,1831
73.81813900,73818139,0,0.004153530113399029,0.0037893892731517553,0.0019030130933970213,-0.6850866675376892,0.1643035113811493,-9.85254955291748,0,0,45.0,1,1,1758,1831
73.82040200,73820402,0,0.00273869838565588,0.003784215310588479,0.0011838425416499376,-0.68527752161026,0.16104142367839813,-9.856417655944824,0,0,45.0,1,1,1758,1831
73.82290800,73822908,0,0.0006329581956379116,0.003981089685112238,0.0004843978094868362,-0.6897678971290588,0.16153202950954437,-9.86186695098877,0,0,45.0,1,1,1758,1831
73.82539300,73825393,0,-0.0009144680225290358,0.004083550535142422,0.0007384139462374151,-0.692664623260498,0.1645873785018921,-9.871542930603027,0,0,45.0,1,1,1758,1831
73.82831300,73828313,0,-0.001983964815735817,0.0036905831657350063,0.0007095661130733788,-0.6914082169532776,0.16638463735580444,-9.881092071533203,0,0,45.0,1,1,1758,1831
73.83041800,73830418,0,-0.002742649056017399,0.002129222499206662,0.0012376768281683326,-0.6887608766555786,0.16896142065525055,-9.896621704101562,0,0,45.0,1,1,1758,1831
73.83290900,73832909,0,-0.003501474391669035,0.0008808965212665498,0.0012037073029205203,-0.686836838722229,0.16646341979503632,-9.903312683105469,0,0,45.0,1,1,1758,1831
73.83540000,73835400,0,-0.0031061251647770405,-0.0006114579737186432,0.0007857330492697656,-0.6884387731552124,0.1661473959684372,-9.906472206115723,0,0,45.0,1,1,1758,1831
73.83823500,73838235,0,-0.003200473031029105,-0.0009887146297842264,0.0006909309886395931,-0.6902135610580444,0.1660284847021103,-9.903935432434082,0,0,45.0,1,1,1758,1831
73.84041400,73840414,0,-0.0038337951991707087,-0.0012780395336449146,0.0010290611535310745,-0.6900488138198853,0.1668190211057663,-9.896483421325684,0,0,45.0,1,1,1758,1831
73.84290900,73842909,0,-0.003599187359213829,-0.0003517796576488763,0.00034498609602451324,-0.6891539692878723,0.16875721514225006,-9.885766983032227,0,0,45.0,1,1,1758,1831
73.84539500,73845395,0,-0.0028989259153604507,0.0006004490423947573,2.0852796296821907e-05,-0.68994140625,0.16997013986110687,-9.874978065490723,0,0,45.0,1,1,1758,1831
73.84813400,73848134,0,-0.002176879206672311,0.0016263016732409596,-0.00039132361416704953,-0.6894184350967407,0.1701888144016266,-9.865106582641602,0,0,45.0,1,1,1758,1831
73.85041900,73850419,0,-0.00020157397375442088,0.001217931043356657,-0.0008512528147548437,-0.6886952519416809,0.17433948814868927,-9.85722541809082,0,0,45.0,1,1,1758,1831
73.85290600,73852906,0,0.0020794325973838568,0.0011957356473430991,-0.0010475520975887775,-0.6901479363441467,0.17888806760311127,-9.854057312011719,0,0,45.0,1,1,1758,1831
73.85540000,73855400,0,0.0035341239999979734,0.00035294535337015986,-0.0010199605021625757,-0.6895520687103271,0.18029430508613586,-9.851728439331055,0,0,45.0,1,1,1758,1831
73.85820300,73858203,0,0.004114954266697168,6.186787504702806e-05,-0.0007004333310760558,-0.6880829930305481,0.17905129492282867,-9.852836608886719,0,0,45.0,1,1,1758,1831
73.86040400,73860404,0,0.004302103538066149,-4.622580672730692e-05,-0.00013914276496507227,-0.6881058812141418,0.17687799036502838,-9.8554105758667,0,0,45.0,1,1,1758,1831
73.86291800,73862918,0,0.006179492454975843,-0.0006463932222686708,0.000545736460480839,-0.6891124844551086,0.1716022491455078,-9.856453895568848,0,0,45.0,1,1,1758,1831
73.86539500,73865395,0,0.00659059826284647,-0.0011933669447898865,0.00047181782429106534,-0.6899582743644714,0.16323666274547577,-9.855191230773926,0,0,45.0,1,1,1758,1831
73.86813600,73868136,0,0.0061715818010270596,-0.0004155019123572856,0.00022080123017076403,-0.6901900768280029,0.15693527460098267,-9.854523658752441,0,0,45.0,1,1,1758,1831
73.87043100,73870431,0,0.004944256041198969,0.00012913451064378023,0.0006441862205974758,-0.6907951831817627,0.14684279263019562,-9.853918075561523,0,0,45.0,1,1,1758,1831
73.87290900,73872909,0,0.003330337116494775,0.0011940577533096075,0.0007810231763869524,-0.6887208819389343,0.14039769768714905,-9.853841781616211,0,0,45.0,1,1,1758,1831
73.87539700,73875397,0,0.0010957765625789762,0.0014876488130539656,0.000658709614071995,-0.6859620809555054,0.13907866179943085,-9.856809616088867,0,0,45.0,1,1,1758,1831
73.87814700,73878147,0,-0.0010254356311634183,0.0019226159201934934,0.0010545244440436363,-0.6826948523521423,0.1389613151550293,-9.860607147216797,0,0,45.0,1,1,1758,1831
73.88041500,73880415,0,-0.0013732841471210122,0.002540632151067257,0.0007686485187150538,-0.6789554357528687,0.14069853723049164,-9.861313819885254,0,0,45.0,1,1,1758,1831
73.88291200,73882912,0,-0.001379207824356854,0.0014538475079461932,0.001272516674362123,-0.673683226108551,0.14303942024707794,-9.86085033416748,0,0,45.0,1,1,1758,1831
73.88540900,73885409,0,-0.0010423011844977736,0.00019662565318867564,0.001545992330648005,-0.6703776121139526,0.14591830968856812,-9.857866287231445,0,0,45.0,1,1,1758,1831
73.88813000,73888130,0,-0.0006872821832075715,-0.0005291904089972377,0.0011893853079527617,-0.6674655079841614,0.14927299320697784,-9.853139877319336,0,0,45.0,1,1,1758,1831
73.89041700,73890417,0,-0.00011476646614028141,-0.0004687185282818973,0.0012204927625134587,-0.667817234992981,0.1542232632637024,-9.85234260559082,0,0,45.0,1,1,1758,1831
73.89290300,73892903,0,0.0006764585850760341,-0.000545318063814193,0.000723427627235651,-0.6681116223335266,0.15870676934719086,-9.85000228881836,0,0,45.0,1,1,1758,1831
73.89539700,73895397,0,0.0020833490416407585,-0.0004054137971252203,0.0009120847680605948,-0.6663867831230164,0.1639392077922821,-9.848928451538086,0,0,45.0,1,1,1758,1831
73.89814500,73898145,0,0.00309390458278358,-0.00026465195696800947,0.0009958334267139435,-0.6648589372634888,0.16359944641590118,-9.852243423461914,0,0,45.0,1,1,1758,1831
73.90042100,73900421,0,0.0036829912569373846,0.0001939921930897981,-9.03748587006703e-05,-0.6681891083717346,0.16147997975349426,-9.85925579071045,0,0,45.0,1,1,1758,1831
73.90291000,73902910,0,0.0037656384520232677,0.00213855248875916,-0.0007758834399282932,-0.670485258102417,0.15935032069683075,-9.867573738098145,0,0,45.0,1,1,1758,1831
73.90540500,73905405,0,0.003784916829317808,0.0025393746327608824,-0.00020208298519719392,-0.6734404563903809,0.1584746092557907,-9.87562084197998,0,0,45.0,1,1,1758,1831
73.90821300,73908213,0,0.004074316471815109,0.003189654089510441,-0.0001779902959242463,-0.6807515025138855,0.1592857539653778,-9.881254196166992,0,0,45.0,1,1,1758,1831
73.91056600,73910566,0,0.0038127247244119644,0.0026282051112502813,-3.5268720239400864e-05,-0.6853998899459839,0.16189329326152802,-9.879323959350586,0,0,45.0,1,1,1758,1831
73.91292600,73912926,0,0.0032303843181580305,0.001982185523957014,-0.00023745838552713394,-0.6870225071907043,0.16688616573810577,-9.8761568069458,0,0,45.0,1,1,1758,1831
73.91543200,73915432,0,0.0023880540393292904,0.002561498200520873,-0.0002525754098314792,-0.6886734962463379,0.1708923727273941,-9.868955612182617,0,0,45.0,1,1,1758,1831
73.91812900,73918129,0,0.001334983273409307,0.0031878757290542126,-0.00028960261261090636,-0.6901748776435852,0.17244534194469452,-9.863661766052246,0,0,45.0,1,1,1758,1831
73.92041700,73920417,0,0.0009410834172740579,0.0029921866953372955,-0.0005400468362495303,-0.6894476413726807,0.1745712012052536,-9.860372543334961,0,0,45.0,1,1,1758,1831
73.92292500,73922925,0,0.0007834553252905607,0.0021237602923065424,-0.0005956426612101495,-0.6889919638633728,0.17829903960227966,-9.856572151184082,0,0,45.0,1,1,1758,1831
73.92540500,73925405,0,0.00029448207351379097,0.0013192527694627643,-0.0009891322115436196,-0.6862339377403259,0.1770637482404709,-9.853034019470215,0,0,45.0,1,1,1758,1831
73.92867100,73928671,0,-0.0010915088932961226,0.0012528878869488835,-0.00123019574675709,-0.6843740940093994,0.17358222603797913,-9.853347778320312,0,0,45.0,1,1,1758,1831
73.93063000,73930630,0,-0.0027614072896540165,0.0014575364766642451,-0.0008501049596816301,-0.6830135583877563,0.16760745644569397,-9.856307983398438,0,0,45.0,1,1,1758,1831
73.93291700,73932917,0,-0.002799839247018099,0.001221728976815939,-0.0008868834702298045,-0.683834969997406,0.1659402698278427,-9.857704162597656,0,0,45.0,1,1,1758,1831
73.93541300,73935413,0,-0.0022691653575748205,0.001149164978414774,-0.0008261256734840572,-0.6830084323883057,0.16549785435199738,-9.85757827758789,0,0,45.0,1,1,1758,1831
73.93822500,73938225,0,-0.0024890985805541277,0.0013211630284786224,0.0001154549972852692,-0.6826267838478088,0.1648414433002472,-9.85478401184082,0,0,45.0,1,1,1758,1831
73.94040700,73940407,0,-0.0032295072451233864,0.0015867335023358464,0.0004130070738028735,-0.6826945543289185,0.1665787398815155,-9.854043006896973,0,0,45.0,1,1,1758,1831
73.94290000,73942900,0,-0.003565689781680703,0.0010705734603106976,0.00028060024487785995,-0.6839780807495117,0.16936621069908142,-9.855521202087402,0,0,45.0,1,1,1758,1831
73.94540800,73945408,0,-0.003404010320082307,0.0004831240512430668,-0.0002030845935223624,-0.6851270794868469,0.17155158519744873,-9.857897758483887,0,0,45.0,1,1,1758,1831
73.94816200,73948162,0,-0.0024078190326690674,0.0008154712850227952,-0.0006798607064411044,-0.687296450138092,0.1755330115556717,-9.862296104431152,0,0,45.0,1,1,1758,1831
73.95042000,73950420,0,-0.0009575454751029611,0.0010447753593325615,-0.0006034719408489764,-0.6923075318336487,0.1812548190355301,-9.86745548248291,0,0,45.0,1,1,1758,1831
73.95291800,73952918,0,0.0008753842557780445,0.0004515904583968222,-0.0002986461913678795,-0.6948711276054382,0.18151840567588806,-9.872161865234375,0,0,45.0,1,1,1758,1831
73.95540100,73955401,0,0.0020400620996952057,-0.0009746878640726209,-0.00036777937202714384,-0.6930384635925293,0.17971530556678772,-9.872589111328125,0,0,45.0,1,1,1758,1831
73.95814100,73958141,0,0.0023538810200989246,-0.0009528007940389216,-0.0003561709017958492,-0.6902794241905212,0.17762380838394165,-9.871922492980957,0,0,45.0,1,1,1758,1831
73.96040200,73960402,0,0.0023618959821760654,-0.0008024677517823875,-0.0010165105341002345,-0.6884651780128479,0.17527145147323608,-9.871091842651367,0,0,45.0,1,1,1758,1831
73.96291200,73962912,0,0.0024127038195729256,-0.0009226570255123079,-0.002359874313697219,-0.6881711483001709,0.1719537377357483,-9.871671676635742,0,0,45.0,1,1,1758,1831
73.96539500,73965395,0,0.0028010262176394463,-0.0014490393223240972,-0.0026592242065817118,-0.6880746483802795,0.16848890483379364,-9.873290061950684,0,0,45.0,1,1,1758,1831
73.96815500,73968155,0,0.0032305100467056036,-0.0017121542477980256,-0.0026989488396793604,-0.6855068206787109,0.1642851084470749,-9.872381210327148,0,0,45.0,1,1,1758,1831
73.97041900,73970419,0,0.0031251851469278336,-0.0014935190556570888,-0.003000907599925995,-0.6820935606956482,0.16138046979904175,-9.872843742370605,0,0,45.0,1,1,1758,1831
73.97290300,73972903,0,0.0030456511303782463,-0.000575214740820229,-0.0016537037445232272,-0.6817988157272339,0.1623329222202301,-9.880668640136719,0,0,45.0,1,1,1758,1831
73.97541200,73975412,0,0.0023487878497689962,0.0003400642890483141,-0.001089691766537726,-0.6817482709884644,0.16283272206783295,-9.888497352600098,0,0,45.0,1,1,1758,1831
73.97814500,73978145,0,0.000547342118807137,0.0020404707174748182,-0.0013475841842591763,-0.6841142773628235,0.15754833817481995,-9.894943237304688,0,0,45.0,1,1,1758,1831
73.98040100,73980401,0,-0.0009799633407965302,0.0024922513402998447,-0.001054198481142521,-0.6846464276313782,0.1548379808664322,-9.898873329162598,0,0,45.0,1,1,1758,1831
73.98290300,73982903,0,-0.002596975537016988,0.00211504683829844,-0.001032310537993908,-0.6833717823028564,0.15894140303134918,-9.898505210876465,0,0,45.0,1,1,1758,1831
73.98540700,73985407,0,-0.0036471851635724306,0.0014965917216613889,-0.00020688959921244532,-0.6835864186286926,0.1635788381099701,-9.895821571350098,0,0,45.0,1,1,1758,1831
73.98814400,73988144,0,-0.004695718176662922,0.0012459970312193036,8.004638220882043e-05,-0.6872469186782837,0.1690504103899002,-9.8936767578125,0,0,45.0,1,1,1758,1831
73.99041900,73990419,0,-0.005199077073484659,0.0012556122383102775,0.0007598944939672947,-0.6908016204833984,0.17650996148586273,-9.893266677856445,0,0,45.0,1,1,1758,1831
73.99290900,73992909,0,-0.004673850256949663,0.0012728703441098332,0.0010570117738097906,-0.6920866370201111,0.18254683911800385,-9.890642166137695,0,0,45.0,1,1,1758,1831
73.99540700,73995407,0,-0.003570978995412588,0.0004525094700511545,0.0009030297514982522,-0.6918627619743347,0.18144828081130981,-9.883430480957031,0,0,45.0,1,1,1758,1831
73.99819700,73998197,0,-0.002013541292399168,-0.0003342321142554283,0.0006145995575934649,-0.6938618421554565,0.17782337963581085,-9.877352714538574,0,0,45.0,1,1,1758,1831
74.00042000,74000420,0,-0.0007905911770649254,-0.0003781407722271979,0.00022550849826075137,-0.6948251724243164,0.17639808356761932,-9.871960639953613,0,0,45.0,1,1,1758,1831
74.00290100,74002901,0,0.0006289862212724984,0.0009001991129480302,0.00011843437096104026,-0.6957264542579651,0.17435972392559052,-9.867391586303711,0,0,45.0,1,1,1758,1831
74.00541300,74005413,0,0.0025260283146053553,0.0010526437545195222,-0.00010306293552275747,-0.6972169280052185,0.1732214093208313,-9.86382007598877,0,0,45.0,1,1,1758,1831
74.00813700,74008137,0,0.004008385818451643,0.001710508018732071,-0.0003535768191795796,-0.6982246041297913,0.17062951624393463,-9.862180709838867,0,0,45.0,1,1,1758,1831
74.01057700,74010577,0,0.004863854497671127,0.0022502178326249123,3.6349007132230327e-05,-0.6947600245475769,0.16801755130290985,-9.860260963439941,0,0,45.0,1,1,1758,1831
74.01291000,74012910,0,0.004705991130322218,0.0015791166806593537,0.00034601366496644914,-0.6891555786132812,0.1619926542043686,-9.858194351196289,0,0,45.0,1,1,1758,1831
74.01540400,74015404,0,0.005548499058932066,0.00036663381615653634,0.000576149090193212,-0.6871228218078613,0.16095474362373352,-9.856602668762207,0,0,45.0,1,1,1758,1831
74.01813500,74018135,0,0.0055381543934345245,-0.0012748896842822433,0.0008695558062754571,-0.6868675947189331,0.1615237444639206,-9.857874870300293,0,0,45.0,1,1,1758,1831
74.02041700,74020417,0,0.005089703015983105,-0.0022479481995105743,0.0007336495327763259,-0.6858936548233032,0.16467709839344025,-9.860674858093262,0,0,45.0,1,1,1758,1831
74.02290200,74022902,0,0.002721285680308938,-0.0009589064284227788,0.0008661101455800235,-0.685048520565033,0.16701599955558777,-9.864226341247559,0,0,45.0,1,1,1758,1831
74.02540700,74025407,0,0.0004082683881279081,0.0002611617965158075,0.0009153327555395663,-0.6839156746864319,0.17064616084098816,-9.866640090942383,0,0,45.0,1,1,1758,1831
74.02833600,74028336,0,-0.0014135792152956128,0.0017976341769099236,0.0007304821047000587,-0.6830831170082092,0.18087860941886902,-9.870766639709473,0,0,45.0,1,1,1758,1831
74.03043500,74030435,0,-0.0027429976034909487,0.0029789754189550877,0.0005354663589969277,-0.6798282265663147,0.19011446833610535,-9.875568389892578,0,0,45.0,1,1,1758,1831
74.03290400,74032904,0,-0.003169931238517165,0.004668367560952902,0.0004822301852982491,-0.6737056970596313,0.19481244683265686,-9.877747535705566,0,0,45.0,1,1,1758,1831
74.03539800,74035398,0,-0.002405958017334342,0.005200470797717571,0.00018350353639107198,-0.668097198009491,0.2003021091222763,-9.877898216247559,0,0,45.0,1,1,1758,1831
74.03826600,74038266,0,-0.000683716032654047,0.004566085524857044,-0.00038823430077172816,-0.6661636233329773,0.2021157294511795,-9.875688552856445,0,0,45.0,1,1,1758,1831
74.04040200,74040402,0,-0.00012578161840792745,0.003366188146173954,-0.0007249789196066558,-0.6667698621749878,0.19802694022655487,-9.874457359313965,0,0,45.0,1,1,1758,1831
74.04291500,74042915,0,0.0012823763536289334,0.0028734146617352962,-0.0016851472901180387,-0.665572464466095,0.19359350204467773,-9.873977661132812,0,0,45.0,1,1,1758,1831
74.04540700,74045407,0,0.003154710866510868,0.002839026041328907,-0.0014206430641934276,-0.6653931140899658,0.19039200246334076,-9.875168800354004,0,0,45.0,1,1,1758,1831
74.04813500,74048135,0,0.0059969001449644566,0.0015764004783704877,-0.0009305141284130514,-0.6686455607414246,0.1897388994693756,-9.8760347366333,0,0,45.0,1,1,1758,1831
74.05043300,74050433,0,0.007802436128258705,0.0008522506686858833,-0.0011298827594146132,-0.6694479584693909,0.18853716552257538,-9.876678466796875,0,0,45.0,1,1,1758,1831
74.05289500,74052895,0,0.008271299302577972,0.0015240316279232502,-0.0008510246407240629,-0.6682591438293457,0.18539606034755707,-9.874460220336914,0,0,45.0,1,1,1758,1831
74.05540400,74055404,0,0.007663915865123272,0.002623563865199685,-0.0007273126975633204,-0.6665851473808289,0.18161654472351074,-9.872434616088867,0,0,45.0,1,1,1758,1831
74.05812900,74058129,0,0.007329047191888094,0.004197155591100454,-0.0007524038664996624,-0.6659740209579468,0.17779070138931274,-9.870755195617676,0,0,45.0,1,1,1758,1831
74.06041900,74060419,0,0.00540923560038209,0.004484452772885561,-0.0014273113338276744,-0.6666077971458435,0.17259734869003296,-9.864266395568848,0,0,45.0,1,1,1758,1831
74.06289300,74062893,0,0.0029017282649874687,0.00448698690161109,-0.0015945403138175607,-0.667876660823822,0.17053425312042236,-9.862375259399414,0,0,45.0,1,1,1758,1831
74.06543000,74065430,0,0.0011781909270212054,0.0038295260164886713,-0.0016656817169860005,-0.6697854399681091,0.16908270120620728,-9.8609037399292,0,0,45.0,1,1,1758,1831
74.06812800,74068128,0,-0.0003354997606948018,0.003287337953224778,-0.002049466362223029,-0.6719958186149597,0.17118874192237854,-9.859245300292969,0,0,45.0,1,1,1758,1831
74.07044200,74070442,0,-0.0012968276860192418,0.0029581780545413494,-0.0018316548084840178,-0.6726661920547485,0.1712426096200943,-9.855430603027344,0,0,45.0,1,1,1758,1831
74.07290800,74072908,0,-0.0025559894274920225,0.002329429378733039,-0.0020126039162278175,-0.6744988560676575,0.1716664880514145,-9.85364055633545,0,0,45.0,1,1,1758,1831
74.07540900,74075409,0,-0.002581830834969878,0.001401320449076593,-0.0012638859916478395,-0.676593542098999,0.17430312931537628,-9.851757049560547,0,0,45.0,1,1,1758,1831
74.07810800,74078108,0,-0.000494827632792294,0.00016063581279013306,-0.0008841591770760715,-0.6802407503128052,0.17803184688091278,-9.852666854858398,0,0,45.0,1,1,1758,1831
74.08043800,74080438,0,0.000734517234377563,-0.0005531462375074625,-0.0006064921617507935,-0.6830768585205078,0.17803329229354858,-9.855840682983398,0,0,45.0,1,1,1758,1831
74.08291200,74082912,0,0.0014386783586815,9.729978046379983e-05,-0.0002938465913757682,-0.6828123331069946,0.1752997636795044,-9.858902931213379,0,0,45.5,1,1,1758,1831
74.08543400,74085434,0,0.0018433901714161038,0.0009368871105834842,0.00013819544983562082,-0.681796669960022,0.17071649432182312,-9.862627983093262,0,0,45.5,1,1,1758,1831
74.08812600,74088126,0,0.0021330970339477062,0.0016635796055197716,0.0005578456912189722,-0.6849648952484131,0.16617348790168762,-9.867660522460938,0,0,45.5,1,1,1758,1831
74.09045500,74090455,0,0.0012822812423110008,0.0028273724019527435,2.3889651856734417e-05,-0.6862669587135315,0.16198253631591797,-9.87114429473877,0,0,45.5,1,1,1758,1831
74.09289900,74092899,0,0.00010914705489994958,0.003551869187504053,-0.000357966375304386,-0.6842598915100098,0.1576828956604004,-9.871880531311035,0,0,45.5,1,1,1758,1831
74.09541300,74095413,0,-0.0005097154644317925,0.0043785786256194115,-3.3539585274411365e-05,-0.6859617829322815,0.15667729079723358,-9.872093200683594,0,0,45.5,1,1,1758,1831
74.09812500,74098125,0,-0.0005764779052697122,0.003915148321539164,5.753845471190289e-05,-0.6890469789505005,0.15984871983528137,-9.873730659484863,0,0,45.5,1,1,1758,1831
74.10043000,74100430,0,-0.0006702224491164088,0.0021574217826128006,0.00025926559465005994,-0.6903815269470215,0.16393336653709412,-9.876662254333496,0,0,45.5,1,1,1758,1831
74.10289500,74102895,0,-0.0010894411243498325,0.0009463342139497399,-0.000158689494128339,-0.6934181451797485,0.16427266597747803,-9.87477970123291,0,0,45.5,1,1,1758,1831
74.10542000,74105420,0,-0.0019465397344902158,0.0007237173267640173,-0.000620487960986793,-0.695777416229248,0.1665613055229187,-9.872248649597168,0,0,45.5,1,1,1758,1831
74.10819400,74108194,0,-0.0038653253577649593,0.0013369170483201742,-0.0002752835862338543,-0.6966179013252258,0.17262567579746246,-9.865711212158203,0,0,45.5,1,1,1758,1831
74.11060600,74110606,0,-0.005739396438002586,0.0029772270936518908,-0.00011366995022399351,-0.6963804364204407,0.1735825389623642,-9.85463809967041,0,0,45.5,1,1,1758,1831
74.11290200,74112902,0,-0.006689169909805059,0.00420874310657382,0.0005238711601123214,-0.6943159699440002,0.1735740303993225,-9.84531021118164,0,0,45.5,1,1,1758,1831
74.11540700,74115407,0,-0.005941654089838266,0.005374582018703222,0.0006834761588834226,-0.6903658509254456,0.17413833737373352,-9.8418607711792,0,0,45.5,1,1,1758,1831
74.11813000,74118130,0,-0.005146856885403395,0.006130550522357225,0.001288471627049148,-0.6868587732315063,0.174128919839859,-9.840330123901367,0,0,45.5,1,1,1758,1831
74.12040400,74120404,0,-0.0038033549208194017,0.005919790361076593,0.0011079414980486035,-0.6844249963760376,0.1759278029203415,-9.844928741455078,0,0,45.5,1,1,1758,1831
74.12289700,74122897,0,-0.001638798974454403,0.0051887547597289085,0.0007329505169764161,-0.6831831336021423,0.17758792638778687,-9.850896835327148,0,0,45.5,1,1,1758,1831
74.12540900,74125409,0,-2.019259409280494e-05,0.004475441761314869,0.00023531063925474882,-0.683439314365387,0.18075646460056305,-9.857995986938477,0,0,45.5,1,1,1758,1831
74.12828000,74128280,0,0.0014091915218159556,0.004598076920956373,-5.9235302614979446e-05,-0.6849815249443054,0.18243321776390076,-9.863364219665527,0,0,45.5,1,1,1758,1831
74.13042600,74130426,0,0.0025362607557326555,0.0041540805250406265,-0.00035769096575677395,-0.6874397397041321,0.1834695190191269,-9.867856979370117,0,0,45.5,1,1,1758,1831
74.13292200,74132922,0,0.0020363552030175924,0.004270417615771294,-0.00021237136388663203,-0.6879576444625854,0.1797940731048584,-9.867338180541992,0,0,45.5,1,1,1758,1831
74.13545500,74135455,0,0.0017442525131627917,0.004827020224183798,-0.00015171694394666702,-0.6914958357810974,0.1778191328048706,-9.870062828063965,0,0,45.5,1,1,1758,1831
74.13823000,74138230,0,0.0006652414449490607,0.0038517594803124666,-0.00038739238516427577,-0.6967226266860962,0.17602834105491638,-9.874446868896484,0,0,45.5,1,1,1758,1831
74.14040700,74140407,0,0.00023326522205024958,0.0023884999100118876,-0.00038275032420642674,-0.69765704870224,0.1748710721731186,-9.876420974731445,0,0,45.5,1,1,1758,1831
74.14292300,74142923,0,-3.77290925825946e-05,0.0010494550224393606,-0.0009157809545286,-0.6962158679962158,0.17465677857398987,-9.875012397766113,0,0,45.5,1,1,1758,1831
74.14540800,74145408,0,-0.0009452651720494032,-0.0005565056926570833,-0.0012006728211417794,-0.6927507519721985,0.17459188401699066,-9.871712684631348,0,0,45.5,1,1,1758,1831
74.14814000,74148140,0,-0.0011697877198457718,-0.0006941332248970866,-0.0007795815472491086,-0.6862354874610901,0.17265957593917847,-9.865117073059082,0,0,45.5,1,1,1758,1831
74.15041900,74150419,0,-0.0010858442401513457,-0.000991140608675778,-0.0005009614396840334,-0.6796795129776001,0.1692683845758438,-9.858351707458496,0,0,45.5,1,1,1758,1831
74.15290300,74152903,0,-0.0018026145407930017,-0.0006599387270398438,-8.295191219076514e-05,-0.6749854683876038,0.16806884109973907,-9.850435256958008,0,0,45.5,1,1,1758,1831
74.15541500,74155415,0,-0.0023272139951586723,-0.0013591247843578458,5.50665681657847e-05,-0.675667405128479,0.16844046115875244,-9.846660614013672,0,0,45.5,1,1,1758,1831
74.15814000,74158140,0,-0.002413783920928836,-0.002184396842494607,0.00023168791085481644,-0.6788941025733948,0.1684292107820511,-9.848464965820312,0,0,45.5,1,1,1758,1831
74.16040400,74160404,0,-0.0034415379632264376,-0.001326482044532895,-8.343330409843475e-05,-0.6817914247512817,0.17084652185440063,-9.849093437194824,0,0,45.5,1,1,1758,1831
74.16290600,74162906,0,-0.0030130762606859207,-0.00031706286245025694,0.00013264834706205875,-0.6817529201507568,0.17144256830215454,-9.848599433898926,0,0,45.5,1,1,1758,1831
74.16540100,74165401,0,-0.0008036756771616638,-0.00029115815414115787,0.0003115531289950013,-0.6793583035469055,0.16880406439304352,-9.846687316894531,0,0,45.5,1,1,1758,1831
74.16814200,74168142,0,0.0003476400743238628,-0.0006021309527568519,0.0004067025438416749,-0.6760489344596863,0.1618788242340088,-9.846353530883789,0,0,45.5,1,1,1758,1831
74.17041700,74170417,0,0.0011889103334397078,-0.0011131614446640015,0.00011340835044393316,-0.6771271824836731,0.1586131751537323,-9.851076126098633,0,0,45.5,1,1,1758,1831
74.17290900,74172909,0,0.0014257894363254309,-0.0009960596216842532,-7.951426960062236e-05,-0.6783572435379028,0.15709708631038666,-9.855329513549805,0,0,45.5,1,1,1758,1831
74.17540100,74175401,0,0.00133875897154212,-0.0006721613463014364,3.754386125365272e-05,-0.6796911358833313,0.15526895225048065,-9.859161376953125,0,0,45.5,1,1,1758,1831
74.17821100,74178211,0,0.0020424278918653727,-0.00020322678028605878,-0.0002426283317618072,-0.6809289455413818,0.15576978027820587,-9.862359046936035,0,0,45.5,1,1,1758,1831
74.18040500,74180405,0,0.0016799664590507746,0.0004090093425475061,-0.0008651429670862854,-0.680385172367096,0.15557730197906494,-9.861021041870117,0,0,45.5,1,1,1758,1831
74.18291100,74182911,0,0.00042161979945376515,0.0004872169520240277,-0.00015842457651160657,-0.6795423626899719,0.15508368611335754,-9.859882354736328,0,0,45.5,1,1,1758,1831
74.18543000,74185430,0,-0.000939545629080385,0.0009859470883384347,0.00033477909164503217,-0.6803277730941772,0.15595895051956177,-9.860997200012207,0,0,45.5,1,1,1758,1831
74.18814300,74188143,0,-0.0021925221662968397,0.0024004147853702307,0.00012692096061073244,-0.6814171075820923,0.15342585742473602,-9.860588073730469,0,0,45.5,1,1,1758,1831
74.19043100,74190431,0,-0.0024893460795283318,0.0034498111344873905,-0.0004347226058598608,-0.6830353736877441,0.1510164737701416,-9.861617088317871,0,0,45.5,1,1,1758,1831
74.19290700,74192907,0,-0.002006411785259843,0.004240773152559996,-0.0008925959700718522,-0.6836621165275574,0.15281908214092255,-9.86397933959961,0,0,45.5,1,1,1758,1831
74.19541500,74195415,0,-0.0017567784525454044,0.005119620822370052,-0.0009784077992662787,-0.687817394733429,0.15649093687534332,-9.868827819824219,0,0,45.5,1,1,1758,1831
74.19814000,74198140,0,-0.00192443304695189,0.005748169496655464,-0.0014423305401578546,-0.6928437948226929,0.16137203574180603,-9.874701499938965,0,0,45.5,1,1,1758,1831
74.20043400,74200434,0,-0.0020388830453157425,0.006541374139487743,-0.0015025344910100102,-0.6977306604385376,0.16590720415115356,-9.876016616821289,0,0,45.5,1,1,1758,1831
74.20290500,74202905,0,-0.0019389815861359239,0.006194703280925751,-0.0009622168727219105,-0.7000306248664856,0.17005367577075958,-9.874159812927246,0,0,45.5,1,1,1758,1831
74.20541100,74205411,0,-0.0020717917941510677,0.005661679897457361,-0.0004072523443028331,-0.7012872099876404,0.1720556616783142,-9.871952056884766,0,0,45.5,1,1,1758,1831
74.20812900,74208129,0,-0.002367848064750433,0.005959347356110811,-0.0006477240822277963,-0.7033184170722961,0.17682534456253052,-9.87096881866455,0,0,45.5,1,1,1758,1831
74.21058700,74210587,0,-0.0028104844968765974,0.0057316310703754425,-0.0006826734752394259,-0.7036367654800415,0.1778137981891632,-9.869771957397461,0,0,45.5,1,1,1758,1831
74.21290600,74212906,0,-0.0037932104896754026,0.00459954421967268,-0.00046164251398295164,-0.701323390007019,0.18027713894844055,-9.871649742126465,0,0,45.5,1,1,1759,1831
74.21540400,74215404,0,-0.004047910682857037,0.002463323064148426,-0.00033770911977626383,-0.6979435086250305,0.1815604269504547,-9.871356964111328,0,0,45.5,1,1,1759,1831
74.21813500,74218135,0,-0.004509273916482925,0.0003790337941609323,0.00016465489170514047,-0.6931225657463074,0.1763278990983963,-9.871639251708984,0,0,45.5,1,1,1759,1831
74.22040900,74220409,0,-0.004651414696127176,-0.0001526475534774363,0.00048528853221796453,-0.6882074475288391,0.17013943195343018,-9.869940757751465,0,0,45.5,1,1,1759,1831
74.22291700,74222917,0,-0.004894312936812639,6.348730676108971e-05,0.0002098983823088929,-0.6831095218658447,0.16770173609256744,-9.87147045135498,0,0,45.5,1,1,1759,1831
74.22541500,74225415,0,-0.005251755937933922,0.0015972373075783253,-0.00026293564587831497,-0.6812998652458191,0.17074468731880188,-9.872710227966309,0,0,45.5,1,1,1759,1831
74.22828700,74228287,0,-0.005586039274930954,0.003101751673966646,0.00014044955605641007,-0.6795305013656616,0.17209486663341522,-9.87338638305664,0,0,45.5,1,1,1759,1831
74.23043400,74230434,0,-0.005657800938934088,0.003737675491720438,0.00041699298890307546,-0.6787457466125488,0.1695929318666458,-9.873080253601074,0,0,45.5,1,1,1759,1831
74.23291500,74232915,0,-0.0055631184950470924,0.004032564349472523,0.00020853949536103755,-0.6769936084747314,0.16734212636947632,-9.866995811462402,0,0,45.5,1,1,1759,1831
74.23544000,74235440,0,-0.005592238157987595,0.005095418076962233,0.0009309067972935736,-0.6734133958816528,0.16705285012722015,-9.860644340515137,0,0,45.5,1,1,1759,1831
74.23827500,74238275,0,-0.004986449610441923,0.005175773520022631,0.001180966035462916,-0.6720983982086182,0.16760236024856567,-9.852930068969727,0,0,45.5,1,1,1759,1831
74.24041900,74240419,0,-0.005251092370599508,0.004724137485027313,0.0009467466152273118,-0.6757158637046814,0.17114776372909546,-9.848390579223633,0,0,45.5,1,1,1759,1831
74.24292400,74242924,0,-0.005433294922113419,0.004932761192321777,0.0006818243418820202,-0.6783792972564697,0.17383511364459991,-9.848910331726074,0,0,45.5,1,1,1759,1831
74.24543700,74245437,0,-0.005644553806632757,0.004891823045909405,0.0007791483658365905,-0.6807434558868408,0.17238964140415192,-9.848703384399414,0,0,45.5,1,1,1759,1831
74.24819900,74248199,0,-0.004015615209937096,0.0039978837594389915,-2.6983570933225565e-05,-0.6812341213226318,0.16719461977481842,-9.84597396850586,0,0,45.5,1,1,1759,1831
74.25043600,74250436,0,-0.0024988451041281223,0.0031963842920958996,-0.0004437002644408494,-0.6800838708877563,0.160866841673851,-9.844700813293457,0,0,45.5,1,1,1759,1831
74.25293100,74252931,0,-0.0010844194330275059,0.002465325640514493,-0.0003655503678601235,-0.6800491213798523,0.1573297083377838,-9.84683609008789,0,0,45.5,1,1,1759,1831
74.25542600,74255426,0,4.9355414375895634e-05,0.0014925914583727717,-0.000859346182551235,-0.6782565712928772,0.15783315896987915,-9.85056209564209,0,0,45.5,1,1,1759,1831
74.25811800,74258118,0,0.0010269846534356475,0.0012966417707502842,-0.0007260188576765358,-0.67662113904953,0.15987315773963928,-9.851144790649414,0,0,45.5,1,1,1759,1831
74.26042200,74260422,0,0.0013728049816563725,0.0007120076334103942,-0.00038259304710663855,-0.674401044845581,0.1602744460105896,-9.85136890411377,0,0,45.5,1,1,1759,1831
74.26292600,74262926,0,0.0006440006545744836,0.0001187702437164262,-0.00017093536735046655,-0.671951949596405,0.1617043912410736,-9.852128028869629,0,0,45.5,1,1,1759,1831
74.26539900,74265399,0,0.00013514685269910842,-0.0005641154129989445,-0.0008490001200698316,-0.6711839437484741,0.16203518211841583,-9.855813026428223,0,0,45.5,1,1,1759,1831
74.26817800,74268178,0,0.000506022886838764,-0.0013013103744015098,-0.0009401155984960496,-0.6718421578407288,0.16013701260089874,-9.858598709106445,0,0,45.5,1,1,1759,1831
74.27042800,74270428,0,0.0005963285802863538,-0.001600846415385604,-0.0006496178102679551,-0.6733574867248535,0.1603473573923111,-9.865213394165039,0,0,45.5,1,1,1759,1831
74.27290900,74272909,0,0.0011010774178430438,-0.0028926089871674776,-0.00017125048907473683,-0.6746144890785217,0.1619734913110733,-9.870019912719727,0,0,45.5,1,1,1759,1831
74.27540400,74275404,0,0.0011557013494893909,-0.0038596256636083126,0.00013010925613343716,-0.676489531993866,0.16504544019699097,-9.870285034179688,0,0,45.5,1,1,1759,1831
74.27814000,74278140,0,0.0001450313866371289,-0.0030391551554203033,0.000493480998557061,-0.6785030364990234,0.16835357248783112,-9.868840217590332,0,0,45.5,1,1,1759,1831
74.28041300,74280413,0,-0.00011925336730200797,-0.0023882179521024227,0.0006521214381791651,-0.6790759563446045,0.17322053015232086,-9.865214347839355,0,0,45.5,1,1,1759,1831
74.28291500,74282915,0,-0.0012236061738803983,-0.0018023852026090026,0.0007523813401348889,-0.6793344020843506,0.1730092465877533,-9.858524322509766,0,0,45.5,1,1,1759,1831
74.28539500,74285395,0,-0.0019985628314316273,-0.0013900897465646267,0.0010846368968486786,-0.6804244518280029,0.17279790341854095,-9.854788780212402,0,0,45.5,1,1,1759,1831
74.28813600,74288136,0,-0.0015778295928612351,-0.0014747147215530276,0.0015966140199452639,-0.683211088180542,0.174322247505188,-9.854483604431152,0,0,45.5,1,1,1759,1831
74.29044800,74290448,0,-0.0006564661744050682,-0.0011330655543133616,0.0013534176396206021,-0.689964771270752,0.1783241629600525,-9.851140022277832,0,0,45.5,1,1,1759,1831
74.29291000,74292910,0,0.00025950028793886304,-0.0017263644840568304,0.0011944142170250416,-0.6941550374031067,0.18240422010421753,-9.848577499389648,0,0,45.5,1,1,1759,1831
74.29539900,74295399,0,0.0011301578488200903,-0.0009074551635421813,0.000428106082836166,-0.694553017616272,0.18150383234024048,-9.84747314453125,0,0,45.5,1,1,1759,1831
74.29813600,74298136,0,0.0015098396688699722,-0.0003920309245586395,0.0006028754287399352,-0.6958286166191101,0.1755325049161911,-9.847980499267578,0,0,45.5,1,1,1759,1831
74.30044300,74300443,0,0.0027014303486794233,0.0008641016320325434,0.000491288083139807,-0.6963019967079163,0.16885365545749664,-9.851262092590332,0,0,45.5,1,1,1759,1831
74.30292000,74302920,0,0.0026464795228093863,0.0021575079299509525,0.0001828172680689022,-0.6938422918319702,0.16625630855560303,-9.854432106018066,0,0,45.5,1,1,1759,1831
74.30540400,74305404,0,0.0029702414758503437,0.0028555309399962425,-0.0005162482266314328,-0.6882122755050659,0.16270218789577484,-9.858552932739258,0,0,45.5,1,1,1759,1831
74.30814200,74308142,0,0.0020430965814739466,0.003489254740998149,-0.0003432331432122737,-0.6848978996276855,0.15809723734855652,-9.862465858459473,0,0,45.5,1,1,1759,1831
74.31058800,74310588,0,0.0007465172675438225,0.0030141742900013924,-2.8863263651146553e-05,-0.6802475452423096,0.15449896454811096,-9.86133098602295,0,0,45.5,1,1,1759,1831
74.31293300,74312933,0,0.00029219905263744295,0.0023276028223335743,2.279077671119012e-05,-0.6791262626647949,0.1553160548210144,-9.862071990966797,0,0,45.5,1,1,1759,1831
74.31540500,74315405,0,-0.0001362393522867933,0.0017878770595416427,-0.00013078864139970392,-0.6785109639167786,0.15651074051856995,-9.86609935760498,0,0,45.5,1,1,1759,1831
74.31813800,74318138,0,0.00041558555676601827,0.00033187930239364505,0.00014541461132466793,-0.6800024509429932,0.15716251730918884,-9.865961074829102,0,0,45.5,1,1,1759,1831
74.32040900,74320409,0,0.0013698105467483401,-0.000964975159149617,0.00043342745630070567,-0.6822442412376404,0.1574700027704239,-9.864252090454102,0,0,45.5,1,1,1759,1831
74.32292100,74322921,0,0.0014580623246729374,-0.0016379931475967169,0.0006222606752999127,-0.684116780757904,0.16078950464725494,-9.86440658569336,0,0,45.5,1,1,1759,1831
74.32539700,74325397,0,0.000606185058131814,-0.0014835171168670058,0.0005286617670208216,-0.6831867098808289,0.16801238059997559,-9.86056900024414,0,0,45.5,1,1,1759,1831
74.32828400,74328284,0,4.123219332541339e-05,-0.0013777529820799828,-0.00021446013124659657,-0.6814860105514526,0.17298921942710876,-9.856595039367676,0,0,45.5,1,1,1759,1831
74.33042600,74330426,0,-0.0002928632602561265,-0.0004966227570548654,-0.00014116709644440562,-0.6772111654281616,0.17578813433647156,-9.854155540466309,0,0,45.5,1,1,1759,1831
74.33289800,74332898,0,0.00015355560753960162,0.0005450872704386711,3.0648265237687156e-05,-0.6737467050552368,0.17644928395748138,-9.851635932922363,0,0,45.5,1,1,1759,1831
74.33541500,74335415,0,0.0005438851658254862,0.0011345177190378308,-0.000561807828489691,-0.6728605031967163,0.17494463920593262,-9.852155685424805,0,0,45.5,1,1,1759,1831
74.33823100,74338231,0,0.00035897866473533213,0.0011532988864928484,-8.837072527967393e-05,-0.6749219298362732,0.17331162095069885,-9.856772422790527,0,0,45.5,1,1,1759,1831
74.34041700,74340417,0,0.0011900641256943345,-0.00020493393822107464,0.0005462401895783842,-0.6767624616622925,0.17071986198425293,-9.865823745727539,0,0,45.5,1,1,1759,1831
74.34292100,74342921,0,0.0020432614255696535,-0.0024596734438091516,0.0014385103713721037,-0.6786409616470337,0.1684110015630722,-9.87235164642334,0,0,45.5,1,1,1759,1831
74.34540500,74345405,0,0.0023350324481725693,-0.0030298996716737747,0.0013666574377566576,-0.6800169944763184,0.16458147764205933,-9.873176574707031,0,0,45.5,1,1,1759,1831
74.34813400,74348134,0,0.0018627149984240532,-0.003629581304267049,0.0011235566344112158,-0.6816100478172302,0.1623769998550415,-9.873517036437988,0,0,45.5,1,1,1759,1831
74.35043700,74350437,0,0.0016928791301324964,-0.003285882528871298,-1.8191181879956275e-05,-0.6855905652046204,0.16160187125205994,-9.874510765075684,0,0,45.5,1,1,1759,1831
74.35292000,74352920,0,0.002243857365101576,-0.003390235360711813,-0.0004242254653945565,-0.6895769834518433,0.16178485751152039,-9.875603675842285,0,0,45.5,1,1,1759,1831
74.35541000,74355410,0,0.0021868525072932243,-0.003207232104614377,-0.0005613865796476603,-0.6940519213676453,0.16351453959941864,-9.876590728759766,0,0,45.5,1,1,1759,1831
74.35825700,74358257,0,0.00174910353962332,-0.002039811108261347,-0.0006619635387323797,-0.6970651149749756,0.1642019897699356,-9.870508193969727,0,0,45.5,1,1,1759,1831
74.36043900,74360439,0,0.0008468004525639117,0.0002506474847905338,-0.00010788466897793114,-0.6987086534500122,0.16181103885173798,-9.863618850708008,0,0,45.5,1,1,1759,1831
74.36292000,74362920,0,0.0007978175417520106,0.001556739560328424,-0.00018559425370767713,-0.6974411010742188,0.15930186212062836,-9.857187271118164,0,0,45.5,1,1,1759,1831
74.36542100,74365421,0,0.0020613553933799267,0.0012576401932165027,-0.0001278147828998044,-0.6938399076461792,0.1599532663822174,-9.855834007263184,0,0,45.5,1,1,1759,1831
74.36812600,74368126,0,0.003143093315884471,0.0016787834465503693,-0.00022820055892225355,-0.6888898611068726,0.1584424376487732,-9.858491897583008,0,0,45.5,1,1,1759,1831
74.37044600,74370446,0,0.0039373887702822685,0.001724056783132255,-0.00032142404234036803,-0.6835792064666748,0.1580684334039688,-9.860873222351074,0,0,45.5,1,1,1759,1831
74.37289900,74372899,0,0.0043451301753520966,0.002287844428792596,-0.0006525630597025156,-0.6814884543418884,0.15723884105682373,-9.861374855041504,0,0,45.5,1,1,1759,1831
74.37542300,74375423,0,0.004282000940293074,0.0016762036830186844,-0.0009239340433850884,-0.6805903911590576,0.15721653401851654,-9.860814094543457,0,0,45.5,1,1,1759,1831
74.37812500,74378125,0,0.0036718256305903196,0.001477165031246841,-0.0018266189144924283,-0.6776758432388306,0.15782108902931213,-9.861809730529785,0,0,45.5,1,1,1759,1831
74.38045000,74380450,0,0.0038423931691795588,0.001287031569518149,-0.0019977730698883533,-0.6749266386032104,0.1611083596944809,-9.865039825439453,0,0,45.5,1,1,1759,1831
74.38291100,74382911,0,0.0029497500509023666,0.002203727373853326,-0.0017548308242112398,-0.6755098104476929,0.16428689658641815,-9.873212814331055,0,0,45.5,1,1,1759,1831
74.38541300,74385413,0,0.0009692840394563973,0.002795845502987504,-0.0010241303825750947,-0.6790885329246521,0.16595038771629333,-9.883966445922852,0,0,45.5,1,1,1759,1831
74.38812800,74388128,0,-0.0012885984033346176,0.0030198313761502504,-0.0008115317323245108,-0.6792747974395752,0.16550181806087494,-9.887516975402832,0,0,45.5,1,1,1759,1831
74.39047900,74390479,0,-0.0027856079395860434,0.002253980375826359,-0.000191937419003807,-0.6803942322731018,0.16311487555503845,-9.888856887817383,0,0,45.5,1,1,1759,1831
74.39292500,74392925,0,-0.0017764171352609992,0.000826618866994977,0.000259670487139374,-0.6787981986999512,0.1600787490606308,-9.88410472869873,0,0,45.5,1,1,1759,1831
74.39542800,74395428,0,-0.0010702671715989709,-0.000877241138368845,-0.00011027931032003835,-0.6787741184234619,0.1589469313621521,-9.879226684570312,0,0,45.5,1,1,1759,1831
74.39812500,74398125,0,0.00019093915761914104,-0.0029071469325572252,0.0001127958603319712,-0.6800565719604492,0.16116857528686523,-9.874411582946777,0,0,45.5,1,1,1759,1831
74.40045100,74400451,0,7.072807784425095e-05,-0.0038434232119470835,0.0005012282636016607,-0.6789000630378723,0.16347606480121613,-9.871424674987793,0,0,45.5,1,1,1759,1831
74.40293300,74402933,0,0.0001809639361454174,-0.0034049018286168575,0.0006889814394526184,-0.6791839599609375,0.1627049744129181,-9.866880416870117,0,0,45.5,1,1,1759,1831
74.40542000,74405420,0,0.001052961451932788,-0.0021129222586750984,0.00010532211308600381,-0.6792697310447693,0.1649024337530136,-9.861008644104004,0,0,45.5,1,1,1759,1831
74.40812300,74408123,0,0.0013713018270209432,-0.0011980098206549883,-0.00041791811236180365,-0.68006432056427,0.16560302674770355,-9.857457160949707,0,0,45.5,1,1,1759,1831
74.41048200,74410482,0,0.000985891791060567,-0.00032068759901449084,-0.00029909901786595583,-0.6817874908447266,0.16602355241775513,-9.855537414550781,0,0,45.5,1,1,1759,1831
74.41291600,74412916,0,0.0007993497420102358,0.0010322959860786796,0.00010281853610649705,-0.6825109124183655,0.16499100625514984,-9.853721618652344,0,0,45.5,1,1,1759,1831
74.41540200,74415402,0,0.00026049098232761025,0.0019311116775497794,9.512056567473337e-05,-0.6817110776901245,0.16347987949848175,-9.854876518249512,0,0,45.5,1,1,1759,1831
74.41813700,74418137,0,-0.0007089560385793447,0.0036680218763649464,-0.000647924083750695,-0.6818289160728455,0.16236527264118195,-9.85708999633789,0,0,45.5,1,1,1759,1831
74.42041200,74420412,0,-0.0011727926321327686,0.003866866696625948,-0.00026399269700050354,-0.6816577315330505,0.1606111228466034,-9.85743236541748,0,0,45.5,1,1,1759,1831
74.42290700,74422907,0,-0.0009543108753859997,0.0033204129431396723,-0.0003279370430391282,-0.6816368699073792,0.16017448902130127,-9.856477737426758,0,0,45.5,1,1,1759,1831
74.42541800,74425418,0,-0.00014626065967604518,0.002661451930180192,-0.0003522689803503454,-0.682740330696106,0.16448207199573517,-9.858681678771973,0,0,45.5,1,1,1759,1831
74.42865700,74428657,0,0.0010309109929949045,0.0012865152675658464,0.00016615197819191962,-0.682003378868103,0.16697196662425995,-9.859819412231445,0,0,45.5,1,1,1759,1831
74.43059800,74430598,0,0.001700904918834567,-0.0003152992285322398,0.00042001050314866006,-0.6828610897064209,0.16837985813617706,-9.859683990478516,0,0,45.5,1,1,1759,1831
74.43291300,74432913,0,0.001531638903543353,-0.002038154285401106,0.00018925739277619869,-0.6834399104118347,0.1645633578300476,-9.862447738647461,0,0,45.5,1,1,1759,1831
74.43540200,74435402,0,0.0016289043705910444,-0.0029111148323863745,9.684737597126514e-05,-0.682563304901123,0.16046912968158722,-9.86655330657959,0,0,45.5,1,1,1759,1831
74.43822900,74438229,0,0.00195226666983217,-0.0038153266068547964,7.127266144379973e-06,-0.6834146976470947,0.15637452900409698,-9.87100601196289,0,0,45.5,1,1,1759,1831
74.44041600,74440416,0,0.0014079263200983405,-0.0030158546287566423,0.0004796754801645875,-0.6857208609580994,0.14989376068115234,-9.876138687133789,0,0,45.5,1,1,1759,1831
74.44291100,74442911,0,0.00036608142545446754,-0.002594343153759837,0.0006059732404537499,-0.6874740123748779,0.14524628221988678,-9.87706184387207,0,0,45.5,1,1,1759,1831
74.44540400,74445404,0,-0.001719991909340024,-0.001857718569226563,0.00034825780312530696,-0.686863899230957,0.14667057991027832,-9.873627662658691,0,0,45.5,1,1,1759,1831
74.44820100,74448201,0,-0.0020611060317605734,-0.0008937839302234352,0.0009872267255559564,-0.68552565574646,0.1518617421388626,-9.870060920715332,0,0,45.5,1,1,1759,1831
74.45041800,74450418,0,-0.003058999078348279,-0.000265417416812852,0.001272665336728096,-0.6851247549057007,0.15706858038902283,-9.863656044006348,0,0,45.5,1,1,1759,1831
74.45290700,74452907,0,-0.004540944006294012,6.171731365611777e-05,0.0007401478360407054,-0.6871601939201355,0.16033466160297394,-9.85964584350586,0,0,45.5,1,1,1759,1831
74.45540000,74455400,0,-0.005734504200518131,0.0009874898241832852,0.0007959639769978821,-0.687057375907898,0.1658681184053421,-9.860589981079102,0,0,45.5,1,1,1759,1831
74.45817400,74458174,0,-0.006611486431211233,0.0024208524264395237,0.001277357805520296,-0.6878084540367126,0.16741402447223663,-9.858814239501953,0,0,45.5,1,1,1759,1831
74.46042500,74460425,0,-0.006873265840113163,0.002723403973504901,0.0018279150826856494,-0.6911115646362305,0.16553710401058197,-9.860780715942383,0,0,45.5,1,1,1759,1831
74.46291200,74462912,0,-0.005870432127267122,0.001419557142071426,0.002473037224262953,-0.694334089756012,0.16173261404037476,-9.865981101989746,0,0,45.5,1,1,1759,1831
74.46540000,74465400,0,-0.004577006679028273,2.1353102965804283e-06,0.002518516732379794,-0.6938981413841248,0.16136722266674042,-9.8713960647583,0,0,45.5,1,1,1759,1831
74.46814100,74468141,0,-0.003519830759614706,-0.0008718391763977706,0.0028212987817823887,-0.6940283179283142,0.16089454293251038,-9.872464179992676,0,0,45.5,1,1,1759,1831
74.47043300,74470433,0,-0.001959787681698799,-0.001595790614373982,0.0029261920135468245,-0.692931592464447,0.16153983771800995,-9.874752044677734,0,0,45.5,1,1,1759,1831
74.47289900,74472899,0,-0.000552908459212631,-0.0019273663638159633,0.0024129245430231094,-0.6895391345024109,0.16184940934181213,-9.87497329711914,0,0,45.5,1,1,1759,1831
74.47540500,74475405,0,0.0009995857253670692,-0.0018142152111977339,0.001433942699804902,-0.687468409538269,0.16053412854671478,-9.871795654296875,0,0,45.5,1,1,1759,1831
74.47814000,74478140,0,0.0014941664412617683,-0.0015302657848224044,0.001012320164591074,-0.6853882074356079,0.16011011600494385,-9.865714073181152,0,0,45.5,1,1,1759,1831
74.48042600,74480426,0,0.0019586309790611267,-0.0011880064848810434,-0.00017339998157694936,-0.6851217746734619,0.16261866688728333,-9.859817504882812,0,0,45.5,1,1,1759,1831
74.48290100,74482901,0,0.0011717173038050532,-0.00019793205137830228,-0.001437164144590497,-0.682733416557312,0.16645516455173492,-9.856889724731445,0,0,45.5,1,1,1759,1831
74.48540300,74485403,0,0.00045747164404019713,7.730736251687631e-05,-0.0014794844901189208,-0.6821308732032776,0.16677090525627136,-9.857528686523438,0,0,45.5,1,1,1759,1831
74.48813400,74488134,0,-0.00021404620201792568,-0.0002052278141491115,-0.0018740742234513164,-0.6816849708557129,0.16514727473258972,-9.862019538879395,0,0,45.5,1,1,1759,1831
74.49043000,74490430,0,-0.0009316581999883056,-0.00019541043729986995,-0.001814227201975882,-0.6823173761367798,0.16518837213516235,-9.869678497314453,0,0,45.5,1,1,1759,1831
74.49291600,74492916,0,-0.0004966235719621181,-0.0011915971990674734,-0.001674475846812129,-0.6807243824005127,0.1647089570760727,-9.875923156738281,0,0,45.5,1,1,1759,1831
74.49541100,74495411,0,0.0011072951601818204,-0.0020003472454845905,-0.0011972427600994706,-0.6826110482215881,0.16743265092372894,-9.881189346313477,0,0,45.5,1,1,1759,1831
74.49813600,74498136,0,0.002222326584160328,-0.0029873810708522797,-0.0007322419551201165,-0.6856212019920349,0.17007248103618622,-9.8821439743042,0,0,45.5,1,1,1759,1831
74.50045500,74500455,0,0.00242149387486279,-0.0028654574416577816,-3.753552300622687e-05,-0.6884162425994873,0.1713392734527588,-9.880565643310547,0,0,45.5,1,1,1759,1831
74.50290200,74502902,0,0.002989688655361533,-0.0020916361827403307,3.330503386678174e-05,-0.6883701086044312,0.1738038808107376,-9.876276969909668,0,0,45.5,1,1,1759,1831
74.50541400,74505414,0,0.0028372907545417547,-0.001709867618046701,0.0002036290243268013,-0.6884520053863525,0.17352928221225739,-9.873859405517578,0,0,45.5,1,1,1759,1831
74.50813500,74508135,0,0.002390972338616848,-0.0006073914119042456,7.232075586216524e-05,-0.6880970001220703,0.17068356275558472,-9.874711990356445,0,0,45.5,1,1,1759,1831
74.51065600,74510656,0,0.0021307095885276794,-9.118245361605659e-05,0.00011874004121636972,-0.6879429221153259,0.1710425615310669,-9.875911712646484,0,0,45.5,1,1,1759,1831
74.51290000,74512900,0,0.0022095516324043274,-0.0015382148558273911,-0.00030987439095042646,-0.6896494626998901,0.17367848753929138,-9.8716402053833,0,0,45.5,1,1,1759,1831
74.51542000,74515420,0,0.002547173062339425,-0.0027645418886095285,-0.000853765057399869,-0.690278947353363,0.1730828732252121,-9.866138458251953,0,0,45.5,1,1,1759,1831
74.51814000,74518140,0,0.002132902154698968,-0.002794906497001648,-0.0005652874242514372,-0.6927024722099304,0.173467755317688,-9.863747596740723,0,0,45.5,1,1,1759,1831
74.52042800,74520428,0,0.0014517154777422547,-0.0025404728949069977,0.0001175740544567816,-0.694113552570343,0.17556317150592804,-9.865002632141113,0,0,45.5,1,1,1759,1831
74.52290100,74522901,0,0.0016135284677147865,-0.003651913022622466,-4.516135959420353e-06,-0.6921727657318115,0.17833632230758667,-9.869378089904785,0,0,45.5,1,1,1759,1831
74.52540900,74525409,0,0.0023258510045707226,-0.004077500198036432,0.0002052417112281546,-0.6886650919914246,0.18146558105945587,-9.871686935424805,0,0,45.5,1,1,1759,1831
74.52828500,74528285,0,0.002743619028478861,-0.004235781263560057,0.0004914628225378692,-0.6841380596160889,0.18386434018611908,-9.872052192687988,0,0,45.5,1,1,1759,1831
74.53043100,74530431,0,0.0021817609667778015,-0.002813271712511778,0.0006108686211518943,-0.681169867515564,0.1858721375465393,-9.875603675842285,0,0,45.5,1,1,1759,1831
74.53290700,74532907,0,0.0012785331346094608,-0.0009279990918003023,0.0008757698815315962,-0.679212212562561,0.18674759566783905,-9.877392768859863,0,0,45.5,1,1,1759,1831
74.53540200,74535402,0,0.0008554162341170013,-0.00015102577162906528,0.0012602838687598705,-0.6769245266914368,0.18715448677539825,-9.879971504211426,0,0,45.5,1,1,1759,1831
74.53828800,74538288,0,0.0011077983072027564,0.0003254628099966794,0.0017079010140150785,-0.67606520652771,0.18648314476013184,-9.882776260375977,0,0,45.5,1,1,1759,1831
74.54042300,74540423,0,-0.00032321648905053735,0.0006917132413946092,0.0014265984063968062,-0.674620509147644,0.18011395633220673,-9.8821439743042,0,0,45.5,1,1,1759,1831
74.54290400,74542904,0,-0.0023748716339468956,-0.0004208659229334444,0.001457507605664432,-0.6718549728393555,0.17487573623657227,-9.881119728088379,0,0,45.5,1,1,1759,1831
74.54539300,74545393,0,-0.002377738244831562,-0.002720769727602601,0.001629725913517177,-0.671843945980072,0.17165911197662354,-9.88402271270752,0,0,45.5,1,1,1759,1831
74.54815000,74548150,0,-0.001766897039487958,-0.004465475678443909,0.00077385688200593,-0.6708506941795349,0.17112332582473755,-9.886147499084473,0,0,45.5,1,1,1759,1831
74.55041900,74550419,0,-0.0011352172587066889,-0.006293649785220623,0.00044086980051361024,-0.6690644025802612,0.17388556897640228,-9.885217666625977,0,0,45.5,1,1,1759,1831
74.55291700,74552917,0,0.0005385059048421681,-0.007106537465006113,0.0004773900145664811,-0.6677253842353821,0.1767248511314392,-9.884583473205566,0,0,45.5,1,1,1759,1831
74.55539900,74555399,0,0.0016244170255959034,-0.007226878777146339,-6.908234354341403e-05,-0.6680684685707092,0.17837026715278625,-9.883071899414062,0,0,45.5,1,1,1759,1831
74.55814900,74558149,0,0.002478306880220771,-0.006363097578287125,-0.00050737225683406,-0.6685567498207092,0.1806502640247345,-9.878628730773926,0,0,45.5,1,1,1759,1831
74.56041800,74560418,0,0.002449342282488942,-0.005017761141061783,-0.0007797705475240946,-0.6684241890907288,0.18271809816360474,-9.871636390686035,0,0,45.5,1,1,1759,1831
74.56292200,74562922,0,0.002254313323646784,-0.004194519482553005,-0.0005133190425112844,-0.6713019013404846,0.18154923617839813,-9.866621017456055,0,0,45.5,1,1,1759,1831
74.56539600,74565396,0,0.002435912610962987,-0.0025541179347783327,-0.0002534756495151669,-0.6767739057540894,0.1790482997894287,-9.86616039276123,0,0,45.5,1,1,1759,1831
74.56814200,74568142,0,0.003270245622843504,-0.002119495766237378,8.168938802555203e-05,-0.6818441152572632,0.1760156750679016,-9.865821838378906,0,0,45.5,1,1,1759,1831
74.57041500,74570415,0,0.002811386017128825,-0.002006375463679433,0.0006666825502179563,-0.6833618879318237,0.1723158359527588,-9.86184024810791,0,0,45.5,1,1,1759,1831
74.57291400,74572914,0,0.0016290745697915554,-0.00048369576688855886,0.0004034796147607267,-0.6828838586807251,0.16944840550422668,-9.858780860900879,0,0,45.5,1,1,1759,1831
74.57540600,74575406,0,0.0012004944728687406,0.0005892039043828845,0.0008587336633354425,-0.683133602142334,0.16674840450286865,-9.853825569152832,0,0,45.5,1,1,1759,1831
74.57811200,74578112,0,0.0004440780321601778,0.0013604393461719155,0.0010464235674589872,-0.6847400665283203,0.1656499058008194,-9.850192070007324,0,0,45.5,1,1,1759,1831
74.58040100,74580401,0,-0.0010679379338398576,0.0017422527307644486,0.0008573862141929567,-0.6887502670288086,0.16862168908119202,-9.845658302307129,0,0,45.5,1,1,1759,1831
74.58293100,74582931,0,-0.0016377117717638612,0.0011552462819963694,0.001423246692866087,-0.6922279596328735,0.17149129509925842,-9.843878746032715,0,0,45.5,1,1,1759,1833
74.58540400,74585404,0,-0.002812812104821205,0.001414928468875587,0.0007235758821479976,-0.6926383972167969,0.1733342707157135,-9.845293045043945,0,0,45.5,1,1,1759,1833
74.58812700,74588127,0,-0.0035126334987580776,0.0013517345068976283,0.0006969991372898221,-0.691882312297821,0.1717604398727417,-9.850263595581055,0,0,45.5,1,1,1759,1833
74.59042400,74590424,0,-0.0034074741415679455,0.00024130201200023293,0.00010106246918439865,-0.691594123840332,0.1711982935667038,-9.854109764099121,0,0,45.5,1,1,1759,1833
74.59292900,74592929,0,-0.002039419487118721,-0.0007380142342299223,9.873756062006578e-05,-0.6925830245018005,0.17219650745391846,-9.85883903503418,0,0,45.5,1,1,1759,1833
74.59545100,74595451,0,-0.0009269825532101095,-0.0002033357013715431,-0.00020907545695081353,-0.6945297718048096,0.1717391461133957,-9.861448287963867,0,0,45.5,1,1,1759,1833
74.59812400,74598124,0,0.00014358540647663176,-0.00013475316518452018,0.00026767427334561944,-0.6947149634361267,0.16706162691116333,-9.862080574035645,0,0,45.5,1,1,1759,1833
74.60042000,74600420,0,0.0015969860833138227,0.0003108088858425617,0.00017479676171205938,-0.6939343810081482,0.15773385763168335,-9.863155364990234,0,0,45.5,1,1,1759,1833
74.60289600,74602896,0,0.0020734660793095827,0.0004966424312442541,0.00024469546042382717,-0.6926761865615845,0.1527942270040512,-9.864726066589355,0,0,45.5,1,1,1759,1833
74.60541100,74605411,0,0.002086402615532279,0.0006173509173095226,0.0006595668382942677,-0.6928189992904663,0.1476220041513443,-9.86585521697998,0,0,45.5,1,1,1759,1833
74.60820800,74608208,0,0.0016617379151284695,0.0007777870050631464,0.0007156317587941885,-0.6909689903259277,0.14393892884254456,-9.86886215209961,0,0,45.5,1,1,1759,1833
74.61055800,74610558,0,0.0018222820945084095,-0.0005309002008289099,0.0005525267333723605,-0.6883636713027954,0.14153875410556793,-9.872391700744629,0,0,45.5,1,1,1759,1833
74.61290300,74612903,0,0.0019097054610028863,-0.0018617804162204266,0.0008795926114544272,-0.6838492751121521,0.14341065287590027,-9.8767671585083,0,0,45.5,1,1,1759,1833
74.61541800,74615418,0,0.0016227884916588664,-0.0027928778436034918,0.00037425028858706355,-0.6786076426506042,0.1471865177154541,-9.87809944152832,0,0,45.5,1,1,1759,1833
74.61813200,74618132,0,0.0005160310538485646,-0.0028933354187756777,0.0009594052680768073,-0.6749699115753174,0.15076644718647003,-9.879898071289062,0,0,45.5,1,1,1759,1833
74.62040700,74620407,0,-0.0016861994517967105,-0.0026174276135861874,0.000791306491009891,-0.6728412508964539,0.15565304458141327,-9.884661674499512,0,0,45.5,1,1,1759,1833
74.62289800,74622898,0,-0.004108418244868517,-0.0011698066955432296,0.0006613769219256938,-0.6758123636245728,0.16200226545333862,-9.887804985046387,0,0,45.5,1,1,1759,1833
74.62539700,74625397,0,-0.006038369610905647,-0.0004796243738383055,0.0007265369058586657,-0.6794872283935547,0.16606251895427704,-9.888724327087402,0,0,45.5,1,1,1759,1833
74.62833200,74628332,0,-0.006860774476081133,0.00030192304984666407,0.0001471153664169833,-0.6807552576065063,0.16815072298049927,-9.884634971618652,0,0,45.5,1,1,1759,1833
74.63042300,74630423,0,-0.006761403288692236,-0.00039713719161227345,0.00018398623797111213,-0.6814178228378296,0.16735079884529114,-9.879925727844238,0,0,45.5,1,1,1759,1833
74.63289900,74632899,0,-0.005731271114200354,-0.0013244088040664792,3.80954188585747e-05,-0.6854625344276428,0.16625018417835236,-9.878927230834961,0,0,45.5,1,1,1759,1833
74.63540500,74635405,0,-0.004296151455491781,-0.002348268637433648,0.00011108440958196297,-0.6901895999908447,0.16558854281902313,-9.877800941467285,0,0,45.5,1,1,1759,1833
74.63821700,74638217,0,-0.002020039362832904,-0.002607707865536213,-0.00028435344574972987,-0.6922096610069275,0.16456234455108643,-9.873234748840332,0,0,45.5,1,1,1759,1833
74.64041700,74640417,0,-0.0002998551935888827,-0.002489253878593445,-0.0005524242296814919,-0.6906396746635437,0.16253125667572021,-9.867571830749512,0,0,45.5,1,1,1759,1833
74.64290300,74642903,0,0.002103598555549979,-0.001445295987650752,-0.0006423701997846365,-0.6891966462135315,0.16514916718006134,-9.866044044494629,0,0,45.5,1,1,1759,1833
74.64540200,74645402,0,0.00414276821538806,0.00047697711852379143,-0.0009851159993559122,-0.6878297328948975,0.1691684126853943,-9.866449356079102,0,0,45.5,1,1,1759,1833
74.64813100,74648131,0,0.0047729648649692535,0.0025247777812182903,-0.0009738315129652619,-0.685646653175354,0.171176478266716,-9.866128921508789,0,0,45.5,1,1,1759,1833
74.65044800,74650448,0,0.004592628218233585,0.00395099027082324,-0.0008551167557016015,-0.6839050650596619,0.17123450338840485,-9.866827964782715,0,0,45.5,1,1,1759,1833
74.65290600,74652906,0,0.004788934253156185,0.004486106336116791,-0.0008324532536789775,-0.6823025345802307,0.17079147696495056,-9.869097709655762,0,0,45.5,1,1,1759,1833
74.65540700,74655407,0,0.006148902233690023,0.003858134848996997,-0.001122316112741828,-0.6805546283721924,0.16941151022911072,-9.873612403869629,0,0,45.5,1,1,1759,1833
74.65815700,74658157,0,0.007288509048521519,0.002499359892681241,-0.0006227151025086641,-0.6771867275238037,0.16627009212970734,-9.879875183105469,0,0,45.5,1,1,1759,1833
74.66041100,74660411,0,0.007053015287965536,0.00237671984359622,-0.0005755856982432306,-0.6758404970169067,0.16163791716098785,-9.885201454162598,0,0,45.5,1,1,1759,1833
74.66289400,74662894,0,0.006291218101978302,0.0020252829417586327,-0.0007117080385796726,-0.6751322150230408,0.15704120695590973,-9.88734245300293,0,0,45.5,1,1,1759,1833
74.66540400,74665404,0,0.00552661856636405,0.0010692051146179438,-0.0004960283986292779,-0.6758714318275452,0.153237447142601,-9.886008262634277,0,0,45.5,1,1,1759,1833
74.66817600,74668176,0,0.004818173591047525,0.0004566159623209387,0.0005347300902940333,-0.6774163246154785,0.15237343311309814,-9.88303279876709,0,0,45.5,1,1,1759,1833
74.67042400,74670424,0,0.003902292810380459,-0.00077812559902668,0.0010625266004353762,-0.676317572593689,0.15279367566108704,-9.88075065612793,0,0,45.5,1,1,1759,1833
74.67291300,74672913,0,0.0028293486684560776,-0.0018979668384417892,0.001042594900354743,-0.6774303913116455,0.15034466981887817,-9.878649711608887,0,0,45.5,1,1,1759,1833
74.67540600,74675406,0,0.0012621472124010324,-0.0026482492685317993,0.0007941432413645089,-0.6768026947975159,0.1460477113723755,-9.879156112670898,0,0,45.5,1,1,1759,1833
74.67812300,74678123,0,-0.0009240361396223307,-0.0027472192887216806,0.0013142686802893877,-0.6754196286201477,0.14428623020648956,-9.880328178405762,0,0,45.5,1,1,1759,1833
74.68040300,74680403,0,-0.0027029879856854677,-0.0017634843243286014,0.0010309546487405896,-0.6713777184486389,0.14526475965976715,-9.881669998168945,0,0,45.5,1,1,1759,1833
74.68290300,74682903,0,-0.004516418557614088,0.0005359970964491367,0.0007923454395495355,-0.6685416102409363,0.14905160665512085,-9.884349822998047,0,0,45.5,1,1,1759,1833
74.68539200,74685392,0,-0.00551127502694726,0.0016259109834209085,0.0009603842627257109,-0.6667607426643372,0.15360070765018463,-9.88964557647705,0,0,45.5,1,1,1759,1833
74.68813000,74688130,0,-0.0063798073679208755,0.0032892883755266666,0.0013083673547953367,-0.6670444011688232,0.15715186297893524,-9.896344184875488,0,0,45.5,1,1,1759,1833
74.69041700,74690417,0,-0.007073358166962862,0.004409588407725096,0.0005414977786131203,-0.6682401299476624,0.1607193946838379,-9.901270866394043,0,0,45.5,1,1,1759,1833
74.69290000,74692900,0,-0.007806801702827215,0.004711938556283712,0.00023297726875171065,-0.6688914895057678,0.16150754690170288,-9.907118797302246,0,0,45.5,1,1,1759,1833
74.69540800,74695408,0,-0.006715455092489719,0.005493747070431709,0.0006400758866220713,-0.6682245135307312,0.1607004702091217,-9.90958023071289,0,0,45.5,1,1,1759,1833
74.69814400,74698144,0,-0.00432986905798316,0.00607310701161623,0.000997881405055523,-0.6685885787010193,0.15940412878990173,-9.906965255737305,0,0,45.5,1,1,1759,1833
74.70042200,74700422,0,-0.0020415473263710737,0.0061175222508609295,0.0010021132184192538,-0.6722490191459656,0.15959030389785767,-9.901092529296875,0,0,45.5,1,1,1759,1833
74.70291300,74702913,0,-0.0009213301236741245,0.005706016439944506,0.0006858975393697619,-0.6725839376449585,0.15923191606998444,-9.895121574401855,0,0,45.5,1,1,1759,1833
74.70540000,74705400,0,-0.0002906495938077569,0.004299176391214132,0.0006904395413585007,-0.6732913851737976,0.16029170155525208,-9.88670539855957,0,0,45.5,1,1,1759,1833
74.70814700,74708147,0,0.00015562892076559365,0.0034149647690355778,0.00041172877536155283,-0.6755353808403015,0.15958361327648163,-9.881292343139648,0,0,45.5,1,1,1759,1833
74.71062100,74710621,0,-0.0005651295650750399,0.004537532106041908,6.284489791141823e-05,-0.6722629070281982,0.15734180808067322,-9.878146171569824,0,0,45.5,1,1,1759,1833
74.71291300,74712913,0,-0.0011891789035871625,0.005494053475558758,0.0005053967470303178,-0.666290283203125,0.15407656133174896,-9.87553882598877,0,0,45.5,1,1,1759,1833
74.71540000,74715400,0,-0.0003389771154616028,0.004849976859986782,0.0008162571466527879,-0.6632084250450134,0.15085512399673462,-9.87299919128418,0,0,45.5,1,1,1759,1833
74.71819600,74718196,0,0.0015474777901545167,0.0036726961843669415,0.0004816401924472302,-0.6633460521697998,0.15129901468753815,-9.86873722076416,0,0,45.5,1,1,1759,1833
74.72040800,74720408,0,0.003174634650349617,0.002656735945492983,0.0007482868968509138,-0.6607806086540222,0.1544741988182068,-9.86392593383789,0,0,45.5,1,1,1759,1833
74.72291400,74722914,0,0.004246830940246582,0.0015201704809442163,0.0008387337438762188,-0.6607048511505127,0.1558619737625122,-9.861937522888184,0,0,45.5,1,1,1759,1833
74.72539500,74725395,0,0.004741867072880268,1.1785231436078902e-05,0.0005320097552612424,-0.6596478223800659,0.1559663563966751,-9.860011100769043,0,0,45.5,1,1,1759,1833
