timestamp,TimeUS,ACCx,TimeUS,ACCx,ACCy,ACCz
73.04109400,73041094,-0.7658994197845459,73041094,-0.7658994197845459,0.22976982593536377,-9.880102157592773
73.04156000,73041560,-0.6127195358276367,73041560,-0.6127195358276367,0.22976982593536377,-9.880102157592773
73.04206600,73042066,-0.6893094778060913,73042066,-0.6893094778060913,0.07658994197845459,-9.880102157592773
73.04262100,73042621,-0.6893094778060913,73042621,-0.6893094778060913,0.07658994197845459,-9.880102157592773
73.04307200,73043072,-0.6893094778060913,73043072,-0.6893094778060913,0.22976982593536377,-9.803512573242188
73.04356300,73043563,-0.6893094778060913,73043563,-0.6893094778060913,0.22976982593536377,-9.6503324508667
73.04406700,73044067,-0.6893094778060913,73044067,-0.6893094778060913,0.22976982593536377,-9.880102157592773
73.04456200,73044562,-0.6893094778060913,73044562,-0.6893094778060913,0.22976982593536377,-9.956692695617676
73.04511800,73045118,-0.6127195358276367,73045118,-0.6127195358276367,0.22976982593536377,-9.803512573242188
73.04557900,73045579,-0.7658994197845459,73045579,-0.7658994197845459,0.15317988395690918,-9.880102157592773
73.04606300,73046063,-0.6127195358276367,73046063,-0.6127195358276367,0.22976982593536377,-9.803512573242188
73.04657300,73046573,-0.7658994197845459,73046573,-0.7658994197845459,0.15317988395690918,-9.956692695617676
73.04706000,73047060,-0.6893094778060913,73047060,-0.6893094778060913,0.22976982593536377,-9.880102157592773
73.04762400,73047624,-0.6893094778060913,73047624,-0.6893094778060913,0.15317988395690918,-9.803512573242188
73.04806900,73048069,-0.7658994197845459,73048069,-0.7658994197845459,0.30635976791381836,-9.803512573242188
73.04856700,73048567,-0.6893094778060913,73048567,-0.6893094778060913,0.15317988395690918,-9.803512573242188
73.04906200,73049062,-0.6127195358276367,73049062,-0.6127195358276367,0.22976982593536377,-9.726922988891602
73.04956800,73049568,-0.6893094778060913,73049568,-0.6893094778060913,0.15317988395690918,-9.803512573242188
73.05011400,73050114,-0.6127195358276367,73050114,-0.6127195358276367,0.22976982593536377,-9.803512573242188
73.05057500,73050575,-0.6893094778060913,73050575,-0.6893094778060913,0.22976982593536377,-9.803512573242188
73.05106400,73051064,-0.6893094778060913,73051064,-0.6893094778060913,0.15317988395690918,-9.803512573242188
73.05157400,73051574,-0.6893094778060913,73051574,-0.6893094778060913,0.30635976791381836,-9.880102157592773
73.05206100,73052061,-0.8424893617630005,73052061,-0.8424893617630005,0.22976982593536377,-9.956692695617676
73.05266800,73052668,-0.6893094778060913,73052668,-0.6893094778060913,0.15317988395690918,-10.033282279968262
73.05268000,73052680,-0.7658994197845459,73052680,-0.7658994197845459,0.22976982593536377,-9.803512573242188
73.05354300,73053543,-0.6127195358276367,73053543,-0.6127195358276367,0.15317988395690918,-9.956692695617676
73.05408900,73054089,-0.8424893617630005,73054089,-0.8424893617630005,0.22976982593536377,-10.033282279968262
73.05456700,73054567,-0.7658994197845459,73054567,-0.7658994197845459,0.07658994197845459,-9.880102157592773
73.05512700,73055127,-0.6893094778060913,73055127,-0.6893094778060913,0.30635976791381836,-10.033282279968262
73.05513900,73055139,-0.6893094778060913,73055139,-0.6893094778060913,0.30635976791381836,-9.880102157592773
73.05557600,73055576,-0.6893094778060913,73055576,-0.6893094778060913,0.07658994197845459,-9.880102157592773
73.05660100,73056601,-0.6127195358276367,73056601,-0.6127195358276367,0.15317988395690918,-9.956692695617676
73.05661200,73056612,-0.7658994197845459,73056612,-0.7658994197845459,0.22976982593536377,-9.880102157592773
73.05706500,73057065,-0.7658994197845459,73057065,-0.7658994197845459,0.15317988395690918,-9.880102157592773
73.05762300,73057623,-0.6893094778060913,73057623,-0.6893094778060913,0.22976982593536377,-9.803512573242188
73.05806900,73058069,-0.6127195358276367,73058069,-0.6127195358276367,0.07658994197845459,-9.726922988891602
73.05854300,73058543,-0.6127195358276367,73058543,-0.6127195358276367,0.22976982593536377,-9.880102157592773
73.05907700,73059077,-0.7658994197845459,73059077,-0.7658994197845459,0.15317988395690918,-9.803512573242188
73.05956900,73059569,-0.6127195358276367,73059569,-0.6127195358276367,0.30635976791381836,-9.803512573242188
73.06011200,73060112,-0.8424893617630005,73060112,-0.8424893617630005,0.30635976791381836,-9.880102157592773
73.06057900,73060579,-0.6127195358276367,73060579,-0.6127195358276367,0.15317988395690918,-9.803512573242188
73.06103400,73061034,-0.6893094778060913,73061034,-0.6893094778060913,0.15317988395690918,-9.803512573242188
73.06158200,73061582,-0.7658994197845459,73061582,-0.7658994197845459,0.30635976791381836,-9.880102157592773
73.06206100,73062061,-0.7658994197845459,73062061,-0.7658994197845459,0.07658994197845459,-9.880102157592773
73.06261500,73062615,-0.6127195358276367,73062615,-0.6127195358276367,0.15317988395690918,-9.803512573242188
73.06306900,73063069,-0.6893094778060913,73063069,-0.6893094778060913,0.15317988395690918,-9.880102157592773
73.06353700,73063537,-0.6893094778060913,73063537,-0.6893094778060913,0.30635976791381836,-9.880102157592773
73.06407700,73064077,-0.7658994197845459,73064077,-0.7658994197845459,0.15317988395690918,-9.880102157592773
73.06457100,73064571,-0.6127195358276367,73064571,-0.6127195358276367,0.30635976791381836,-9.880102157592773
73.06512100,73065121,-0.6893094778060913,73065121,-0.6893094778060913,0.07658994197845459,-9.880102157592773
73.06557000,73065570,-0.6127195358276367,73065570,-0.6127195358276367,0.15317988395690918,-9.803512573242188
73.06604000,73066040,-0.6127195358276367,73066040,-0.6127195358276367,0.22976982593536377,-9.803512573242188
73.06658900,73066589,-0.6127195358276367,73066589,-0.6127195358276367,0.15317988395690918,-9.880102157592773
73.06706200,73067062,-0.8424893617630005,73067062,-0.8424893617630005,0.07658994197845459,-9.803512573242188
73.06762100,73067621,-0.6893094778060913,73067621,-0.6893094778060913,0.22976982593536377,-9.956692695617676
73.06808000,73068080,-0.7658994197845459,73068080,-0.7658994197845459,0.15317988395690918,-9.956692695617676
73.06853800,73068538,-0.6893094778060913,73068538,-0.6893094778060913,0.15317988395690918,-9.956692695617676
73.06907300,73069073,-0.6893094778060913,73069073,-0.6893094778060913,0.22976982593536377,-9.880102157592773
73.06956400,73069564,-0.6893094778060913,73069564,-0.6893094778060913,0.07658994197845459,-9.880102157592773
73.07012700,73070127,-0.6127195358276367,73070127,-0.6127195358276367,0.15317988395690918,-9.880102157592773
73.07054300,73070543,-0.6893094778060913,73070543,-0.6893094778060913,0.22976982593536377,-9.880102157592773
73.07106500,73071065,-0.7658994197845459,73071065,-0.7658994197845459,0.22976982593536377,-9.803512573242188
73.07157100,73071571,-0.7658994197845459,73071571,-0.7658994197845459,0.15317988395690918,-9.880102157592773
73.07206000,73072060,-0.6893094778060913,73072060,-0.6893094778060913,0.22976982593536377,-9.880102157592773
73.07264200,73072642,-0.6127195358276367,73072642,-0.6127195358276367,0.07658994197845459,-9.880102157592773
73.07265500,73072655,-0.6893094778060913,73072655,-0.6893094778060913,0.22976982593536377,-9.803512573242188
73.07356500,73073565,-0.6893094778060913,73073565,-0.6893094778060913,0.07658994197845459,-9.956692695617676
73.07406900,73074069,-0.7658994197845459,73074069,-0.7658994197845459,0.15317988395690918,-9.803512573242188
73.07456200,73074562,-0.6127195358276367,73074562,-0.6127195358276367,0.15317988395690918,-9.803512573242188
73.07514500,73075145,-0.6127195358276367,73075145,-0.6127195358276367,0.22976982593536377,-9.803512573242188
73.07515700,73075157,-0.6893094778060913,73075157,-0.6893094778060913,0.15317988395690918,-9.880102157592773
73.07607400,73076074,-0.6127195358276367,73076074,-0.6127195358276367,0.15317988395690918,-9.880102157592773
73.07608500,73076085,-0.6893094778060913,73076085,-0.6893094778060913,0.15317988395690918,-9.956692695617676
73.07657100,73076571,-0.7658994197845459,73076571,-0.7658994197845459,0.15317988395690918,-9.956692695617676
73.07706600,73077066,-0.6893094778060913,73077066,-0.6893094778060913,0.15317988395690918,-9.803512573242188
73.07763600,73077636,-0.6893094778060913,73077636,-0.6893094778060913,0.15317988395690918,-9.956692695617676
73.07805000,73078050,-0.6893094778060913,73078050,-0.6893094778060913,0.15317988395690918,-9.803512573242188
73.07856900,73078569,-0.7658994197845459,73078569,-0.7658994197845459,0.15317988395690918,-9.880102157592773
73.07906400,73079064,-0.6893094778060913,73079064,-0.6893094778060913,0.22976982593536377,-9.880102157592773
73.07956300,73079563,-0.7658994197845459,73079563,-0.7658994197845459,0.15317988395690918,-9.880102157592773
73.08011100,73080111,-0.6893094778060913,73080111,-0.6893094778060913,0.15317988395690918,-9.880102157592773
73.08057000,73080570,-0.8424893617630005,73080570,-0.8424893617630005,0.15317988395690918,-9.956692695617676
73.08107000,73081070,-0.6893094778060913,73081070,-0.6893094778060913,0.15317988395690918,-9.880102157592773
73.08156500,73081565,-0.7658994197845459,73081565,-0.7658994197845459,0.15317988395690918,-9.880102157592773
73.08206100,73082061,-0.6893094778060913,73082061,-0.6893094778060913,0.15317988395690918,-9.880102157592773
73.08262300,73082623,-0.6893094778060913,73082623,-0.6893094778060913,0.15317988395690918,-9.803512573242188
73.08309900,73083099,-0.6127195358276367,73083099,-0.6127195358276367,0.15317988395690918,-9.803512573242188
73.08356600,73083566,-0.6127195358276367,73083566,-0.6127195358276367,0.22976982593536377,-9.803512573242188
73.08406400,73084064,-0.6127195358276367,73084064,-0.6127195358276367,0.15317988395690918,-9.880102157592773
73.08457100,73084571,-0.6127195358276367,73084571,-0.6127195358276367,0.22976982593536377,-9.956692695617676
73.08511600,73085116,-0.7658994197845459,73085116,-0.7658994197845459,0.22976982593536377,-9.956692695617676
73.08557400,73085574,-0.6893094778060913,73085574,-0.6893094778060913,0.07658994197845459,-9.803512573242188
73.08606400,73086064,-0.7658994197845459,73086064,-0.7658994197845459,0.15317988395690918,-9.880102157592773
73.08657000,73086570,-0.6893094778060913,73086570,-0.6893094778060913,0.07658994197845459,-9.880102157592773
73.08706300,73087063,-0.6127195358276367,73087063,-0.6127195358276367,0.22976982593536377,-9.956692695617676
73.08762400,73087624,-0.6893094778060913,73087624,-0.6893094778060913,0.22976982593536377,-9.726922988891602
73.08806700,73088067,-0.6127195358276367,73088067,-0.6127195358276367,0.30635976791381836,-9.803512573242188
73.08856800,73088568,-0.5361295938491821,73088568,-0.5361295938491821,0.15317988395690918,-9.803512573242188
73.08906200,73089062,-0.6893094778060913,73089062,-0.6893094778060913,0.30635976791381836,-9.880102157592773
73.08956300,73089563,-0.6893094778060913,73089563,-0.6893094778060913,0.15317988395690918,-9.726922988891602
73.09011100,73090111,-0.6127195358276367,73090111,-0.6127195358276367,0.30635976791381836,-9.956692695617676
73.09057200,73090572,-0.6893094778060913,73090572,-0.6893094778060913,0.22976982593536377,-9.803512573242188
73.09107200,73091072,-0.7658994197845459,73091072,-0.7658994197845459,0.15317988395690918,-9.803512573242188
73.09157400,73091574,-0.6893094778060913,73091574,-0.6893094778060913,0.22976982593536377,-9.726922988891602
73.09206100,73092061,-0.6127195358276367,73092061,-0.6127195358276367,0.07658994197845459,-9.880102157592773
73.09262500,73092625,-0.7658994197845459,73092625,-0.7658994197845459,0.22976982593536377,-9.956692695617676
73.09307200,73093072,-0.6893094778060913,73093072,-0.6893094778060913,0.15317988395690918,-9.803512573242188
73.09356700,73093567,-0.6893094778060913,73093567,-0.6893094778060913,0.15317988395690918,-9.803512573242188
73.09406500,73094065,-0.6893094778060913,73094065,-0.6893094778060913,0.22976982593536377,-9.880102157592773
73.09457400,73094574,-0.6893094778060913,73094574,-0.6893094778060913,0.22976982593536377,-9.956692695617676
73.09512300,73095123,-0.6893094778060913,73095123,-0.6893094778060913,0.22976982593536377,-9.956692695617676
73.09513500,73095135,-0.6893094778060913,73095135,-0.6893094778060913,0.22976982593536377,-9.880102157592773
73.09556900,73095569,-0.6893094778060913,73095569,-0.6893094778060913,0.15317988395690918,-9.803512573242188
73.09606500,73096065,-0.6893094778060913,73096065,-0.6893094778060913,0.15317988395690918,-9.726922988891602
73.09656700,73096567,-0.6893094778060913,73096567,-0.6893094778060913,0.22976982593536377,-9.726922988891602
73.09706300,73097063,-0.6893094778060913,73097063,-0.6893094778060913,0.30635976791381836,-9.880102157592773
73.09763300,73097633,-0.6127195358276367,73097633,-0.6127195358276367,0.15317988395690918,-9.880102157592773
73.09806900,73098069,-0.7658994197845459,73098069,-0.7658994197845459,0.15317988395690918,-9.956692695617676
73.09857100,73098571,-0.6893094778060913,73098571,-0.6893094778060913,0.22976982593536377,-9.726922988891602
73.09906200,73099062,-0.6893094778060913,73099062,-0.6893094778060913,0.15317988395690918,-9.726922988891602
73.09957300,73099573,-0.6893094778060913,73099573,-0.6893094778060913,0.15317988395690918,-9.726922988891602
73.10011100,73100111,-0.6893094778060913,73100111,-0.6893094778060913,0.15317988395690918,-9.956692695617676
73.10057900,73100579,-0.6127195358276367,73100579,-0.6127195358276367,0.07658994197845459,-9.956692695617676
73.10107500,73101075,-0.5361295938491821,73101075,-0.5361295938491821,0.07658994197845459,-9.880102157592773
73.10157000,73101570,-0.6893094778060913,73101570,-0.6893094778060913,0.22976982593536377,-9.880102157592773
73.10206300,73102063,-0.6893094778060913,73102063,-0.6893094778060913,0.22976982593536377,-9.880102157592773
73.10262100,73102621,-0.6893094778060913,73102621,-0.6893094778060913,0.15317988395690918,-9.880102157592773
73.10307000,73103070,-0.6893094778060913,73103070,-0.6893094778060913,0.22976982593536377,-9.803512573242188
73.10356700,73103567,-0.7658994197845459,73103567,-0.7658994197845459,0.15317988395690918,-9.956692695617676
73.10406300,73104063,-0.6893094778060913,73104063,-0.6893094778060913,0.30635976791381836,-9.880102157592773
73.10456500,73104565,-0.6127195358276367,73104565,-0.6127195358276367,0.15317988395690918,-9.880102157592773
73.10511600,73105116,-0.6893094778060913,73105116,-0.6893094778060913,0.30635976791381836,-9.956692695617676
73.10557800,73105578,-0.6893094778060913,73105578,-0.6893094778060913,0.22976982593536377,-9.956692695617676
73.10606800,73106068,-0.6127195358276367,73106068,-0.6127195358276367,0.22976982593536377,-9.880102157592773
73.10656900,73106569,-0.6127195358276367,73106569,-0.6127195358276367,0.22976982593536377,-9.880102157592773
73.10706500,73107065,-0.6893094778060913,73107065,-0.6893094778060913,0.15317988395690918,-9.956692695617676
73.10761900,73107619,-0.7658994197845459,73107619,-0.7658994197845459,0.30635976791381836,-9.880102157592773
73.10807200,73108072,-0.7658994197845459,73108072,-0.7658994197845459,0.07658994197845459,-9.956692695617676
73.10856700,73108567,-0.7658994197845459,73108567,-0.7658994197845459,0.0,-9.880102157592773
73.10906300,73109063,-0.6893094778060913,73109063,-0.6893094778060913,0.22976982593536377,-9.880102157592773
73.10956300,73109563,-0.6127195358276367,73109563,-0.6127195358276367,0.22976982593536377,-9.726922988891602
73.11011000,73110110,-0.6893094778060913,73110110,-0.6893094778060913,0.30635976791381836,-9.803512573242188
73.11057100,73110571,-0.6127195358276367,73110571,-0.6127195358276367,0.22976982593536377,-9.803512573242188
73.11107700,73111077,-0.7658994197845459,73111077,-0.7658994197845459,0.15317988395690918,-9.880102157592773
73.11156100,73111561,-0.6893094778060913,73111561,-0.6893094778060913,0.30635976791381836,-9.803512573242188
73.11206500,73112065,-0.7658994197845459,73112065,-0.7658994197845459,0.22976982593536377,-9.803512573242188
73.11261000,73112610,-0.7658994197845459,73112610,-0.7658994197845459,0.22976982593536377,-9.880102157592773
73.11306600,73113066,-0.6893094778060913,73113066,-0.6893094778060913,0.22976982593536377,-9.956692695617676
73.11356400,73113564,-0.7658994197845459,73113564,-0.7658994197845459,0.15317988395690918,-9.880102157592773
73.11406800,73114068,-0.6893094778060913,73114068,-0.6893094778060913,0.22976982593536377,-9.956692695617676
73.11455900,73114559,-0.6127195358276367,73114559,-0.6127195358276367,0.22976982593536377,-9.726922988891602
73.11512300,73115123,-0.6127195358276367,73115123,-0.6127195358276367,0.15317988395690918,-9.803512573242188
73.11513500,73115135,-0.6127195358276367,73115135,-0.6127195358276367,0.15317988395690918,-9.880102157592773
73.11556900,73115569,-0.6893094778060913,73115569,-0.6893094778060913,0.15317988395690918,-9.880102157592773
73.11606400,73116064,-0.6893094778060913,73116064,-0.6893094778060913,0.07658994197845459,-9.726922988891602
73.11656200,73116562,-0.6893094778060913,73116562,-0.6893094778060913,0.22976982593536377,-9.803512573242188
73.11706200,73117062,-0.6893094778060913,73117062,-0.6893094778060913,0.15317988395690918,-9.880102157592773
73.11762000,73117620,-0.6893094778060913,73117620,-0.6893094778060913,0.30635976791381836,-9.803512573242188
73.11807100,73118071,-0.6127195358276367,73118071,-0.6127195358276367,0.22976982593536377,-9.880102157592773
73.11857600,73118576,-0.6893094778060913,73118576,-0.6893094778060913,0.22976982593536377,-9.880102157592773
73.11906200,73119062,-0.6893094778060913,73119062,-0.6893094778060913,0.30635976791381836,-9.726922988891602
73.11957100,73119571,-0.6127195358276367,73119571,-0.6127195358276367,0.15317988395690918,-9.803512573242188
73.12011200,73120112,-0.5361295938491821,73120112,-0.5361295938491821,0.07658994197845459,-9.803512573242188
73.12057200,73120572,-0.6127195358276367,73120572,-0.6127195358276367,0.15317988395690918,-9.803512573242188
73.12107500,73121075,-0.6893094778060913,73121075,-0.6893094778060913,0.07658994197845459,-9.726922988891602
73.12156600,73121566,-0.7658994197845459,73121566,-0.7658994197845459,0.30635976791381836,-9.956692695617676
73.12206100,73122061,-0.8424893617630005,73122061,-0.8424893617630005,0.22976982593536377,-9.956692695617676
73.12261900,73122619,-0.6893094778060913,73122619,-0.6893094778060913,0.22976982593536377,-9.726922988891602
73.12307100,73123071,-0.6893094778060913,73123071,-0.6893094778060913,0.22976982593536377,-9.880102157592773
73.12356300,73123563,-0.7658994197845459,73123563,-0.7658994197845459,0.15317988395690918,-9.726922988891602
73.12406700,73124067,-0.6893094778060913,73124067,-0.6893094778060913,0.07658994197845459,-9.803512573242188
73.12456700,73124567,-0.7658994197845459,73124567,-0.7658994197845459,0.22976982593536377,-9.956692695617676
73.12511900,73125119,-0.6893094778060913,73125119,-0.6893094778060913,0.15317988395690918,-9.880102157592773
73.12556900,73125569,-0.6893094778060913,73125569,-0.6893094778060913,0.07658994197845459,-9.880102157592773
73.12606600,73126066,-0.6127195358276367,73126066,-0.6127195358276367,0.15317988395690918,-9.803512573242188
73.12657200,73126572,-0.8424893617630005,73126572,-0.8424893617630005,0.22976982593536377,-9.726922988891602
73.12706600,73127066,-0.7658994197845459,73127066,-0.7658994197845459,0.22976982593536377,-9.803512573242188
73.12761700,73127617,-0.6893094778060913,73127617,-0.6893094778060913,0.15317988395690918,-9.956692695617676
73.12807300,73128073,-0.6893094778060913,73128073,-0.6893094778060913,0.15317988395690918,-9.880102157592773
73.12856700,73128567,-0.6893094778060913,73128567,-0.6893094778060913,0.22976982593536377,-9.880102157592773
73.12906300,73129063,-0.6127195358276367,73129063,-0.6127195358276367,0.15317988395690918,-9.726922988891602
73.12956400,73129564,-0.6893094778060913,73129564,-0.6893094778060913,0.22976982593536377,-9.803512573242188
73.13011000,73130110,-0.7658994197845459,73130110,-0.7658994197845459,0.22976982593536377,-9.880102157592773
73.13057200,73130572,-0.6893094778060913,73130572,-0.6893094778060913,0.15317988395690918,-9.803512573242188
73.13107400,73131074,-0.6893094778060913,73131074,-0.6893094778060913,0.15317988395690918,-9.880102157592773
73.13157400,73131574,-0.7658994197845459,73131574,-0.7658994197845459,0.22976982593536377,-9.880102157592773
73.13206000,73132060,-0.6893094778060913,73132060,-0.6893094778060913,0.15317988395690918,-9.880102157592773
73.13262900,73132629,-0.6893094778060913,73132629,-0.6893094778060913,0.07658994197845459,-9.880102157592773
73.13264100,73132641,-0.6893094778060913,73132641,-0.6893094778060913,0.15317988395690918,-9.880102157592773
73.13356800,73133568,-0.6893094778060913,73133568,-0.6893094778060913,0.15317988395690918,-9.726922988891602
73.13407300,73134073,-0.6893094778060913,73134073,-0.6893094778060913,0.22976982593536377,-9.880102157592773
73.13457200,73134572,-0.7658994197845459,73134572,-0.7658994197845459,0.22976982593536377,-9.880102157592773
73.13458500,73134585,-0.6893094778060913,73134585,-0.6893094778060913,0.15317988395690918,-9.803512573242188
73.13512300,73135123,-0.7658994197845459,73135123,-0.7658994197845459,0.22976982593536377,-9.956692695617676
73.13560500,73135605,-0.6893094778060913,73135605,-0.6893094778060913,0.22976982593536377,-9.956692695617676
73.13606800,73136068,-0.6127195358276367,73136068,-0.6127195358276367,0.15317988395690918,-9.880102157592773
73.13656300,73136563,-0.6893094778060913,73136563,-0.6893094778060913,0.38294970989227295,-9.880102157592773
73.13706400,73137064,-0.6127195358276367,73137064,-0.6127195358276367,0.15317988395690918,-9.803512573242188
73.13761000,73137610,-0.6893094778060913,73137610,-0.6893094778060913,0.22976982593536377,-9.803512573242188
73.13807600,73138076,-0.6893094778060913,73138076,-0.6893094778060913,0.07658994197845459,-9.803512573242188
73.13856600,73138566,-0.7658994197845459,73138566,-0.7658994197845459,0.22976982593536377,-9.956692695617676
73.13906300,73139063,-0.6127195358276367,73139063,-0.6127195358276367,0.07658994197845459,-9.726922988891602
73.13956800,73139568,-0.6893094778060913,73139568,-0.6893094778060913,0.22976982593536377,-9.803512573242188
73.14011000,73140110,-0.7658994197845459,73140110,-0.7658994197845459,0.22976982593536377,-9.880102157592773
73.14057000,73140570,-0.6893094778060913,73140570,-0.6893094778060913,0.15317988395690918,-10.033282279968262
73.14107200,73141072,-0.6893094778060913,73141072,-0.6893094778060913,0.15317988395690918,-9.803512573242188
73.14156200,73141562,-0.6893094778060913,73141562,-0.6893094778060913,0.15317988395690918,-9.880102157592773
73.14206200,73142062,-0.6127195358276367,73142062,-0.6127195358276367,0.22976982593536377,-9.726922988891602
73.14261300,73142613,-0.6893094778060913,73142613,-0.6893094778060913,0.15317988395690918,-9.956692695617676
73.14306700,73143067,-0.6127195358276367,73143067,-0.6127195358276367,0.15317988395690918,-9.880102157592773
73.14356500,73143565,-0.6893094778060913,73143565,-0.6893094778060913,0.15317988395690918,-9.880102157592773
73.14406400,73144064,-0.6127195358276367,73144064,-0.6127195358276367,0.22976982593536377,-9.803512573242188
73.14456200,73144562,-0.7658994197845459,73144562,-0.7658994197845459,0.15317988395690918,-9.956692695617676
73.14511700,73145117,-0.6893094778060913,73145117,-0.6893094778060913,0.15317988395690918,-9.956692695617676
73.14557600,73145576,-0.6893094778060913,73145576,-0.6893094778060913,0.30635976791381836,-9.880102157592773
73.14606500,73146065,-0.6893094778060913,73146065,-0.6893094778060913,0.22976982593536377,-9.880102157592773
73.14657000,73146570,-0.7658994197845459,73146570,-0.7658994197845459,0.07658994197845459,-9.803512573242188
73.14706600,73147066,-0.6893094778060913,73147066,-0.6893094778060913,0.22976982593536377,-9.803512573242188
73.14761700,73147617,-0.6893094778060913,73147617,-0.6893094778060913,0.07658994197845459,-9.880102157592773
73.14807100,73148071,-0.6127195358276367,73148071,-0.6127195358276367,0.22976982593536377,-9.956692695617676
73.14856700,73148567,-0.6893094778060913,73148567,-0.6893094778060913,0.07658994197845459,-9.803512573242188
73.14906000,73149060,-0.6893094778060913,73149060,-0.6893094778060913,0.22976982593536377,-9.803512573242188
73.14956300,73149563,-0.6893094778060913,73149563,-0.6893094778060913,0.30635976791381836,-9.803512573242188
73.15011300,73150113,-0.7658994197845459,73150113,-0.7658994197845459,0.07658994197845459,-9.880102157592773
73.15057100,73150571,-0.6893094778060913,73150571,-0.6893094778060913,0.15317988395690918,-9.803512573242188
73.15107500,73151075,-0.6893094778060913,73151075,-0.6893094778060913,0.15317988395690918,-9.803512573242188
73.15157400,73151574,-0.7658994197845459,73151574,-0.7658994197845459,0.22976982593536377,-10.033282279968262
73.15206500,73152065,-0.6127195358276367,73152065,-0.6127195358276367,0.07658994197845459,-9.880102157592773
73.15262600,73152626,-0.6893094778060913,73152626,-0.6893094778060913,0.22976982593536377,-9.880102157592773
73.15263800,73152638,-0.6893094778060913,73152638,-0.6893094778060913,0.15317988395690918,-9.803512573242188
73.15356400,73153564,-0.6893094778060913,73153564,-0.6893094778060913,0.07658994197845459,-9.880102157592773
73.15406500,73154065,-0.6893094778060913,73154065,-0.6893094778060913,0.15317988395690918,-9.880102157592773
73.15457000,73154570,-0.6893094778060913,73154570,-0.6893094778060913,0.15317988395690918,-9.880102157592773
73.15458100,73154581,-0.6127195358276367,73154581,-0.6127195358276367,0.22976982593536377,-9.803512573242188
73.15512600,73155126,-0.7658994197845459,73155126,-0.7658994197845459,0.22976982593536377,-9.880102157592773
73.15557500,73155575,-0.6127195358276367,73155575,-0.6127195358276367,0.15317988395690918,-9.803512573242188
73.15607200,73156072,-0.6127195358276367,73156072,-0.6127195358276367,0.15317988395690918,-9.803512573242188
73.15657700,73156577,-0.6893094778060913,73156577,-0.6893094778060913,0.15317988395690918,-9.803512573242188
73.15706800,73157068,-0.7658994197845459,73157068,-0.7658994197845459,0.07658994197845459,-9.880102157592773
73.15761900,73157619,-0.7658994197845459,73157619,-0.7658994197845459,0.15317988395690918,-9.880102157592773
73.15807500,73158075,-0.7658994197845459,73158075,-0.7658994197845459,0.07658994197845459,-9.956692695617676
73.15856600,73158566,-0.7658994197845459,73158566,-0.7658994197845459,0.15317988395690918,-9.880102157592773
73.15906200,73159062,-0.7658994197845459,73159062,-0.7658994197845459,0.15317988395690918,-9.880102157592773
73.15956300,73159563,-0.8424893617630005,73159563,-0.8424893617630005,0.22976982593536377,-9.880102157592773
73.16011000,73160110,-0.6127195358276367,73160110,-0.6127195358276367,0.22976982593536377,-9.803512573242188
73.16056900,73160569,-0.6893094778060913,73160569,-0.6893094778060913,0.22976982593536377,-9.803512573242188
73.16107300,73161073,-0.7658994197845459,73161073,-0.7658994197845459,0.30635976791381836,-9.956692695617676
73.16156200,73161562,-0.6893094778060913,73161562,-0.6893094778060913,0.07658994197845459,-9.726922988891602
73.16206200,73162062,-0.7658994197845459,73162062,-0.7658994197845459,0.22976982593536377,-9.880102157592773
73.16261700,73162617,-0.7658994197845459,73162617,-0.7658994197845459,0.15317988395690918,-9.880102157592773
73.16306800,73163068,-0.6893094778060913,73163068,-0.6893094778060913,0.15317988395690918,-9.803512573242188
73.16356600,73163566,-0.6893094778060913,73163566,-0.6893094778060913,0.15317988395690918,-9.726922988891602
73.16406200,73164062,-0.6893094778060913,73164062,-0.6893094778060913,0.07658994197845459,-9.6503324508667
73.16456300,73164563,-0.7658994197845459,73164563,-0.7658994197845459,0.30635976791381836,-9.880102157592773
73.16511800,73165118,-0.6893094778060913,73165118,-0.6893094778060913,0.15317988395690918,-9.880102157592773
73.16557700,73165577,-0.6127195358276367,73165577,-0.6127195358276367,0.22976982593536377,-9.956692695617676
73.16606600,73166066,-0.6893094778060913,73166066,-0.6893094778060913,0.07658994197845459,-9.956692695617676
73.16657000,73166570,-0.7658994197845459,73166570,-0.7658994197845459,0.15317988395690918,-9.956692695617676
73.16706400,73167064,-0.7658994197845459,73167064,-0.7658994197845459,0.30635976791381836,-9.880102157592773
73.16762300,73167623,-0.6893094778060913,73167623,-0.6893094778060913,0.15317988395690918,-9.880102157592773
73.16807400,73168074,-0.7658994197845459,73168074,-0.7658994197845459,0.15317988395690918,-9.803512573242188
73.16856400,73168564,-0.6893094778060913,73168564,-0.6893094778060913,0.22976982593536377,-9.880102157592773
73.16906800,73169068,-0.7658994197845459,73169068,-0.7658994197845459,0.30635976791381836,-9.803512573242188
73.16956300,73169563,-0.7658994197845459,73169563,-0.7658994197845459,0.30635976791381836,-9.726922988891602
73.17011500,73170115,-0.6127195358276367,73170115,-0.6127195358276367,0.07658994197845459,-9.880102157592773
73.17057000,73170570,-0.6127195358276367,73170570,-0.6127195358276367,0.15317988395690918,-9.803512573242188
73.17107600,73171076,-0.6893094778060913,73171076,-0.6893094778060913,0.22976982593536377,-9.956692695617676
73.17156800,73171568,-0.8424893617630005,73171568,-0.8424893617630005,0.30635976791381836,-9.956692695617676
73.17206700,73172067,-0.8424893617630005,73172067,-0.8424893617630005,0.22976982593536377,-9.880102157592773
73.17262600,73172626,-0.6127195358276367,73172626,-0.6127195358276367,0.07658994197845459,-9.803512573242188
73.17263800,73172638,-0.6893094778060913,73172638,-0.6893094778060913,0.15317988395690918,-10.033282279968262
73.17356200,73173562,-0.7658994197845459,73173562,-0.7658994197845459,0.22976982593536377,-9.956692695617676
73.17406800,73174068,-0.6127195358276367,73174068,-0.6127195358276367,0.30635976791381836,-9.803512573242188
73.17456800,73174568,-0.6893094778060913,73174568,-0.6893094778060913,0.22976982593536377,-9.803512573242188
73.17457900,73174579,-0.6893094778060913,73174579,-0.6893094778060913,0.15317988395690918,-9.880102157592773
73.17511700,73175117,-0.7658994197845459,73175117,-0.7658994197845459,0.22976982593536377,-9.956692695617676
73.17556900,73175569,-0.6893094778060913,73175569,-0.6893094778060913,0.22976982593536377,-9.956692695617676
73.17606400,73176064,-0.6893094778060913,73176064,-0.6893094778060913,0.22976982593536377,-9.803512573242188
73.17656300,73176563,-0.6127195358276367,73176563,-0.6127195358276367,0.15317988395690918,-9.880102157592773
73.17706500,73177065,-0.6893094778060913,73177065,-0.6893094778060913,0.15317988395690918,-9.880102157592773
73.17761200,73177612,-0.7658994197845459,73177612,-0.7658994197845459,0.38294970989227295,-9.880102157592773
73.17807500,73178075,-0.7658994197845459,73178075,-0.7658994197845459,0.30635976791381836,-9.956692695617676
73.17856800,73178568,-0.6127195358276367,73178568,-0.6127195358276367,0.15317988395690918,-9.880102157592773
73.17906100,73179061,-0.7658994197845459,73179061,-0.7658994197845459,0.15317988395690918,-9.880102157592773
73.17956500,73179565,-0.6893094778060913,73179565,-0.6893094778060913,0.15317988395690918,-9.880102157592773
73.18011200,73180112,-0.6127195358276367,73180112,-0.6127195358276367,0.15317988395690918,-9.803512573242188
73.18057400,73180574,-0.6893094778060913,73180574,-0.6893094778060913,0.15317988395690918,-9.803512573242188
73.18107200,73181072,-0.6893094778060913,73181072,-0.6893094778060913,0.22976982593536377,-9.956692695617676
73.18157100,73181571,-0.6127195358276367,73181571,-0.6127195358276367,0.22976982593536377,-9.803512573242188
73.18206100,73182061,-0.6127195358276367,73182061,-0.6127195358276367,0.30635976791381836,-9.956692695617676
73.18262000,73182620,-0.7658994197845459,73182620,-0.7658994197845459,0.22976982593536377,-9.803512573242188
73.18307000,73183070,-0.6893094778060913,73183070,-0.6893094778060913,0.07658994197845459,-9.880102157592773
73.18356200,73183562,-0.6127195358276367,73183562,-0.6127195358276367,0.07658994197845459,-9.880102157592773
73.18406100,73184061,-0.6893094778060913,73184061,-0.6893094778060913,0.15317988395690918,-9.880102157592773
73.18457400,73184574,-0.6893094778060913,73184574,-0.6893094778060913,0.22976982593536377,-9.956692695617676
73.18511300,73185113,-0.6893094778060913,73185113,-0.6893094778060913,0.15317988395690918,-9.956692695617676
73.18557200,73185572,-0.6893094778060913,73185572,-0.6893094778060913,0.22976982593536377,-9.726922988891602
73.18606400,73186064,-0.7658994197845459,73186064,-0.7658994197845459,0.15317988395690918,-9.880102157592773
73.18656900,73186569,-0.6893094778060913,73186569,-0.6893094778060913,0.15317988395690918,-9.880102157592773
73.18706300,73187063,-0.6893094778060913,73187063,-0.6893094778060913,0.22976982593536377,-9.880102157592773
73.18761600,73187616,-0.7658994197845459,73187616,-0.7658994197845459,0.15317988395690918,-9.803512573242188
73.18807000,73188070,-0.6127195358276367,73188070,-0.6127195358276367,0.0,-9.803512573242188
73.18859600,73188596,-0.5361295938491821,73188596,-0.5361295938491821,0.22976982593536377,-9.880102157592773
73.18906200,73189062,-0.7658994197845459,73189062,-0.7658994197845459,0.15317988395690918,-9.880102157592773
73.18956500,73189565,-0.7658994197845459,73189565,-0.7658994197845459,0.15317988395690918,-9.803512573242188
73.19011600,73190116,-0.7658994197845459,73190116,-0.7658994197845459,0.30635976791381836,-9.956692695617676
73.19056800,73190568,-0.6893094778060913,73190568,-0.6893094778060913,0.07658994197845459,-9.803512573242188
73.19107200,73191072,-0.6893094778060913,73191072,-0.6893094778060913,0.15317988395690918,-9.880102157592773
73.19156600,73191566,-0.6127195358276367,73191566,-0.6127195358276367,0.15317988395690918,-9.803512573242188
73.19206200,73192062,-0.7658994197845459,73192062,-0.7658994197845459,0.22976982593536377,-9.880102157592773
73.19262900,73192629,-0.7658994197845459,73192629,-0.7658994197845459,0.15317988395690918,-9.956692695617676
73.19264100,73192641,-0.6893094778060913,73192641,-0.6893094778060913,0.22976982593536377,-9.880102157592773
73.19356200,73193562,-0.5361295938491821,73193562,-0.5361295938491821,0.22976982593536377,-9.880102157592773
73.19406400,73194064,-0.6127195358276367,73194064,-0.6127195358276367,0.22976982593536377,-9.880102157592773
73.19457100,73194571,-0.6893094778060913,73194571,-0.6893094778060913,0.22976982593536377,-9.956692695617676
73.19458200,73194582,-0.6893094778060913,73194582,-0.6893094778060913,0.15317988395690918,-9.956692695617676
73.19512000,73195120,-0.6127195358276367,73195120,-0.6127195358276367,0.22976982593536377,-9.803512573242188
73.19557900,73195579,-0.6893094778060913,73195579,-0.6893094778060913,0.22976982593536377,-9.726922988891602
73.19607000,73196070,-0.6127195358276367,73196070,-0.6127195358276367,0.22976982593536377,-9.956692695617676
73.19657500,73196575,-0.7658994197845459,73196575,-0.7658994197845459,0.22976982593536377,-9.880102157592773
73.19707200,73197072,-0.6893094778060913,73197072,-0.6893094778060913,0.22976982593536377,-9.803512573242188
73.19761900,73197619,-0.6893094778060913,73197619,-0.6893094778060913,0.22976982593536377,-9.880102157592773
73.19807400,73198074,-0.7658994197845459,73198074,-0.7658994197845459,0.15317988395690918,-9.880102157592773
73.19856800,73198568,-0.6127195358276367,73198568,-0.6127195358276367,0.07658994197845459,-9.803512573242188
73.19906500,73199065,-0.6127195358276367,73199065,-0.6127195358276367,0.15317988395690918,-9.726922988891602
73.19956400,73199564,-0.7658994197845459,73199564,-0.7658994197845459,0.22976982593536377,-9.803512573242188
73.20011200,73200112,-0.6893094778060913,73200112,-0.6893094778060913,0.22976982593536377,-9.880102157592773
73.20056900,73200569,-0.7658994197845459,73200569,-0.7658994197845459,0.15317988395690918,-9.880102157592773
73.20107600,73201076,-0.7658994197845459,73201076,-0.7658994197845459,0.15317988395690918,-9.956692695617676
73.20156600,73201566,-0.6893094778060913,73201566,-0.6893094778060913,0.15317988395690918,-9.880102157592773
73.20206300,73202063,-0.8424893617630005,73202063,-0.8424893617630005,0.22976982593536377,-9.956692695617676
73.20262200,73202622,-0.7658994197845459,73202622,-0.7658994197845459,0.22976982593536377,-9.803512573242188
73.20306900,73203069,-0.6893094778060913,73203069,-0.6893094778060913,0.22976982593536377,-9.956692695617676
73.20356400,73203564,-0.6893094778060913,73203564,-0.6893094778060913,0.22976982593536377,-9.880102157592773
73.20406400,73204064,-0.6893094778060913,73204064,-0.6893094778060913,0.0,-9.803512573242188
73.20457000,73204570,-0.6893094778060913,73204570,-0.6893094778060913,0.22976982593536377,-9.880102157592773
73.20511200,73205112,-0.6893094778060913,73205112,-0.6893094778060913,0.30635976791381836,-9.956692695617676
73.20557000,73205570,-0.7658994197845459,73205570,-0.7658994197845459,0.15317988395690918,-9.880102157592773
73.20606700,73206067,-0.7658994197845459,73206067,-0.7658994197845459,0.30635976791381836,-9.880102157592773
73.20656500,73206565,-0.6127195358276367,73206565,-0.6127195358276367,0.15317988395690918,-9.880102157592773
73.20706400,73207064,-0.6893094778060913,73207064,-0.6893094778060913,0.15317988395690918,-9.803512573242188
73.20761400,73207614,-0.6893094778060913,73207614,-0.6893094778060913,0.15317988395690918,-9.803512573242188
73.20807000,73208070,-0.6893094778060913,73208070,-0.6893094778060913,0.30635976791381836,-9.803512573242188
73.20856700,73208567,-0.6893094778060913,73208567,-0.6893094778060913,0.22976982593536377,-9.880102157592773
73.20906100,73209061,-0.7658994197845459,73209061,-0.7658994197845459,0.30635976791381836,-9.880102157592773
73.20956400,73209564,-0.6127195358276367,73209564,-0.6127195358276367,0.15317988395690918,-9.880102157592773
73.21011200,73210112,-0.6893094778060913,73210112,-0.6893094778060913,0.15317988395690918,-9.880102157592773
73.21056800,73210568,-0.7658994197845459,73210568,-0.7658994197845459,0.22976982593536377,-9.956692695617676
73.21107900,73211079,-0.7658994197845459,73211079,-0.7658994197845459,0.30635976791381836,-9.803512573242188
73.21156400,73211564,-0.6893094778060913,73211564,-0.6893094778060913,0.15317988395690918,-9.803512573242188
73.21206300,73212063,-0.6893094778060913,73212063,-0.6893094778060913,0.22976982593536377,-9.880102157592773
73.21261600,73212616,-0.7658994197845459,73212616,-0.7658994197845459,0.22976982593536377,-9.803512573242188
73.21262700,73212627,-0.7658994197845459,73212627,-0.7658994197845459,0.22976982593536377,-9.726922988891602
73.21356200,73213562,-0.6893094778060913,73213562,-0.6893094778060913,0.15317988395690918,-9.880102157592773
73.21407000,73214070,-0.6893094778060913,73214070,-0.6893094778060913,0.22976982593536377,-9.956692695617676
73.21408100,73214081,-0.6127195358276367,73214081,-0.6127195358276367,0.07658994197845459,-9.880102157592773
73.21456200,73214562,-0.6893094778060913,73214562,-0.6893094778060913,0.15317988395690918,-9.880102157592773
73.21511900,73215119,-0.6893094778060913,73215119,-0.6893094778060913,0.22976982593536377,-9.726922988891602
73.21557100,73215571,-0.6127195358276367,73215571,-0.6127195358276367,0.15317988395690918,-9.956692695617676
73.21606600,73216066,-0.6127195358276367,73216066,-0.6127195358276367,0.22976982593536377,-9.803512573242188
73.21656400,73216564,-0.6127195358276367,73216564,-0.6127195358276367,0.15317988395690918,-9.726922988891602
73.21706300,73217063,-0.6893094778060913,73217063,-0.6893094778060913,0.22976982593536377,-9.880102157592773
73.21761900,73217619,-0.7658994197845459,73217619,-0.7658994197845459,0.15317988395690918,-9.880102157592773
73.21807800,73218078,-0.6893094778060913,73218078,-0.6893094778060913,0.30635976791381836,-9.880102157592773
73.21856500,73218565,-0.6127195358276367,73218565,-0.6127195358276367,0.15317988395690918,-9.803512573242188
73.21906000,73219060,-0.7658994197845459,73219060,-0.7658994197845459,0.22976982593536377,-9.956692695617676
73.21956700,73219567,-0.6893094778060913,73219567,-0.6893094778060913,0.15317988395690918,-9.803512573242188
73.22011400,73220114,-0.7658994197845459,73220114,-0.7658994197845459,0.15317988395690918,-9.880102157592773
73.22056900,73220569,-0.7658994197845459,73220569,-0.7658994197845459,0.22976982593536377,-9.803512573242188
73.22107500,73221075,-0.6893094778060913,73221075,-0.6893094778060913,0.15317988395690918,-9.880102157592773
73.22157200,73221572,-0.6893094778060913,73221572,-0.6893094778060913,0.15317988395690918,-9.880102157592773
73.22206200,73222062,-0.6893094778060913,73222062,-0.6893094778060913,0.15317988395690918,-9.803512573242188
73.22262000,73222620,-0.6893094778060913,73222620,-0.6893094778060913,0.15317988395690918,-9.956692695617676
73.22306700,73223067,-0.7658994197845459,73223067,-0.7658994197845459,0.22976982593536377,-9.880102157592773
73.22356200,73223562,-0.6893094778060913,73223562,-0.6893094778060913,0.15317988395690918,-9.956692695617676
73.22403700,73224037,-0.6893094778060913,73224037,-0.6893094778060913,0.15317988395690918,-9.880102157592773
73.22457600,73224576,-0.6127195358276367,73224576,-0.6127195358276367,0.15317988395690918,-9.726922988891602
73.22511200,73225112,-0.7658994197845459,73225112,-0.7658994197845459,0.15317988395690918,-9.880102157592773
73.22557100,73225571,-0.6893094778060913,73225571,-0.6893094778060913,0.30635976791381836,-9.880102157592773
73.22606400,73226064,-0.6127195358276367,73226064,-0.6127195358276367,0.22976982593536377,-9.803512573242188
73.22654700,73226547,-0.5361295938491821,73226547,-0.5361295938491821,0.07658994197845459,-9.880102157592773
73.22707700,73227077,-0.6127195358276367,73227077,-0.6127195358276367,0.07658994197845459,-9.803512573242188
73.22762100,73227621,-0.8424893617630005,73227621,-0.8424893617630005,0.15317988395690918,-9.956692695617676
73.22806800,73228068,-0.6893094778060913,73228068,-0.6893094778060913,0.22976982593536377,-9.880102157592773
73.22856700,73228567,-0.6893094778060913,73228567,-0.6893094778060913,0.22976982593536377,-9.956692695617676
73.22903800,73229038,-0.6127195358276367,73229038,-0.6127195358276367,0.22976982593536377,-9.803512573242188
73.22957800,73229578,-0.6127195358276367,73229578,-0.6127195358276367,0.15317988395690918,-10.033282279968262
73.23010900,73230109,-0.6893094778060913,73230109,-0.6893094778060913,0.07658994197845459,-9.880102157592773
73.23057500,73230575,-0.6893094778060913,73230575,-0.6893094778060913,0.15317988395690918,-9.956692695617676
73.23106300,73231063,-0.6893094778060913,73231063,-0.6893094778060913,0.15317988395690918,-9.880102157592773
73.23154700,73231547,-0.6893094778060913,73231547,-0.6893094778060913,0.30635976791381836,-9.956692695617676
73.23207800,73232078,-0.6893094778060913,73232078,-0.6893094778060913,0.22976982593536377,-9.956692695617676
73.23262500,73232625,-0.6893094778060913,73232625,-0.6893094778060913,0.22976982593536377,-9.880102157592773
73.23263700,73232637,-0.6893094778060913,73232637,-0.6893094778060913,0.30635976791381836,-9.956692695617676
73.23356400,73233564,-0.7658994197845459,73233564,-0.7658994197845459,0.22976982593536377,-9.956692695617676
73.23403600,73234036,-0.6127195358276367,73234036,-0.6127195358276367,0.15317988395690918,-9.956692695617676
73.23458700,73234587,-0.6893094778060913,73234587,-0.6893094778060913,0.22976982593536377,-10.033282279968262
73.23459800,73234598,-0.6893094778060913,73234598,-0.6893094778060913,0.07658994197845459,-9.880102157592773
73.23511200,73235112,-0.6893094778060913,73235112,-0.6893094778060913,0.15317988395690918,-9.880102157592773
73.23557600,73235576,-0.6893094778060913,73235576,-0.6893094778060913,0.07658994197845459,-9.726922988891602
73.23603900,73236039,-0.6127195358276367,73236039,-0.6127195358276367,0.15317988395690918,-9.726922988891602
73.23657300,73236573,-0.6127195358276367,73236573,-0.6127195358276367,0.15317988395690918,-9.880102157592773
73.23706300,73237063,-0.6893094778060913,73237063,-0.6893094778060913,0.15317988395690918,-9.880102157592773
73.23763700,73237637,-0.6893094778060913,73237637,-0.6893094778060913,0.22976982593536377,-9.956692695617676
73.23804300,73238043,-0.6127195358276367,73238043,-0.6127195358276367,0.22976982593536377,-9.880102157592773
73.23857500,73238575,-0.6893094778060913,73238575,-0.6893094778060913,0.30635976791381836,-9.880102157592773
73.23906000,73239060,-0.6893094778060913,73239060,-0.6893094778060913,0.22976982593536377,-9.880102157592773
73.23956500,73239565,-0.6127195358276367,73239565,-0.6127195358276367,0.07658994197845459,-9.880102157592773
73.24012700,73240127,-0.6893094778060913,73240127,-0.6893094778060913,0.15317988395690918,-9.880102157592773
73.24054900,73240549,-0.6893094778060913,73240549,-0.6893094778060913,0.07658994197845459,-9.880102157592773
73.24106500,73241065,-0.6893094778060913,73241065,-0.6893094778060913,0.15317988395690918,-9.803512573242188
73.24157700,73241577,-0.6127195358276367,73241577,-0.6127195358276367,0.15317988395690918,-9.803512573242188
73.24206200,73242062,-0.7658994197845459,73242062,-0.7658994197845459,0.22976982593536377,-9.956692695617676
73.24263800,73242638,-0.6127195358276367,73242638,-0.6127195358276367,0.15317988395690918,-9.880102157592773
73.24303900,73243039,-0.6893094778060913,73243039,-0.6893094778060913,0.15317988395690918,-9.880102157592773
73.24356400,73243564,-0.6893094778060913,73243564,-0.6893094778060913,0.22976982593536377,-9.880102157592773
73.24406300,73244063,-0.5361295938491821,73244063,-0.5361295938491821,0.07658994197845459,-9.880102157592773
73.24456100,73244561,-0.6127195358276367,73244561,-0.6127195358276367,0.22976982593536377,-9.880102157592773
73.24513200,73245132,-0.6893094778060913,73245132,-0.6893094778060913,0.15317988395690918,-9.880102157592773
73.24554100,73245541,-0.6893094778060913,73245541,-0.6893094778060913,0.07658994197845459,-9.880102157592773
73.24608000,73246080,-0.6893094778060913,73246080,-0.6893094778060913,0.07658994197845459,-9.726922988891602
73.24657000,73246570,-0.7658994197845459,73246570,-0.7658994197845459,0.15317988395690918,-9.726922988891602
73.24706400,73247064,-0.7658994197845459,73247064,-0.7658994197845459,0.22976982593536377,-9.880102157592773
73.24763200,73247632,-0.6893094778060913,73247632,-0.6893094778060913,0.15317988395690918,-9.880102157592773
73.24805400,73248054,-0.7658994197845459,73248054,-0.7658994197845459,0.22976982593536377,-10.033282279968262
73.24856800,73248568,-0.7658994197845459,73248568,-0.7658994197845459,0.15317988395690918,-9.956692695617676
73.24906400,73249064,-0.6893094778060913,73249064,-0.6893094778060913,0.30635976791381836,-9.880102157592773
73.24956500,73249565,-0.6893094778060913,73249565,-0.6893094778060913,0.15317988395690918,-9.726922988891602
73.25011700,73250117,-0.6893094778060913,73250117,-0.6893094778060913,0.15317988395690918,-9.880102157592773
73.25056800,73250568,-0.6127195358276367,73250568,-0.6127195358276367,0.15317988395690918,-9.803512573242188
73.25106800,73251068,-0.6893094778060913,73251068,-0.6893094778060913,0.15317988395690918,-9.880102157592773
73.25157200,73251572,-0.6893094778060913,73251572,-0.6893094778060913,0.07658994197845459,-9.803512573242188
73.25206500,73252065,-0.6127195358276367,73252065,-0.6127195358276367,0.22976982593536377,-9.880102157592773
73.25262600,73252626,-0.6893094778060913,73252626,-0.6893094778060913,0.15317988395690918,-9.880102157592773
73.25263800,73252638,-0.6893094778060913,73252638,-0.6893094778060913,0.15317988395690918,-9.956692695617676
73.25356400,73253564,-0.6127195358276367,73253564,-0.6127195358276367,0.15317988395690918,-9.880102157592773
73.25406900,73254069,-0.6893094778060913,73254069,-0.6893094778060913,0.15317988395690918,-9.880102157592773
73.25408100,73254081,-0.6893094778060913,73254081,-0.6893094778060913,0.22976982593536377,-9.880102157592773
73.25456500,73254565,-0.6893094778060913,73254565,-0.6893094778060913,0.0,-9.803512573242188
73.25511700,73255117,-0.6893094778060913,73255117,-0.6893094778060913,0.07658994197845459,-9.956692695617676
73.25557200,73255572,-0.6893094778060913,73255572,-0.6893094778060913,0.30635976791381836,-9.880102157592773
73.25607100,73256071,-0.6893094778060913,73256071,-0.6893094778060913,0.15317988395690918,-9.880102157592773
73.25658200,73256582,-0.6893094778060913,73256582,-0.6893094778060913,0.22976982593536377,-9.956692695617676
73.25706500,73257065,-0.6893094778060913,73257065,-0.6893094778060913,0.15317988395690918,-9.726922988891602
73.25762000,73257620,-0.7658994197845459,73257620,-0.7658994197845459,0.15317988395690918,-9.956692695617676
73.25807300,73258073,-0.6893094778060913,73258073,-0.6893094778060913,0.15317988395690918,-9.726922988891602
73.25856500,73258565,-0.6893094778060913,73258565,-0.6893094778060913,0.15317988395690918,-9.880102157592773
73.25906800,73259068,-0.6893094778060913,73259068,-0.6893094778060913,0.22976982593536377,-9.803512573242188
73.25957000,73259570,-0.6127195358276367,73259570,-0.6127195358276367,0.22976982593536377,-9.803512573242188
73.26011100,73260111,-0.6893094778060913,73260111,-0.6893094778060913,0.22976982593536377,-9.726922988891602
73.26057400,73260574,-0.6893094778060913,73260574,-0.6893094778060913,0.22976982593536377,-9.803512573242188
73.26106400,73261064,-0.6127195358276367,73261064,-0.6127195358276367,0.15317988395690918,-9.880102157592773
73.26156500,73261565,-0.6127195358276367,73261565,-0.6127195358276367,0.22976982593536377,-9.880102157592773
73.26206600,73262066,-0.6127195358276367,73262066,-0.6127195358276367,0.15317988395690918,-9.803512573242188
73.26261700,73262617,-0.6127195358276367,73262617,-0.6127195358276367,0.15317988395690918,-9.726922988891602
73.26307200,73263072,-0.7658994197845459,73263072,-0.7658994197845459,0.22976982593536377,-9.803512573242188
73.26356200,73263562,-0.6893094778060913,73263562,-0.6893094778060913,0.22976982593536377,-9.880102157592773
73.26406800,73264068,-0.7658994197845459,73264068,-0.7658994197845459,0.22976982593536377,-9.956692695617676
73.26456500,73264565,-0.7658994197845459,73264565,-0.7658994197845459,0.15317988395690918,-9.880102157592773
73.26511900,73265119,-0.6127195358276367,73265119,-0.6127195358276367,0.15317988395690918,-9.956692695617676
73.26557600,73265576,-0.6893094778060913,73265576,-0.6893094778060913,0.15317988395690918,-9.956692695617676
73.26606800,73266068,-0.6893094778060913,73266068,-0.6893094778060913,0.15317988395690918,-9.880102157592773
73.26657700,73266577,-0.6893094778060913,73266577,-0.6893094778060913,0.15317988395690918,-9.880102157592773
73.26706600,73267066,-0.6893094778060913,73267066,-0.6893094778060913,0.07658994197845459,-9.803512573242188
73.26761400,73267614,-0.6893094778060913,73267614,-0.6893094778060913,0.07658994197845459,-9.803512573242188
73.26807700,73268077,-0.6893094778060913,73268077,-0.6893094778060913,0.15317988395690918,-9.726922988891602
73.26856700,73268567,-0.6127195358276367,73268567,-0.6127195358276367,0.15317988395690918,-9.880102157592773
73.26906500,73269065,-0.6893094778060913,73269065,-0.6893094778060913,0.15317988395690918,-9.880102157592773
73.26956400,73269564,-0.6893094778060913,73269564,-0.6893094778060913,0.22976982593536377,-9.880102157592773
73.27011200,73270112,-0.6893094778060913,73270112,-0.6893094778060913,0.15317988395690918,-9.880102157592773
73.27056800,73270568,-0.6893094778060913,73270568,-0.6893094778060913,0.22976982593536377,-9.880102157592773
73.27106300,73271063,-0.6893094778060913,73271063,-0.6893094778060913,0.22976982593536377,-9.880102157592773
73.27156700,73271567,-0.6127195358276367,73271567,-0.6127195358276367,0.15317988395690918,-9.880102157592773
73.27206300,73272063,-0.6127195358276367,73272063,-0.6127195358276367,0.22976982593536377,-9.726922988891602
73.27262400,73272624,-0.6893094778060913,73272624,-0.6893094778060913,0.22976982593536377,-9.956692695617676
73.27263600,73272636,-0.6893094778060913,73272636,-0.6893094778060913,0.15317988395690918,-9.956692695617676
73.27357300,73273573,-0.6127195358276367,73273573,-0.6127195358276367,0.07658994197845459,-9.726922988891602
73.27358400,73273584,-0.6127195358276367,73273584,-0.6127195358276367,0.15317988395690918,-9.803512573242188
73.27406600,73274066,-0.7658994197845459,73274066,-0.7658994197845459,0.22976982593536377,-9.880102157592773
73.27456200,73274562,-0.7658994197845459,73274562,-0.7658994197845459,0.30635976791381836,-9.6503324508667
73.27511800,73275118,-0.6893094778060913,73275118,-0.6893094778060913,0.15317988395690918,-9.803512573242188
73.27556900,73275569,-0.6893094778060913,73275569,-0.6893094778060913,0.22976982593536377,-9.803512573242188
73.27606900,73276069,-0.6893094778060913,73276069,-0.6893094778060913,0.22976982593536377,-9.880102157592773
73.27658100,73276581,-0.6893094778060913,73276581,-0.6893094778060913,0.15317988395690918,-9.880102157592773
73.27706300,73277063,-0.7658994197845459,73277063,-0.7658994197845459,0.15317988395690918,-9.880102157592773
73.27761900,73277619,-0.6893094778060913,73277619,-0.6893094778060913,0.15317988395690918,-9.803512573242188
73.27808000,73278080,-0.5361295938491821,73278080,-0.5361295938491821,0.15317988395690918,-9.880102157592773
73.27856600,73278566,-0.6127195358276367,73278566,-0.6127195358276367,0.07658994197845459,-10.033282279968262
73.27906000,73279060,-0.6893094778060913,73279060,-0.6893094778060913,0.07658994197845459,-9.880102157592773
73.27956400,73279564,-0.6893094778060913,73279564,-0.6893094778060913,0.15317988395690918,-9.803512573242188
73.28011400,73280114,-0.6893094778060913,73280114,-0.6893094778060913,0.15317988395690918,-9.880102157592773
73.28056900,73280569,-0.6893094778060913,73280569,-0.6893094778060913,0.15317988395690918,-9.803512573242188
73.28106200,73281062,-0.6893094778060913,73281062,-0.6893094778060913,0.15317988395690918,-9.956692695617676
73.28156600,73281566,-0.6893094778060913,73281566,-0.6893094778060913,0.15317988395690918,-9.880102157592773
73.28206000,73282060,-0.6127195358276367,73282060,-0.6127195358276367,0.15317988395690918,-9.803512573242188
73.28261900,73282619,-0.6127195358276367,73282619,-0.6127195358276367,0.15317988395690918,-9.880102157592773
73.28306800,73283068,-0.6893094778060913,73283068,-0.6893094778060913,0.22976982593536377,-9.803512573242188
73.28356100,73283561,-0.6893094778060913,73283561,-0.6893094778060913,0.15317988395690918,-9.880102157592773
73.28406100,73284061,-0.6893094778060913,73284061,-0.6893094778060913,0.22976982593536377,-9.880102157592773
73.28456700,73284567,-0.6893094778060913,73284567,-0.6893094778060913,0.07658994197845459,-9.880102157592773
73.28511500,73285115,-0.6893094778060913,73285115,-0.6893094778060913,0.22976982593536377,-9.956692695617676
73.28557800,73285578,-0.6893094778060913,73285578,-0.6893094778060913,0.15317988395690918,-9.880102157592773
73.28606600,73286066,-0.6893094778060913,73286066,-0.6893094778060913,0.15317988395690918,-9.880102157592773
73.28658300,73286583,-0.6893094778060913,73286583,-0.6893094778060913,0.07658994197845459,-9.956692695617676
73.28706300,73287063,-0.6127195358276367,73287063,-0.6127195358276367,0.22976982593536377,-9.880102157592773
73.28762400,73287624,-0.7658994197845459,73287624,-0.7658994197845459,0.22976982593536377,-9.880102157592773
73.28807200,73288072,-0.7658994197845459,73288072,-0.7658994197845459,0.07658994197845459,-9.880102157592773
73.28856500,73288565,-0.6893094778060913,73288565,-0.6893094778060913,0.15317988395690918,-9.880102157592773
73.28906400,73289064,-0.6893094778060913,73289064,-0.6893094778060913,0.15317988395690918,-9.880102157592773
73.28956600,73289566,-0.7658994197845459,73289566,-0.7658994197845459,0.22976982593536377,-9.880102157592773
73.29011400,73290114,-0.6893094778060913,73290114,-0.6893094778060913,0.15317988395690918,-9.726922988891602
73.29057700,73290577,-0.6893094778060913,73290577,-0.6893094778060913,0.07658994197845459,-9.803512573242188
73.29106600,73291066,-0.6893094778060913,73291066,-0.6893094778060913,0.15317988395690918,-9.880102157592773
73.29156500,73291565,-0.6893094778060913,73291565,-0.6893094778060913,0.22976982593536377,-9.880102157592773
73.29206200,73292062,-0.6127195358276367,73292062,-0.6127195358276367,0.22976982593536377,-9.803512573242188
73.29262400,73292624,-0.6893094778060913,73292624,-0.6893094778060913,0.22976982593536377,-9.726922988891602
73.29263600,73292636,-0.6127195358276367,73292636,-0.6127195358276367,0.0,-9.803512573242188
73.29356800,73293568,-0.5361295938491821,73293568,-0.5361295938491821,0.07658994197845459,-9.803512573242188
73.29357900,73293579,-0.7658994197845459,73293579,-0.7658994197845459,0.15317988395690918,-9.880102157592773
73.29406400,73294064,-0.6127195358276367,73294064,-0.6127195358276367,0.15317988395690918,-9.880102157592773
73.29456200,73294562,-0.7658994197845459,73294562,-0.7658994197845459,0.22976982593536377,-9.880102157592773
73.29512000,73295120,-0.6893094778060913,73295120,-0.6893094778060913,0.30635976791381836,-10.033282279968262
73.29557900,73295579,-0.6127195358276367,73295579,-0.6127195358276367,0.15317988395690918,-9.726922988891602
73.29606400,73296064,-0.6893094778060913,73296064,-0.6893094778060913,0.22976982593536377,-9.803512573242188
73.29658200,73296582,-0.7658994197845459,73296582,-0.7658994197845459,0.22976982593536377,-9.880102157592773
73.29706400,73297064,-0.6893094778060913,73297064,-0.6893094778060913,0.15317988395690918,-9.956692695617676
73.29761800,73297618,-0.6893094778060913,73297618,-0.6893094778060913,0.15317988395690918,-9.880102157592773
73.29807600,73298076,-0.6893094778060913,73298076,-0.6893094778060913,0.15317988395690918,-9.803512573242188
73.29856800,73298568,-0.6127195358276367,73298568,-0.6127195358276367,0.07658994197845459,-9.880102157592773
73.29906100,73299061,-0.6893094778060913,73299061,-0.6893094778060913,0.22976982593536377,-9.803512573242188
73.29956700,73299567,-0.6127195358276367,73299567,-0.6127195358276367,0.15317988395690918,-9.880102157592773
73.30011900,73300119,-0.7658994197845459,73300119,-0.7658994197845459,0.30635976791381836,-9.880102157592773
73.30057200,73300572,-0.6893094778060913,73300572,-0.6893094778060913,0.07658994197845459,-9.726922988891602
73.30106500,73301065,-0.6893094778060913,73301065,-0.6893094778060913,0.15317988395690918,-9.803512573242188
73.30157200,73301572,-0.6893094778060913,73301572,-0.6893094778060913,0.15317988395690918,-9.880102157592773
73.30206200,73302062,-0.6893094778060913,73302062,-0.6893094778060913,0.07658994197845459,-9.803512573242188
73.30263100,73302631,-0.6893094778060913,73302631,-0.6893094778060913,0.07658994197845459,-9.880102157592773
73.30306800,73303068,-0.6127195358276367,73303068,-0.6127195358276367,0.07658994197845459,-9.803512573242188
73.30356300,73303563,-0.6127195358276367,73303563,-0.6127195358276367,0.15317988395690918,-9.803512573242188
73.30406700,73304067,-0.6893094778060913,73304067,-0.6893094778060913,0.22976982593536377,-9.880102157592773
73.30456400,73304564,-0.6893094778060913,73304564,-0.6893094778060913,0.15317988395690918,-9.880102157592773
73.30512000,73305120,-0.6127195358276367,73305120,-0.6127195358276367,0.22976982593536377,-9.726922988891602
73.30557500,73305575,-0.7658994197845459,73305575,-0.7658994197845459,0.30635976791381836,-9.880102157592773
73.30606500,73306065,-0.6893094778060913,73306065,-0.6893094778060913,0.07658994197845459,-9.803512573242188
73.30657800,73306578,-0.6893094778060913,73306578,-0.6893094778060913,0.22976982593536377,-9.803512573242188
73.30706100,73307061,-0.6893094778060913,73307061,-0.6893094778060913,0.15317988395690918,-9.803512573242188
73.30762200,73307622,-0.6893094778060913,73307622,-0.6893094778060913,0.07658994197845459,-9.956692695617676
73.30807600,73308076,-0.7658994197845459,73308076,-0.7658994197845459,0.15317988395690918,-9.880102157592773
73.30856600,73308566,-0.6127195358276367,73308566,-0.6127195358276367,0.15317988395690918,-9.726922988891602
73.30907000,73309070,-0.6127195358276367,73309070,-0.6127195358276367,0.22976982593536377,-9.880102157592773
73.30957300,73309573,-0.6893094778060913,73309573,-0.6893094778060913,0.15317988395690918,-9.803512573242188
73.31011900,73310119,-0.6127195358276367,73310119,-0.6127195358276367,0.15317988395690918,-9.956692695617676
73.31057400,73310574,-0.7658994197845459,73310574,-0.7658994197845459,0.22976982593536377,-9.956692695617676
73.31107200,73311072,-0.6127195358276367,73311072,-0.6127195358276367,0.22976982593536377,-9.880102157592773
73.31156100,73311561,-0.7658994197845459,73311561,-0.7658994197845459,0.15317988395690918,-9.956692695617676
73.31206500,73312065,-0.6893094778060913,73312065,-0.6893094778060913,0.15317988395690918,-9.803512573242188
73.31261700,73312617,-0.6127195358276367,73312617,-0.6127195358276367,0.22976982593536377,-10.033282279968262
73.31263000,73312630,-0.7658994197845459,73312630,-0.7658994197845459,0.22976982593536377,-9.803512573242188
73.31356500,73313565,-0.6127195358276367,73313565,-0.6127195358276367,0.22976982593536377,-9.726922988891602
73.31357600,73313576,-0.6127195358276367,73313576,-0.6127195358276367,0.07658994197845459,-9.956692695617676
73.31406400,73314064,-0.6893094778060913,73314064,-0.6893094778060913,0.15317988395690918,-9.803512573242188
73.31456200,73314562,-0.7658994197845459,73314562,-0.7658994197845459,0.15317988395690918,-9.880102157592773
73.31512300,73315123,-0.6893094778060913,73315123,-0.6893094778060913,0.15317988395690918,-9.803512573242188
73.31556900,73315569,-0.6127195358276367,73315569,-0.6127195358276367,0.07658994197845459,-9.803512573242188
73.31606600,73316066,-0.6893094778060913,73316066,-0.6893094778060913,0.15317988395690918,-9.880102157592773
73.31657500,73316575,-0.6127195358276367,73316575,-0.6127195358276367,0.15317988395690918,-9.6503324508667
73.31706300,73317063,-0.6893094778060913,73317063,-0.6893094778060913,0.15317988395690918,-9.880102157592773
73.31762000,73317620,-0.6893094778060913,73317620,-0.6893094778060913,0.22976982593536377,-9.880102157592773
73.31807400,73318074,-0.6893094778060913,73318074,-0.6893094778060913,0.15317988395690918,-9.880102157592773
73.31856800,73318568,-0.6127195358276367,73318568,-0.6127195358276367,0.15317988395690918,-9.880102157592773
73.31906200,73319062,-0.6893094778060913,73319062,-0.6893094778060913,0.15317988395690918,-9.880102157592773
73.31956800,73319568,-0.6893094778060913,73319568,-0.6893094778060913,0.07658994197845459,-9.803512573242188
73.32010800,73320108,-0.6127195358276367,73320108,-0.6127195358276367,0.15317988395690918,-9.803512573242188
73.32057800,73320578,-0.6893094778060913,73320578,-0.6893094778060913,0.15317988395690918,-9.726922988891602
73.32106100,73321061,-0.6893094778060913,73321061,-0.6893094778060913,0.15317988395690918,-9.956692695617676
73.32157100,73321571,-0.6893094778060913,73321571,-0.6893094778060913,0.15317988395690918,-9.880102157592773
73.32206300,73322063,-0.7658994197845459,73322063,-0.7658994197845459,0.22976982593536377,-9.880102157592773
73.32262800,73322628,-0.6893094778060913,73322628,-0.6893094778060913,0.15317988395690918,-9.803512573242188
73.32306700,73323067,-0.6893094778060913,73323067,-0.6893094778060913,0.15317988395690918,-9.803512573242188
73.32356400,73323564,-0.6893094778060913,73323564,-0.6893094778060913,0.22976982593536377,-9.880102157592773
73.32406400,73324064,-0.6893094778060913,73324064,-0.6893094778060913,0.15317988395690918,-9.803512573242188
73.32456800,73324568,-0.6893094778060913,73324568,-0.6893094778060913,0.15317988395690918,-9.956692695617676
73.32511800,73325118,-0.6893094778060913,73325118,-0.6893094778060913,0.15317988395690918,-9.880102157592773
73.32557600,73325576,-0.6893094778060913,73325576,-0.6893094778060913,0.22976982593536377,-9.880102157592773
73.32606300,73326063,-0.6127195358276367,73326063,-0.6127195358276367,0.22976982593536377,-9.803512573242188
73.32657900,73326579,-0.7658994197845459,73326579,-0.7658994197845459,0.15317988395690918,-9.880102157592773
73.32706300,73327063,-0.6893094778060913,73327063,-0.6893094778060913,0.22976982593536377,-9.880102157592773
73.32762600,73327626,-0.6127195358276367,73327626,-0.6127195358276367,0.22976982593536377,-9.880102157592773
73.32807100,73328071,-0.6893094778060913,73328071,-0.6893094778060913,0.15317988395690918,-9.880102157592773
73.32857200,73328572,-0.6893094778060913,73328572,-0.6893094778060913,0.15317988395690918,-9.803512573242188
73.32906100,73329061,-0.7658994197845459,73329061,-0.7658994197845459,0.15317988395690918,-9.880102157592773
73.32956400,73329564,-0.6893094778060913,73329564,-0.6893094778060913,0.15317988395690918,-9.803512573242188
73.33011100,73330111,-0.6893094778060913,73330111,-0.6893094778060913,0.15317988395690918,-9.880102157592773
73.33057300,73330573,-0.6893094778060913,73330573,-0.6893094778060913,0.07658994197845459,-9.803512573242188
73.33106000,73331060,-0.6127195358276367,73331060,-0.6127195358276367,0.15317988395690918,-9.803512573242188
73.33157100,73331571,-0.5361295938491821,73331571,-0.5361295938491821,0.15317988395690918,-9.726922988891602
73.33206000,73332060,-0.6893094778060913,73332060,-0.6893094778060913,0.15317988395690918,-9.803512573242188
73.33262600,73332626,-0.6893094778060913,73332626,-0.6893094778060913,0.15317988395690918,-9.956692695617676
73.33263700,73332637,-0.6893094778060913,73332637,-0.6893094778060913,0.15317988395690918,-9.803512573242188
73.33306700,73333067,-0.6893094778060913,73333067,-0.6893094778060913,0.30635976791381836,-9.880102157592773
73.33356500,73333565,-0.6127195358276367,73333565,-0.6127195358276367,0.15317988395690918,-9.880102157592773
73.33406300,73334063,-0.6127195358276367,73334063,-0.6127195358276367,0.15317988395690918,-9.880102157592773
73.33456700,73334567,-0.6893094778060913,73334567,-0.6893094778060913,0.15317988395690918,-9.803512573242188
73.33511100,73335111,-0.6127195358276367,73335111,-0.6127195358276367,0.22976982593536377,-9.880102157592773
73.33556900,73335569,-0.6893094778060913,73335569,-0.6893094778060913,0.22976982593536377,-9.880102157592773
73.33606400,73336064,-0.5361295938491821,73336064,-0.5361295938491821,0.22976982593536377,-9.803512573242188
73.33657800,73336578,-0.8424893617630005,73336578,-0.8424893617630005,0.15317988395690918,-9.956692695617676
73.33706800,73337068,-0.8424893617630005,73337068,-0.8424893617630005,0.15317988395690918,-9.880102157592773
73.33761900,73337619,-0.6893094778060913,73337619,-0.6893094778060913,0.15317988395690918,-9.880102157592773
73.33807400,73338074,-0.7658994197845459,73338074,-0.7658994197845459,0.22976982593536377,-9.880102157592773
73.33856800,73338568,-0.7658994197845459,73338568,-0.7658994197845459,0.30635976791381836,-9.880102157592773
73.33906000,73339060,-0.6893094778060913,73339060,-0.6893094778060913,0.15317988395690918,-9.880102157592773
73.33956500,73339565,-0.6893094778060913,73339565,-0.6893094778060913,0.22976982593536377,-9.956692695617676
73.34011000,73340110,-0.6127195358276367,73340110,-0.6127195358276367,0.07658994197845459,-9.726922988891602
73.34057200,73340572,-0.7658994197845459,73340572,-0.7658994197845459,0.15317988395690918,-9.726922988891602
73.34106300,73341063,-0.8424893617630005,73341063,-0.8424893617630005,0.22976982593536377,-9.880102157592773
73.34156600,73341566,-0.6127195358276367,73341566,-0.6127195358276367,0.07658994197845459,-9.880102157592773
73.34206100,73342061,-0.6893094778060913,73342061,-0.6893094778060913,0.15317988395690918,-9.956692695617676
73.34261900,73342619,-0.6127195358276367,73342619,-0.6127195358276367,0.07658994197845459,-9.880102157592773
73.34307000,73343070,-0.6127195358276367,73343070,-0.6127195358276367,0.22976982593536377,-9.803512573242188
73.34356700,73343567,-0.6893094778060913,73343567,-0.6893094778060913,0.15317988395690918,-9.880102157592773
73.34406100,73344061,-0.7658994197845459,73344061,-0.7658994197845459,0.15317988395690918,-9.956692695617676
73.34456700,73344567,-0.7658994197845459,73344567,-0.7658994197845459,0.30635976791381836,-9.880102157592773
73.34511300,73345113,-0.6893094778060913,73345113,-0.6893094778060913,0.15317988395690918,-9.803512573242188
73.34557600,73345576,-0.6893094778060913,73345576,-0.6893094778060913,0.15317988395690918,-9.880102157592773
73.34608700,73346087,-0.7658994197845459,73346087,-0.7658994197845459,0.22976982593536377,-9.880102157592773
73.34658400,73346584,-0.7658994197845459,73346584,-0.7658994197845459,0.22976982593536377,-9.956692695617676
73.34706200,73347062,-0.6893094778060913,73347062,-0.6893094778060913,0.15317988395690918,-10.033282279968262
73.34762100,73347621,-0.6893094778060913,73347621,-0.6893094778060913,0.15317988395690918,-9.880102157592773
73.34806800,73348068,-0.6127195358276367,73348068,-0.6127195358276367,0.15317988395690918,-9.880102157592773
73.34856600,73348566,-0.6893094778060913,73348566,-0.6893094778060913,0.22976982593536377,-9.956692695617676
73.34906100,73349061,-0.6127195358276367,73349061,-0.6127195358276367,0.0,-9.803512573242188
73.34956400,73349564,-0.6127195358276367,73349564,-0.6127195358276367,0.15317988395690918,-9.880102157592773
73.35011300,73350113,-0.6893094778060913,73350113,-0.6893094778060913,0.15317988395690918,-9.726922988891602
73.35057000,73350570,-0.6893094778060913,73350570,-0.6893094778060913,0.15317988395690918,-9.880102157592773
73.35106300,73351063,-0.6893094778060913,73351063,-0.6893094778060913,0.07658994197845459,-9.726922988891602
73.35156600,73351566,-0.6127195358276367,73351566,-0.6127195358276367,0.15317988395690918,-9.880102157592773
73.35206300,73352063,-0.6127195358276367,73352063,-0.6127195358276367,0.15317988395690918,-9.880102157592773
73.35262500,73352625,-0.6893094778060913,73352625,-0.6893094778060913,0.15317988395690918,-9.956692695617676
73.35263700,73352637,-0.6127195358276367,73352637,-0.6127195358276367,0.07658994197845459,-9.803512573242188
73.35306700,73353067,-0.6127195358276367,73353067,-0.6127195358276367,0.15317988395690918,-9.880102157592773
73.35356400,73353564,-0.6127195358276367,73353564,-0.6127195358276367,0.15317988395690918,-9.803512573242188
73.35406600,73354066,-0.6893094778060913,73354066,-0.6893094778060913,0.30635976791381836,-9.880102157592773
73.35456300,73354563,-0.6127195358276367,73354563,-0.6127195358276367,0.15317988395690918,-9.880102157592773
73.35511400,73355114,-0.6893094778060913,73355114,-0.6893094778060913,0.07658994197845459,-9.803512573242188
73.35557900,73355579,-0.6893094778060913,73355579,-0.6893094778060913,0.15317988395690918,-9.880102157592773
73.35606600,73356066,-0.6893094778060913,73356066,-0.6893094778060913,0.15317988395690918,-9.726922988891602
73.35657700,73356577,-0.7658994197845459,73356577,-0.7658994197845459,0.15317988395690918,-9.803512573242188
73.35706900,73357069,-0.6127195358276367,73357069,-0.6127195358276367,0.15317988395690918,-9.726922988891602
73.35761200,73357612,-0.6893094778060913,73357612,-0.6893094778060913,0.15317988395690918,-9.726922988891602
73.35807900,73358079,-0.6893094778060913,73358079,-0.6893094778060913,0.07658994197845459,-9.726922988891602
73.35857000,73358570,-0.6127195358276367,73358570,-0.6127195358276367,0.0,-9.956692695617676
73.35906100,73359061,-0.6127195358276367,73359061,-0.6127195358276367,0.07658994197845459,-9.726922988891602
73.35956400,73359564,-0.6893094778060913,73359564,-0.6893094778060913,0.15317988395690918,-9.803512573242188
73.36011100,73360111,-0.7658994197845459,73360111,-0.7658994197845459,0.30635976791381836,-9.880102157592773
73.36056800,73360568,-0.6893094778060913,73360568,-0.6893094778060913,0.22976982593536377,-9.956692695617676
73.36106200,73361062,-0.6893094778060913,73361062,-0.6893094778060913,0.22976982593536377,-9.880102157592773
73.36156400,73361564,-0.6127195358276367,73361564,-0.6127195358276367,0.15317988395690918,-9.726922988891602
73.36206100,73362061,-0.6893094778060913,73362061,-0.6893094778060913,0.15317988395690918,-9.803512573242188
73.36261100,73362611,-0.6127195358276367,73362611,-0.6127195358276367,0.22976982593536377,-9.726922988891602
73.36306900,73363069,-0.5361295938491821,73363069,-0.5361295938491821,0.0,-9.726922988891602
73.36356300,73363563,-0.6127195358276367,73363563,-0.6127195358276367,0.15317988395690918,-9.726922988891602
73.36406200,73364062,-0.6893094778060913,73364062,-0.6893094778060913,0.15317988395690918,-9.803512573242188
73.36456100,73364561,-0.6127195358276367,73364561,-0.6127195358276367,0.15317988395690918,-9.6503324508667
73.36512000,73365120,-0.6127195358276367,73365120,-0.6127195358276367,0.22976982593536377,-9.6503324508667
73.36557100,73365571,-0.6893094778060913,73365571,-0.6893094778060913,0.22976982593536377,-9.726922988891602
73.36606400,73366064,-0.6893094778060913,73366064,-0.6893094778060913,0.15317988395690918,-9.6503324508667
73.36657700,73366577,-0.5361295938491821,73366577,-0.5361295938491821,0.15317988395690918,-9.6503324508667
73.36706100,73367061,-0.6893094778060913,73367061,-0.6893094778060913,0.15317988395690918,-9.573742866516113
73.36761900,73367619,-0.5361295938491821,73367619,-0.5361295938491821,0.15317988395690918,-9.573742866516113
73.36807200,73368072,-0.6893094778060913,73368072,-0.6893094778060913,0.15317988395690918,-9.803512573242188
73.36856600,73368566,-0.6893094778060913,73368566,-0.6893094778060913,0.07658994197845459,-9.726922988891602
73.36906100,73369061,-0.6893094778060913,73369061,-0.6893094778060913,0.22976982593536377,-9.726922988891602
73.36956700,73369567,-0.7658994197845459,73369567,-0.7658994197845459,0.22976982593536377,-9.726922988891602
73.37011200,73370112,-0.6893094778060913,73370112,-0.6893094778060913,0.22976982593536377,-9.726922988891602
73.37057200,73370572,-0.6893094778060913,73370572,-0.6893094778060913,0.30635976791381836,-9.726922988891602
73.37106200,73371062,-0.6893094778060913,73371062,-0.6893094778060913,0.22976982593536377,-9.803512573242188
73.37156400,73371564,-0.6893094778060913,73371564,-0.6893094778060913,0.22976982593536377,-9.6503324508667
73.37206100,73372061,-0.6893094778060913,73372061,-0.6893094778060913,0.15317988395690918,-9.803512573242188
73.37262100,73372621,-0.6127195358276367,73372621,-0.6127195358276367,0.30635976791381836,-9.880102157592773
73.37263400,73372634,-0.6893094778060913,73372634,-0.6893094778060913,0.30635976791381836,-9.803512573242188
73.37306900,73373069,-0.6893094778060913,73373069,-0.6893094778060913,0.30635976791381836,-9.803512573242188
73.37356200,73373562,-0.7658994197845459,73373562,-0.7658994197845459,0.30635976791381836,-9.803512573242188
73.37406400,73374064,-0.6893094778060913,73374064,-0.6893094778060913,0.22976982593536377,-9.880102157592773
73.37456200,73374562,-0.6893094778060913,73374562,-0.6893094778060913,0.30635976791381836,-9.803512573242188
73.37511700,73375117,-0.6127195358276367,73375117,-0.6127195358276367,0.30635976791381836,-9.803512573242188
73.37557300,73375573,-0.6893094778060913,73375573,-0.6893094778060913,0.38294970989227295,-9.956692695617676
73.37607000,73376070,-0.6127195358276367,73376070,-0.6127195358276367,0.30635976791381836,-9.956692695617676
73.37657500,73376575,-0.6893094778060913,73376575,-0.6893094778060913,0.22976982593536377,-9.956692695617676
73.37707400,73377074,-0.7658994197845459,73377074,-0.7658994197845459,0.45953965187072754,-10.109872817993164
73.37761100,73377611,-0.6893094778060913,73377611,-0.6893094778060913,0.30635976791381836,-9.880102157592773
73.37807200,73378072,-0.7658994197845459,73378072,-0.7658994197845459,0.22976982593536377,-10.109872817993164
73.37856600,73378566,-0.6893094778060913,73378566,-0.6893094778060913,0.38294970989227295,-10.033282279968262
73.37906100,73379061,-0.6127195358276367,73379061,-0.6127195358276367,0.30635976791381836,-10.18646240234375
73.37956400,73379564,-0.7658994197845459,73379564,-0.7658994197845459,0.38294970989227295,-10.18646240234375
73.38011100,73380111,-0.6127195358276367,73380111,-0.6127195358276367,0.07658994197845459,-10.109872817993164
73.38057100,73380571,-0.7658994197845459,73380571,-0.7658994197845459,0.07658994197845459,-10.033282279968262
73.38106300,73381063,-0.6893094778060913,73381063,-0.6893094778060913,0.22976982593536377,-10.18646240234375
73.38156600,73381566,-0.7658994197845459,73381566,-0.7658994197845459,0.22976982593536377,-10.109872817993164
73.38206000,73382060,-0.6893094778060913,73382060,-0.6893094778060913,0.22976982593536377,-10.109872817993164
73.38262400,73382624,-0.6893094778060913,73382624,-0.6893094778060913,0.15317988395690918,-10.18646240234375
73.38306700,73383067,-0.6893094778060913,73383067,-0.6893094778060913,0.15317988395690918,-10.263051986694336
73.38356700,73383567,-0.7658994197845459,73383567,-0.7658994197845459,0.15317988395690918,-10.18646240234375
73.38406300,73384063,-0.6893094778060913,73384063,-0.6893094778060913,0.22976982593536377,-10.18646240234375
73.38457300,73384573,-0.6127195358276367,73384573,-0.6127195358276367,0.22976982593536377,-10.18646240234375
73.38511000,73385110,-0.6893094778060913,73385110,-0.6893094778060913,0.15317988395690918,-10.263051986694336
73.38557800,73385578,-0.7658994197845459,73385578,-0.7658994197845459,0.07658994197845459,-10.263051986694336
73.38606400,73386064,-0.6893094778060913,73386064,-0.6893094778060913,0.0,-10.18646240234375
73.38658600,73386586,-0.7658994197845459,73386586,-0.7658994197845459,0.0,-10.263051986694336
73.38706400,73387064,-0.8424893617630005,73387064,-0.8424893617630005,0.15317988395690918,-10.18646240234375
73.38762400,73387624,-0.8424893617630005,73387624,-0.8424893617630005,-0.07658994197845459,-10.263051986694336
73.38807400,73388074,-0.7658994197845459,73388074,-0.7658994197845459,0.07658994197845459,-10.263051986694336
73.38856500,73388565,-0.7658994197845459,73388565,-0.7658994197845459,0.0,-10.18646240234375
73.38906100,73389061,-0.7658994197845459,73389061,-0.7658994197845459,0.07658994197845459,-10.263051986694336
73.38953600,73389536,-0.7658994197845459,73389536,-0.7658994197845459,-0.07658994197845459,-10.109872817993164
73.39012700,73390127,-0.7658994197845459,73390127,-0.7658994197845459,-0.07658994197845459,-10.18646240234375
73.39056800,73390568,-0.7658994197845459,73390568,-0.7658994197845459,0.07658994197845459,-10.18646240234375
73.39106500,73391065,-0.6127195358276367,73391065,-0.6127195358276367,-0.15317988395690918,-10.033282279968262
73.39157300,73391573,-0.6893094778060913,73391573,-0.6893094778060913,-0.07658994197845459,-10.109872817993164
73.39203600,73392036,-0.7658994197845459,73392036,-0.7658994197845459,-0.07658994197845459,-10.18646240234375
73.39264100,73392641,-0.7658994197845459,73392641,-0.7658994197845459,0.0,-10.109872817993164
73.39265300,73392653,-0.6893094778060913,73392653,-0.6893094778060913,0.0,-10.109872817993164
73.39306800,73393068,-0.7658994197845459,73393068,-0.7658994197845459,0.0,-10.033282279968262
73.39356300,73393563,-0.7658994197845459,73393563,-0.7658994197845459,-0.07658994197845459,-10.18646240234375
73.39406500,73394065,-0.6893094778060913,73394065,-0.6893094778060913,-0.15317988395690918,-9.956692695617676
73.39453400,73394534,-0.6893094778060913,73394534,-0.6893094778060913,-0.07658994197845459,-9.956692695617676
73.39513400,73395134,-0.7658994197845459,73395134,-0.7658994197845459,0.0,-10.033282279968262
73.39556800,73395568,-0.7658994197845459,73395568,-0.7658994197845459,-0.07658994197845459,-10.033282279968262
73.39606400,73396064,-0.6893094778060913,73396064,-0.6893094778060913,0.0,-10.033282279968262
73.39656500,73396565,-0.8424893617630005,73396565,-0.8424893617630005,0.0,-9.880102157592773
73.39703500,73397035,-0.6893094778060913,73397035,-0.6893094778060913,-0.07658994197845459,-9.956692695617676
73.39762900,73397629,-0.6893094778060913,73397629,-0.6893094778060913,-0.07658994197845459,-9.803512573242188
73.39810400,73398104,-0.6893094778060913,73398104,-0.6893094778060913,0.0,-9.880102157592773
73.39858000,73398580,-0.6893094778060913,73398580,-0.6893094778060913,-0.07658994197845459,-9.880102157592773
73.39906300,73399063,-0.6893094778060913,73399063,-0.6893094778060913,0.07658994197845459,-9.803512573242188
73.39954000,73399540,-0.7658994197845459,73399540,-0.7658994197845459,0.07658994197845459,-9.803512573242188
73.40012800,73400128,-0.7658994197845459,73400128,-0.7658994197845459,0.07658994197845459,-9.726922988891602
73.40057700,73400577,-0.6893094778060913,73400577,-0.6893094778060913,0.07658994197845459,-9.6503324508667
73.40106500,73401065,-0.6893094778060913,73401065,-0.6893094778060913,0.0,-9.6503324508667
73.40156700,73401567,-0.7658994197845459,73401567,-0.7658994197845459,0.0,-9.726922988891602
73.40203600,73402036,-0.6893094778060913,73402036,-0.6893094778060913,0.15317988395690918,-9.726922988891602
73.40263500,73402635,-0.6893094778060913,73402635,-0.6893094778060913,0.15317988395690918,-9.573742866516113
73.40307200,73403072,-0.6893094778060913,73403072,-0.6893094778060913,0.15317988395690918,-9.573742866516113
73.40356400,73403564,-0.6893094778060913,73403564,-0.6893094778060913,0.07658994197845459,-9.497152328491211
73.40407000,73404070,-0.7658994197845459,73404070,-0.7658994197845459,0.30635976791381836,-9.573742866516113
73.40453700,73404537,-0.7658994197845459,73404537,-0.7658994197845459,0.15317988395690918,-9.497152328491211
73.40513600,73405136,-0.6893094778060913,73405136,-0.6893094778060913,0.15317988395690918,-9.497152328491211
73.40554000,73405540,-0.7658994197845459,73405540,-0.7658994197845459,0.15317988395690918,-9.497152328491211
73.40606700,73406067,-0.6893094778060913,73406067,-0.6893094778060913,0.30635976791381836,-9.573742866516113
73.40656500,73406565,-0.6893094778060913,73406565,-0.6893094778060913,0.22976982593536377,-9.497152328491211
73.40706100,73407061,-0.7658994197845459,73407061,-0.7658994197845459,0.30635976791381836,-9.497152328491211
73.40763000,73407630,-0.6893094778060913,73407630,-0.6893094778060913,0.22976982593536377,-9.343973159790039
73.40804400,73408044,-0.6893094778060913,73408044,-0.6893094778060913,0.30635976791381836,-9.497152328491211
73.40856700,73408567,-0.6893094778060913,73408567,-0.6893094778060913,0.30635976791381836,-9.420562744140625
73.40906400,73409064,-0.6893094778060913,73409064,-0.6893094778060913,0.22976982593536377,-9.420562744140625
73.40956300,73409563,-0.6893094778060913,73409563,-0.6893094778060913,0.30635976791381836,-9.343973159790039
73.41013100,73410131,-0.6127195358276367,73410131,-0.6127195358276367,0.30635976791381836,-9.497152328491211
73.41014300,73410143,-0.6893094778060913,73410143,-0.6893094778060913,0.30635976791381836,-9.497152328491211
73.41106700,73411067,-0.6893094778060913,73411067,-0.6893094778060913,0.38294970989227295,-9.573742866516113
73.41157200,73411572,-0.7658994197845459,73411572,-0.7658994197845459,0.38294970989227295,-9.573742866516113
73.41206200,73412062,-0.6127195358276367,73412062,-0.6127195358276367,0.38294970989227295,-9.497152328491211
73.41263800,73412638,-0.6893094778060913,73412638,-0.6893094778060913,0.38294970989227295,-9.420562744140625
73.41265100,73412651,-0.6893094778060913,73412651,-0.6893094778060913,0.38294970989227295,-9.343973159790039
73.41356900,73413569,-0.6893094778060913,73413569,-0.6893094778060913,0.30635976791381836,-9.497152328491211
73.41358000,73413580,-0.6893094778060913,73413580,-0.6893094778060913,0.38294970989227295,-9.343973159790039
73.41407700,73414077,-0.7658994197845459,73414077,-0.7658994197845459,0.45953965187072754,-9.497152328491211
73.41456200,73414562,-0.6893094778060913,73414562,-0.6893094778060913,0.38294970989227295,-9.497152328491211
73.41513600,73415136,-0.6127195358276367,73415136,-0.6127195358276367,0.45953965187072754,-9.573742866516113
73.41554200,73415542,-0.8424893617630005,73415542,-0.8424893617630005,0.38294970989227295,-9.497152328491211
73.41606400,73416064,-0.6893094778060913,73416064,-0.6893094778060913,0.45953965187072754,-9.573742866516113
73.41656600,73416566,-0.7658994197845459,73416566,-0.7658994197845459,0.5361295938491821,-9.497152328491211
73.41706200,73417062,-0.6127195358276367,73417062,-0.6127195358276367,0.45953965187072754,-9.497152328491211
73.41763300,73417633,-0.6893094778060913,73417633,-0.6893094778060913,0.38294970989227295,-9.726922988891602
73.41804100,73418041,-0.6893094778060913,73418041,-0.6893094778060913,0.45953965187072754,-9.726922988891602
73.41856500,73418565,-0.7658994197845459,73418565,-0.7658994197845459,0.30635976791381836,-9.726922988891602
73.41906100,73419061,-0.7658994197845459,73419061,-0.7658994197845459,0.45953965187072754,-9.6503324508667
73.41956200,73419562,-0.6127195358276367,73419562,-0.6127195358276367,0.38294970989227295,-9.6503324508667
73.42011100,73420111,-0.6893094778060913,73420111,-0.6893094778060913,0.30635976791381836,-9.803512573242188
73.42056700,73420567,-0.7658994197845459,73420567,-0.7658994197845459,0.45953965187072754,-9.726922988891602
73.42106100,73421061,-0.6893094778060913,73421061,-0.6893094778060913,0.38294970989227295,-9.726922988891602
73.42156800,73421568,-0.6127195358276367,73421568,-0.6127195358276367,0.30635976791381836,-9.880102157592773
73.42206100,73422061,-0.6893094778060913,73422061,-0.6893094778060913,0.30635976791381836,-9.956692695617676
73.42261300,73422613,-0.6127195358276367,73422613,-0.6127195358276367,0.30635976791381836,-9.880102157592773
73.42307900,73423079,-0.6893094778060913,73423079,-0.6893094778060913,0.38294970989227295,-10.033282279968262
73.42356400,73423564,-0.6893094778060913,73423564,-0.6893094778060913,0.30635976791381836,-10.033282279968262
73.42406200,73424062,-0.6893094778060913,73424062,-0.6893094778060913,0.22976982593536377,-10.033282279968262
73.42456400,73424564,-0.6127195358276367,73424564,-0.6127195358276367,0.30635976791381836,-9.956692695617676
73.42511300,73425113,-0.6893094778060913,73425113,-0.6893094778060913,0.15317988395690918,-9.956692695617676
73.42557500,73425575,-0.6893094778060913,73425575,-0.6893094778060913,0.30635976791381836,-10.033282279968262
73.42606500,73426065,-0.7658994197845459,73426065,-0.7658994197845459,0.30635976791381836,-10.109872817993164
73.42657000,73426570,-0.6893094778060913,73426570,-0.6893094778060913,0.22976982593536377,-10.109872817993164
73.42706200,73427062,-0.6893094778060913,73427062,-0.6893094778060913,0.07658994197845459,-10.109872817993164
73.42761500,73427615,-0.6893094778060913,73427615,-0.6893094778060913,0.22976982593536377,-10.18646240234375
73.42806800,73428068,-0.6127195358276367,73428068,-0.6127195358276367,0.15317988395690918,-10.18646240234375
73.42856700,73428567,-0.7658994197845459,73428567,-0.7658994197845459,0.15317988395690918,-10.18646240234375
73.42906900,73429069,-0.7658994197845459,73429069,-0.7658994197845459,0.22976982593536377,-10.263051986694336
73.42956200,73429562,-0.6893094778060913,73429562,-0.6893094778060913,0.15317988395690918,-10.263051986694336
73.43011300,73430113,-0.6893094778060913,73430113,-0.6893094778060913,0.15317988395690918,-10.263051986694336
73.43056700,73430567,-0.6893094778060913,73430567,-0.6893094778060913,0.15317988395690918,-10.18646240234375
73.43106600,73431066,-0.6127195358276367,73431066,-0.6127195358276367,0.15317988395690918,-10.18646240234375
73.43156000,73431560,-0.6127195358276367,73431560,-0.6127195358276367,0.15317988395690918,-10.263051986694336
73.43206200,73432062,-0.6127195358276367,73432062,-0.6127195358276367,0.07658994197845459,-10.263051986694336
73.43261500,73432615,-0.6127195358276367,73432615,-0.6127195358276367,0.0,-10.339642524719238
73.43262700,73432627,-0.6127195358276367,73432627,-0.6127195358276367,-0.07658994197845459,-10.18646240234375
73.43308300,73433083,-0.6893094778060913,73433083,-0.6893094778060913,0.07658994197845459,-10.18646240234375
73.43356300,73433563,-0.6127195358276367,73433563,-0.6127195358276367,0.0,-10.263051986694336
73.43406300,73434063,-0.6893094778060913,73434063,-0.6893094778060913,0.0,-10.339642524719238
73.43456300,73434563,-0.6893094778060913,73434563,-0.6893094778060913,0.0,-10.18646240234375
73.43511200,73435112,-0.6893094778060913,73435112,-0.6893094778060913,0.0,-10.263051986694336
73.43556900,73435569,-0.6893094778060913,73435569,-0.6893094778060913,-0.07658994197845459,-10.263051986694336
73.43606800,73436068,-0.6893094778060913,73436068,-0.6893094778060913,0.07658994197845459,-10.18646240234375
73.43656200,73436562,-0.6893094778060913,73436562,-0.6893094778060913,0.0,-10.263051986694336
73.43706400,73437064,-0.6893094778060913,73437064,-0.6893094778060913,-0.22976982593536377,-10.18646240234375
73.43762000,73437620,-0.6127195358276367,73437620,-0.6127195358276367,-0.15317988395690918,-10.18646240234375
73.43807800,73438078,-0.6127195358276367,73438078,-0.6127195358276367,-0.07658994197845459,-10.18646240234375
73.43856800,73438568,-0.6127195358276367,73438568,-0.6127195358276367,0.0,-10.18646240234375
73.43906300,73439063,-0.6893094778060913,73439063,-0.6893094778060913,-0.07658994197845459,-10.033282279968262
73.43956500,73439565,-0.7658994197845459,73439565,-0.7658994197845459,0.07658994197845459,-10.109872817993164
73.44011000,73440110,-0.7658994197845459,73440110,-0.7658994197845459,-0.15317988395690918,-10.109872817993164
73.44056900,73440569,-0.6893094778060913,73440569,-0.6893094778060913,-0.15317988395690918,-10.033282279968262
73.44106000,73441060,-0.6893094778060913,73441060,-0.6893094778060913,0.0,-10.109872817993164
73.44156600,73441566,-0.7658994197845459,73441566,-0.7658994197845459,-0.15317988395690918,-10.109872817993164
73.44206100,73442061,-0.6893094778060913,73442061,-0.6893094778060913,-0.07658994197845459,-10.033282279968262
73.44261700,73442617,-0.6893094778060913,73442617,-0.6893094778060913,-0.07658994197845459,-9.880102157592773
73.44308000,73443080,-0.6893094778060913,73443080,-0.6893094778060913,-0.07658994197845459,-10.033282279968262
73.44356600,73443566,-0.6893094778060913,73443566,-0.6893094778060913,0.0,-9.956692695617676
73.44406600,73444066,-0.6127195358276367,73444066,-0.6127195358276367,0.0,-9.880102157592773
73.44456800,73444568,-0.7658994197845459,73444568,-0.7658994197845459,0.07658994197845459,-9.880102157592773
73.44511900,73445119,-0.6893094778060913,73445119,-0.6893094778060913,0.07658994197845459,-9.803512573242188
73.44557400,73445574,-0.6893094778060913,73445574,-0.6893094778060913,0.07658994197845459,-9.803512573242188
73.44606500,73446065,-0.6127195358276367,73446065,-0.6127195358276367,0.0,-9.726922988891602
73.44657200,73446572,-0.6893094778060913,73446572,-0.6893094778060913,0.07658994197845459,-9.726922988891602
73.44706500,73447065,-0.6127195358276367,73447065,-0.6127195358276367,0.07658994197845459,-9.880102157592773
73.44762200,73447622,-0.6127195358276367,73447622,-0.6127195358276367,0.07658994197845459,-9.803512573242188
73.44807200,73448072,-0.6893094778060913,73448072,-0.6893094778060913,0.07658994197845459,-9.726922988891602
73.44856700,73448567,-0.6127195358276367,73448567,-0.6127195358276367,0.15317988395690918,-9.803512573242188
73.44906100,73449061,-0.6893094778060913,73449061,-0.6893094778060913,0.15317988395690918,-9.726922988891602
73.44956600,73449566,-0.6127195358276367,73449566,-0.6127195358276367,0.15317988395690918,-9.726922988891602
73.45011400,73450114,-0.6893094778060913,73450114,-0.6893094778060913,0.15317988395690918,-9.573742866516113
73.45060600,73450606,-0.6893094778060913,73450606,-0.6893094778060913,0.22976982593536377,-9.6503324508667
73.45106600,73451066,-0.6893094778060913,73451066,-0.6893094778060913,0.15317988395690918,-9.573742866516113
73.45157100,73451571,-0.6127195358276367,73451571,-0.6127195358276367,0.30635976791381836,-9.573742866516113
73.45206200,73452062,-0.6893094778060913,73452062,-0.6893094778060913,0.15317988395690918,-9.573742866516113
73.45263300,73452633,-0.6127195358276367,73452633,-0.6127195358276367,0.30635976791381836,-9.497152328491211
73.45264500,73452645,-0.5361295938491821,73452645,-0.5361295938491821,0.30635976791381836,-9.6503324508667
73.45308200,73453082,-0.6127195358276367,73453082,-0.6127195358276367,0.22976982593536377,-9.497152328491211
73.45357100,73453571,-0.6127195358276367,73453571,-0.6127195358276367,0.30635976791381836,-9.497152328491211
73.45406500,73454065,-0.6893094778060913,73454065,-0.6893094778060913,0.22976982593536377,-9.573742866516113
73.45456400,73454564,-0.5361295938491821,73454564,-0.5361295938491821,0.30635976791381836,-9.573742866516113
73.45512400,73455124,-0.6893094778060913,73455124,-0.6893094778060913,0.30635976791381836,-9.497152328491211
73.45557200,73455572,-0.6893094778060913,73455572,-0.6893094778060913,0.15317988395690918,-9.343973159790039
73.45606900,73456069,-0.6893094778060913,73456069,-0.6893094778060913,0.38294970989227295,-9.420562744140625
73.45656800,73456568,-0.7658994197845459,73456568,-0.7658994197845459,0.30635976791381836,-9.497152328491211
73.45706800,73457068,-0.6127195358276367,73457068,-0.6127195358276367,0.38294970989227295,-9.497152328491211
73.45761700,73457617,-0.6893094778060913,73457617,-0.6893094778060913,0.38294970989227295,-9.420562744140625
73.45807100,73458071,-0.6127195358276367,73458071,-0.6127195358276367,0.30635976791381836,-9.573742866516113
73.45856900,73458569,-0.6127195358276367,73458569,-0.6127195358276367,0.30635976791381836,-9.6503324508667
73.45906500,73459065,-0.6893094778060913,73459065,-0.6893094778060913,0.30635976791381836,-9.6503324508667
73.45957000,73459570,-0.6127195358276367,73459570,-0.6127195358276367,0.30635976791381836,-9.343973159790039
73.46011400,73460114,-0.6127195358276367,73460114,-0.6127195358276367,0.30635976791381836,-9.573742866516113
73.46058100,73460581,-0.7658994197845459,73460581,-0.7658994197845459,0.38294970989227295,-9.573742866516113
73.46106600,73461066,-0.6893094778060913,73461066,-0.6893094778060913,0.30635976791381836,-9.6503324508667
73.46156500,73461565,-0.6893094778060913,73461565,-0.6893094778060913,0.22976982593536377,-9.726922988891602
73.46206300,73462063,-0.6127195358276367,73462063,-0.6127195358276367,0.30635976791381836,-9.6503324508667
73.46262700,73462627,-0.6893094778060913,73462627,-0.6893094778060913,0.22976982593536377,-9.726922988891602
73.46308200,73463082,-0.7658994197845459,73463082,-0.7658994197845459,0.30635976791381836,-9.6503324508667
73.46356400,73463564,-0.6893094778060913,73463564,-0.6893094778060913,0.38294970989227295,-9.6503324508667
73.46406200,73464062,-0.6127195358276367,73464062,-0.6127195358276367,0.30635976791381836,-9.6503324508667
73.46457100,73464571,-0.6127195358276367,73464571,-0.6127195358276367,0.38294970989227295,-9.726922988891602
73.46512000,73465120,-0.6893094778060913,73465120,-0.6893094778060913,0.30635976791381836,-9.803512573242188
73.46557200,73465572,-0.6893094778060913,73465572,-0.6893094778060913,0.15317988395690918,-9.726922988891602
73.46606700,73466067,-0.6893094778060913,73466067,-0.6893094778060913,0.30635976791381836,-9.6503324508667
73.46657300,73466573,-0.6893094778060913,73466573,-0.6893094778060913,0.30635976791381836,-9.803512573242188
73.46706100,73467061,-0.6893094778060913,73467061,-0.6893094778060913,0.30635976791381836,-9.803512573242188
73.46762400,73467624,-0.6893094778060913,73467624,-0.6893094778060913,0.30635976791381836,-10.033282279968262
73.46807300,73468073,-0.6893094778060913,73468073,-0.6893094778060913,0.22976982593536377,-9.956692695617676
73.46856400,73468564,-0.7658994197845459,73468564,-0.7658994197845459,0.38294970989227295,-9.956692695617676
73.46906200,73469062,-0.6893094778060913,73469062,-0.6893094778060913,0.22976982593536377,-9.880102157592773
73.46956200,73469562,-0.6893094778060913,73469562,-0.6893094778060913,0.15317988395690918,-9.956692695617676
73.47011000,73470110,-0.5361295938491821,73470110,-0.5361295938491821,0.22976982593536377,-9.956692695617676
73.47056800,73470568,-0.7658994197845459,73470568,-0.7658994197845459,0.22976982593536377,-10.109872817993164
73.47106200,73471062,-0.6893094778060913,73471062,-0.6893094778060913,0.22976982593536377,-10.033282279968262
73.47156800,73471568,-0.6127195358276367,73471568,-0.6127195358276367,0.15317988395690918,-10.033282279968262
73.47206000,73472060,-0.6893094778060913,73472060,-0.6893094778060913,0.22976982593536377,-10.109872817993164
73.47262700,73472627,-0.6893094778060913,73472627,-0.6893094778060913,0.07658994197845459,-10.109872817993164
73.47263900,73472639,-0.6893094778060913,73472639,-0.6893094778060913,0.15317988395690918,-10.109872817993164
73.47307800,73473078,-0.6893094778060913,73473078,-0.6893094778060913,0.15317988395690918,-10.109872817993164
73.47356200,73473562,-0.6893094778060913,73473562,-0.6893094778060913,0.15317988395690918,-10.18646240234375
73.47406400,73474064,-0.6893094778060913,73474064,-0.6893094778060913,0.07658994197845459,-10.18646240234375
73.47456600,73474566,-0.6127195358276367,73474566,-0.6127195358276367,0.07658994197845459,-10.18646240234375
73.47511100,73475111,-0.6893094778060913,73475111,-0.6893094778060913,0.07658994197845459,-10.18646240234375
73.47557900,73475579,-0.7658994197845459,73475579,-0.7658994197845459,0.07658994197845459,-10.18646240234375
73.47606400,73476064,-0.6893094778060913,73476064,-0.6893094778060913,0.07658994197845459,-10.18646240234375
73.47656900,73476569,-0.6893094778060913,73476569,-0.6893094778060913,0.15317988395690918,-10.18646240234375
73.47706500,73477065,-0.6893094778060913,73477065,-0.6893094778060913,0.07658994197845459,-10.109872817993164
73.47761800,73477618,-0.7658994197845459,73477618,-0.7658994197845459,0.07658994197845459,-10.18646240234375
73.47807500,73478075,-0.6893094778060913,73478075,-0.6893094778060913,0.07658994197845459,-10.18646240234375
73.47856600,73478566,-0.7658994197845459,73478566,-0.7658994197845459,0.07658994197845459,-10.263051986694336
73.47906000,73479060,-0.7658994197845459,73479060,-0.7658994197845459,0.22976982593536377,-10.263051986694336
73.47956200,73479562,-0.6893094778060913,73479562,-0.6893094778060913,0.0,-10.18646240234375
73.48011200,73480112,-0.6893094778060913,73480112,-0.6893094778060913,0.0,-10.263051986694336
73.48056600,73480566,-0.6893094778060913,73480566,-0.6893094778060913,0.0,-10.109872817993164
73.48106300,73481063,-0.6893094778060913,73481063,-0.6893094778060913,0.0,-10.109872817993164
73.48156600,73481566,-0.6893094778060913,73481566,-0.6893094778060913,0.0,-10.18646240234375
73.48206500,73482065,-0.7658994197845459,73482065,-0.7658994197845459,0.07658994197845459,-10.109872817993164
73.48262600,73482626,-0.6893094778060913,73482626,-0.6893094778060913,0.0,-10.033282279968262
73.48308100,73483081,-0.6893094778060913,73483081,-0.6893094778060913,0.07658994197845459,-10.109872817993164
73.48356300,73483563,-0.7658994197845459,73483563,-0.7658994197845459,0.15317988395690918,-10.109872817993164
73.48406600,73484066,-0.6893094778060913,73484066,-0.6893094778060913,0.07658994197845459,-10.033282279968262
73.48456400,73484564,-0.6893094778060913,73484564,-0.6893094778060913,0.15317988395690918,-10.109872817993164
73.48511800,73485118,-0.6893094778060913,73485118,-0.6893094778060913,0.07658994197845459,-10.033282279968262
73.48557600,73485576,-0.6127195358276367,73485576,-0.6127195358276367,0.07658994197845459,-10.033282279968262
73.48606400,73486064,-0.6893094778060913,73486064,-0.6893094778060913,0.0,-9.956692695617676
73.48656700,73486567,-0.6893094778060913,73486567,-0.6893094778060913,0.07658994197845459,-9.880102157592773
73.48706400,73487064,-0.7658994197845459,73487064,-0.7658994197845459,-0.07658994197845459,-9.803512573242188
73.48761800,73487618,-0.7658994197845459,73487618,-0.7658994197845459,0.07658994197845459,-9.956692695617676
73.48807900,73488079,-0.6893094778060913,73488079,-0.6893094778060913,0.07658994197845459,-9.803512573242188
73.48856500,73488565,-0.7658994197845459,73488565,-0.7658994197845459,0.0,-9.803512573242188
73.48906000,73489060,-0.6893094778060913,73489060,-0.6893094778060913,0.07658994197845459,-9.726922988891602
73.48956300,73489563,-0.6893094778060913,73489563,-0.6893094778060913,0.0,-9.726922988891602
73.49011100,73490111,-0.6127195358276367,73490111,-0.6127195358276367,0.15317988395690918,-9.726922988891602
73.49056800,73490568,-0.8424893617630005,73490568,-0.8424893617630005,0.15317988395690918,-9.726922988891602
73.49106100,73491061,-0.7658994197845459,73491061,-0.7658994197845459,0.15317988395690918,-9.803512573242188
73.49157700,73491577,-0.6127195358276367,73491577,-0.6127195358276367,0.07658994197845459,-9.6503324508667
73.49158800,73491588,-0.6893094778060913,73491588,-0.6893094778060913,0.15317988395690918,-9.6503324508667
73.49206100,73492061,-0.6127195358276367,73492061,-0.6127195358276367,0.22976982593536377,-9.803512573242188
73.49262000,73492620,-0.6127195358276367,73492620,-0.6127195358276367,0.22976982593536377,-9.726922988891602
73.49308100,73493081,-0.7658994197845459,73493081,-0.7658994197845459,0.15317988395690918,-9.573742866516113
73.49356100,73493561,-0.6893094778060913,73493561,-0.6893094778060913,0.22976982593536377,-9.726922988891602
73.49406200,73494062,-0.7658994197845459,73494062,-0.7658994197845459,0.15317988395690918,-9.726922988891602
73.49456300,73494563,-0.7658994197845459,73494563,-0.7658994197845459,0.22976982593536377,-9.726922988891602
73.49511400,73495114,-0.6893094778060913,73495114,-0.6893094778060913,0.22976982593536377,-9.6503324508667
73.49557200,73495572,-0.6127195358276367,73495572,-0.6127195358276367,0.22976982593536377,-9.6503324508667
73.49606800,73496068,-0.6893094778060913,73496068,-0.6893094778060913,0.15317988395690918,-9.6503324508667
73.49657000,73496570,-0.7658994197845459,73496570,-0.7658994197845459,0.22976982593536377,-9.6503324508667
73.49706200,73497062,-0.6893094778060913,73497062,-0.6893094778060913,0.30635976791381836,-9.573742866516113
73.49761500,73497615,-0.6893094778060913,73497615,-0.6893094778060913,0.22976982593536377,-9.497152328491211
73.49807100,73498071,-0.6893094778060913,73498071,-0.6893094778060913,0.22976982593536377,-9.6503324508667
73.49856700,73498567,-0.7658994197845459,73498567,-0.7658994197845459,0.30635976791381836,-9.497152328491211
73.49906500,73499065,-0.6893094778060913,73499065,-0.6893094778060913,0.15317988395690918,-9.497152328491211
73.49956600,73499566,-0.6893094778060913,73499566,-0.6893094778060913,0.22976982593536377,-9.6503324508667
73.50011100,73500111,-0.6893094778060913,73500111,-0.6893094778060913,0.22976982593536377,-9.726922988891602
73.50056900,73500569,-0.6893094778060913,73500569,-0.6893094778060913,0.22976982593536377,-9.573742866516113
73.50106200,73501062,-0.7658994197845459,73501062,-0.7658994197845459,0.30635976791381836,-9.497152328491211
73.50156800,73501568,-0.6893094778060913,73501568,-0.6893094778060913,0.30635976791381836,-9.497152328491211
73.50206200,73502062,-0.6893094778060913,73502062,-0.6893094778060913,0.30635976791381836,-9.573742866516113
73.50261600,73502616,-0.6893094778060913,73502616,-0.6893094778060913,0.22976982593536377,-9.6503324508667
73.50308000,73503080,-0.7658994197845459,73503080,-0.7658994197845459,0.30635976791381836,-9.6503324508667
73.50359100,73503591,-0.6127195358276367,73503591,-0.6127195358276367,0.38294970989227295,-9.497152328491211
73.50406500,73504065,-0.6893094778060913,73504065,-0.6893094778060913,0.38294970989227295,-9.726922988891602
73.50456100,73504561,-0.6893094778060913,73504561,-0.6893094778060913,0.22976982593536377,-9.726922988891602
73.50511800,73505118,-0.6127195358276367,73505118,-0.6127195358276367,0.30635976791381836,-9.6503324508667
73.50557000,73505570,-0.6893094778060913,73505570,-0.6893094778060913,0.38294970989227295,-9.573742866516113
73.50606400,73506064,-0.6893094778060913,73506064,-0.6893094778060913,0.30635976791381836,-9.6503324508667
73.50656700,73506567,-0.6127195358276367,73506567,-0.6127195358276367,0.22976982593536377,-9.6503324508667
73.50706600,73507066,-0.6893094778060913,73507066,-0.6893094778060913,0.22976982593536377,-9.726922988891602
73.50761600,73507616,-0.6127195358276367,73507616,-0.6127195358276367,0.30635976791381836,-9.803512573242188
73.50806900,73508069,-0.6127195358276367,73508069,-0.6127195358276367,0.30635976791381836,-9.726922988891602
73.50856700,73508567,-0.6893094778060913,73508567,-0.6893094778060913,0.22976982593536377,-9.803512573242188
73.50906100,73509061,-0.6893094778060913,73509061,-0.6893094778060913,0.22976982593536377,-9.573742866516113
73.50956300,73509563,-0.8424893617630005,73509563,-0.8424893617630005,0.22976982593536377,-9.726922988891602
73.51011700,73510117,-0.6127195358276367,73510117,-0.6127195358276367,0.15317988395690918,-9.880102157592773
73.51012900,73510129,-0.6893094778060913,73510129,-0.6893094778060913,0.22976982593536377,-9.803512573242188
73.51106700,73511067,-0.6893094778060913,73511067,-0.6893094778060913,0.15317988395690918,-10.033282279968262
73.51156000,73511560,-0.6893094778060913,73511560,-0.6893094778060913,0.22976982593536377,-9.956692695617676
73.51206900,73512069,-0.7658994197845459,73512069,-0.7658994197845459,0.15317988395690918,-9.803512573242188
73.51208000,73512080,-0.7658994197845459,73512080,-0.7658994197845459,0.22976982593536377,-9.880102157592773
73.51261100,73512611,-0.7658994197845459,73512611,-0.7658994197845459,0.15317988395690918,-10.033282279968262
73.51307800,73513078,-0.7658994197845459,73513078,-0.7658994197845459,0.22976982593536377,-9.956692695617676
73.51356300,73513563,-0.6893094778060913,73513563,-0.6893094778060913,0.22976982593536377,-10.109872817993164
73.51406500,73514065,-0.6127195358276367,73514065,-0.6127195358276367,0.15317988395690918,-9.880102157592773
73.51456100,73514561,-0.6893094778060913,73514561,-0.6893094778060913,0.07658994197845459,-10.109872817993164
73.51512300,73515123,-0.6127195358276367,73515123,-0.6127195358276367,0.07658994197845459,-10.109872817993164
73.51556700,73515567,-0.6893094778060913,73515567,-0.6893094778060913,0.15317988395690918,-10.109872817993164
73.51606400,73516064,-0.6893094778060913,73516064,-0.6893094778060913,0.15317988395690918,-10.033282279968262
73.51656800,73516568,-0.7658994197845459,73516568,-0.7658994197845459,0.07658994197845459,-10.18646240234375
73.51706400,73517064,-0.6127195358276367,73517064,-0.6127195358276367,0.15317988395690918,-10.18646240234375
73.51761500,73517615,-0.6893094778060913,73517615,-0.6893094778060913,0.15317988395690918,-10.18646240234375
73.51807800,73518078,-0.6127195358276367,73518078,-0.6127195358276367,0.07658994197845459,-10.18646240234375
73.51856600,73518566,-0.6893094778060913,73518566,-0.6893094778060913,0.0,-10.18646240234375
73.51906000,73519060,-0.6893094778060913,73519060,-0.6893094778060913,0.0,-10.18646240234375
73.51956300,73519563,-0.6127195358276367,73519563,-0.6127195358276367,0.07658994197845459,-10.18646240234375
73.52011300,73520113,-0.6893094778060913,73520113,-0.6893094778060913,0.22976982593536377,-10.18646240234375
73.52056700,73520567,-0.6893094778060913,73520567,-0.6893094778060913,0.07658994197845459,-10.109872817993164
73.52106100,73521061,-0.6127195358276367,73521061,-0.6127195358276367,0.0,-10.109872817993164
73.52156100,73521561,-0.6893094778060913,73521561,-0.6893094778060913,0.07658994197845459,-10.18646240234375
73.52206100,73522061,-0.6893094778060913,73522061,-0.6893094778060913,0.0,-10.18646240234375
73.52262100,73522621,-0.6893094778060913,73522621,-0.6893094778060913,-0.07658994197845459,-10.109872817993164
73.52308000,73523080,-0.6893094778060913,73523080,-0.6893094778060913,-0.07658994197845459,-10.109872817993164
73.52356500,73523565,-0.7658994197845459,73523565,-0.7658994197845459,0.07658994197845459,-10.18646240234375
73.52406200,73524062,-0.7658994197845459,73524062,-0.7658994197845459,0.07658994197845459,-10.263051986694336
73.52456400,73524564,-0.6127195358276367,73524564,-0.6127195358276367,0.0,-10.18646240234375
73.52510900,73525109,-0.7658994197845459,73525109,-0.7658994197845459,0.07658994197845459,-10.18646240234375
73.52557700,73525577,-0.6893094778060913,73525577,-0.6893094778060913,0.0,-10.18646240234375
73.52606800,73526068,-0.6893094778060913,73526068,-0.6893094778060913,0.07658994197845459,-10.18646240234375
73.52656900,73526569,-0.6127195358276367,73526569,-0.6127195358276367,0.15317988395690918,-10.109872817993164
73.52706300,73527063,-0.6893094778060913,73527063,-0.6893094778060913,0.0,-10.109872817993164
73.52761800,73527618,-0.6893094778060913,73527618,-0.6893094778060913,0.07658994197845459,-10.033282279968262
73.52806900,73528069,-0.6893094778060913,73528069,-0.6893094778060913,0.07658994197845459,-10.109872817993164
73.52856800,73528568,-0.6893094778060913,73528568,-0.6893094778060913,0.0,-10.109872817993164
73.52906300,73529063,-0.6893094778060913,73529063,-0.6893094778060913,0.07658994197845459,-10.18646240234375
73.52956300,73529563,-0.7658994197845459,73529563,-0.7658994197845459,0.07658994197845459,-10.109872817993164
73.53011500,73530115,-0.6893094778060913,73530115,-0.6893094778060913,0.15317988395690918,-10.033282279968262
73.53012700,73530127,-0.6127195358276367,73530127,-0.6127195358276367,0.0,-10.109872817993164
73.53106200,73531062,-0.6893094778060913,73531062,-0.6893094778060913,0.15317988395690918,-10.033282279968262
73.53157600,73531576,-0.6127195358276367,73531576,-0.6127195358276367,0.15317988395690918,-10.033282279968262
73.53158700,73531587,-0.6893094778060913,73531587,-0.6893094778060913,0.15317988395690918,-10.033282279968262
73.53206000,73532060,-0.6127195358276367,73532060,-0.6127195358276367,0.15317988395690918,-9.880102157592773
73.53262000,73532620,-0.6127195358276367,73532620,-0.6127195358276367,0.15317988395690918,-9.880102157592773
73.53307800,73533078,-0.6127195358276367,73533078,-0.6127195358276367,0.22976982593536377,-9.880102157592773
73.53356100,73533561,-0.6127195358276367,73533561,-0.6127195358276367,0.15317988395690918,-9.803512573242188
73.53407200,73534072,-0.6893094778060913,73534072,-0.6893094778060913,0.22976982593536377,-9.880102157592773
73.53456500,73534565,-0.6127195358276367,73534565,-0.6127195358276367,0.22976982593536377,-9.803512573242188
73.53511600,73535116,-0.6893094778060913,73535116,-0.6893094778060913,0.15317988395690918,-9.880102157592773
73.53557200,73535572,-0.6893094778060913,73535572,-0.6893094778060913,0.30635976791381836,-9.726922988891602
73.53606700,73536067,-0.6893094778060913,73536067,-0.6893094778060913,0.15317988395690918,-9.880102157592773
73.53656500,73536565,-0.7658994197845459,73536565,-0.7658994197845459,0.15317988395690918,-9.803512573242188
73.53706600,73537066,-0.6127195358276367,73537066,-0.6127195358276367,0.22976982593536377,-9.726922988891602
73.53761600,73537616,-0.7658994197845459,73537616,-0.7658994197845459,0.15317988395690918,-9.726922988891602
73.53807300,73538073,-0.6893094778060913,73538073,-0.6893094778060913,0.22976982593536377,-9.6503324508667
73.53856900,73538569,-0.6893094778060913,73538569,-0.6893094778060913,0.30635976791381836,-9.6503324508667
73.53906200,73539062,-0.6893094778060913,73539062,-0.6893094778060913,0.22976982593536377,-9.6503324508667
73.53956300,73539563,-0.6893094778060913,73539563,-0.6893094778060913,0.30635976791381836,-9.6503324508667
73.54011400,73540114,-0.6893094778060913,73540114,-0.6893094778060913,0.38294970989227295,-9.6503324508667
73.54056900,73540569,-0.6893094778060913,73540569,-0.6893094778060913,0.38294970989227295,-9.573742866516113
73.54106300,73541063,-0.6893094778060913,73541063,-0.6893094778060913,0.22976982593536377,-9.6503324508667
73.54157000,73541570,-0.6893094778060913,73541570,-0.6893094778060913,0.38294970989227295,-9.573742866516113
73.54206400,73542064,-0.6893094778060913,73542064,-0.6893094778060913,0.30635976791381836,-9.573742866516113
73.54262100,73542621,-0.6893094778060913,73542621,-0.6893094778060913,0.22976982593536377,-9.573742866516113
73.54307900,73543079,-0.6893094778060913,73543079,-0.6893094778060913,0.38294970989227295,-9.497152328491211
73.54356600,73543566,-0.6127195358276367,73543566,-0.6127195358276367,0.30635976791381836,-9.6503324508667
73.54406100,73544061,-0.6893094778060913,73544061,-0.6893094778060913,0.30635976791381836,-9.497152328491211
73.54456400,73544564,-0.6893094778060913,73544564,-0.6893094778060913,0.30635976791381836,-9.573742866516113
73.54511800,73545118,-0.6127195358276367,73545118,-0.6127195358276367,0.22976982593536377,-9.573742866516113
73.54557900,73545579,-0.6893094778060913,73545579,-0.6893094778060913,0.30635976791381836,-9.573742866516113
73.54606500,73546065,-0.7658994197845459,73546065,-0.7658994197845459,0.38294970989227295,-9.573742866516113
73.54657300,73546573,-0.6127195358276367,73546573,-0.6127195358276367,0.30635976791381836,-9.497152328491211
73.54706300,73547063,-0.6127195358276367,73547063,-0.6127195358276367,0.22976982593536377,-9.6503324508667
73.54761800,73547618,-0.6127195358276367,73547618,-0.6127195358276367,0.22976982593536377,-9.497152328491211
73.54807200,73548072,-0.6127195358276367,73548072,-0.6127195358276367,0.22976982593536377,-9.497152328491211
73.54857100,73548571,-0.6893094778060913,73548571,-0.6893094778060913,0.38294970989227295,-9.6503324508667
73.54906400,73549064,-0.6127195358276367,73549064,-0.6127195358276367,0.30635976791381836,-9.573742866516113
73.54956400,73549564,-0.6893094778060913,73549564,-0.6893094778060913,0.38294970989227295,-9.6503324508667
73.55012000,73550120,-0.6893094778060913,73550120,-0.6893094778060913,0.30635976791381836,-9.6503324508667
73.55013100,73550131,-0.6127195358276367,73550131,-0.6127195358276367,0.22976982593536377,-9.6503324508667
73.55106200,73551062,-0.6893094778060913,73551062,-0.6893094778060913,0.30635976791381836,-9.6503324508667
73.55157400,73551574,-0.6127195358276367,73551574,-0.6127195358276367,0.38294970989227295,-9.6503324508667
73.55158600,73551586,-0.6893094778060913,73551586,-0.6893094778060913,0.30635976791381836,-9.6503324508667
73.55206500,73552065,-0.6893094778060913,73552065,-0.6893094778060913,0.22976982593536377,-9.6503324508667
73.55261800,73552618,-0.6127195358276367,73552618,-0.6127195358276367,0.22976982593536377,-9.573742866516113
73.55308300,73553083,-0.7658994197845459,73553083,-0.7658994197845459,0.30635976791381836,-9.726922988891602
73.55356000,73553560,-0.6127195358276367,73553560,-0.6127195358276367,0.22976982593536377,-9.6503324508667
73.55406300,73554063,-0.6893094778060913,73554063,-0.6893094778060913,0.22976982593536377,-9.6503324508667
73.55456400,73554564,-0.6893094778060913,73554564,-0.6893094778060913,0.22976982593536377,-9.880102157592773
73.55510900,73555109,-0.6893094778060913,73555109,-0.6893094778060913,0.22976982593536377,-9.726922988891602
73.55560100,73555601,-0.6127195358276367,73555601,-0.6127195358276367,0.30635976791381836,-9.803512573242188
73.55606600,73556066,-0.6127195358276367,73556066,-0.6127195358276367,0.15317988395690918,-9.880102157592773
73.55656400,73556564,-0.6893094778060913,73556564,-0.6893094778060913,0.15317988395690918,-9.880102157592773
73.55706400,73557064,-0.7658994197845459,73557064,-0.7658994197845459,0.22976982593536377,-10.033282279968262
73.55761400,73557614,-0.7658994197845459,73557614,-0.7658994197845459,0.22976982593536377,-9.956692695617676
73.55807700,73558077,-0.6893094778060913,73558077,-0.6893094778060913,0.22976982593536377,-9.880102157592773
73.55856500,73558565,-0.6893094778060913,73558565,-0.6893094778060913,0.07658994197845459,-9.956692695617676
73.55906300,73559063,-0.7658994197845459,73559063,-0.7658994197845459,0.15317988395690918,-9.956692695617676
73.55956200,73559562,-0.6893094778060913,73559562,-0.6893094778060913,0.22976982593536377,-10.033282279968262
73.56011000,73560110,-0.7658994197845459,73560110,-0.7658994197845459,0.22976982593536377,-9.956692695617676
73.56057000,73560570,-0.6127195358276367,73560570,-0.6127195358276367,0.0,-10.033282279968262
73.56106300,73561063,-0.7658994197845459,73561063,-0.7658994197845459,0.0,-9.956692695617676
73.56156300,73561563,-0.6893094778060913,73561563,-0.6893094778060913,0.22976982593536377,-10.109872817993164
73.56206200,73562062,-0.6893094778060913,73562062,-0.6893094778060913,0.15317988395690918,-10.033282279968262
73.56262600,73562626,-0.6127195358276367,73562626,-0.6127195358276367,0.15317988395690918,-10.109872817993164
73.56308100,73563081,-0.7658994197845459,73563081,-0.7658994197845459,0.07658994197845459,-10.033282279968262
73.56356400,73563564,-0.6893094778060913,73563564,-0.6893094778060913,0.0,-10.263051986694336
73.56406400,73564064,-0.6893094778060913,73564064,-0.6893094778060913,0.07658994197845459,-10.109872817993164
73.56457000,73564570,-0.7658994197845459,73564570,-0.7658994197845459,0.0,-10.18646240234375
73.56511400,73565114,-0.6893094778060913,73565114,-0.6893094778060913,0.07658994197845459,-10.18646240234375
73.56557600,73565576,-0.6893094778060913,73565576,-0.6893094778060913,0.07658994197845459,-10.18646240234375
73.56606500,73566065,-0.6893094778060913,73566065,-0.6893094778060913,0.07658994197845459,-10.109872817993164
73.56656900,73566569,-0.7658994197845459,73566569,-0.7658994197845459,0.07658994197845459,-10.263051986694336
73.56706400,73567064,-0.6893094778060913,73567064,-0.6893094778060913,0.0,-10.18646240234375
73.56762000,73567620,-0.7658994197845459,73567620,-0.7658994197845459,0.07658994197845459,-10.263051986694336
73.56806800,73568068,-0.6127195358276367,73568068,-0.6127195358276367,-0.07658994197845459,-10.18646240234375
73.56856700,73568567,-0.6127195358276367,73568567,-0.6127195358276367,0.0,-10.109872817993164
73.56906100,73569061,-0.7658994197845459,73569061,-0.7658994197845459,0.07658994197845459,-10.263051986694336
73.56956100,73569561,-0.6893094778060913,73569561,-0.6893094778060913,0.15317988395690918,-10.263051986694336
73.57008400,73570084,-0.6893094778060913,73570084,-0.6893094778060913,0.15317988395690918,-10.416232109069824
73.57059300,73570593,-0.6127195358276367,73570593,-0.6127195358276367,0.07658994197845459,-10.339642524719238
73.57060500,73570605,-0.6127195358276367,73570605,-0.6127195358276367,0.0,-10.18646240234375
73.57157700,73571577,-0.6893094778060913,73571577,-0.6893094778060913,0.15317988395690918,-10.263051986694336
73.57158800,73571588,-0.6127195358276367,73571588,-0.6127195358276367,0.07658994197845459,-10.033282279968262
73.57262500,73572625,-0.6127195358276367,73572625,-0.6127195358276367,0.0,-9.956692695617676
73.57263700,73572637,-0.7658994197845459,73572637,-0.7658994197845459,0.07658994197845459,-10.109872817993164
73.57306700,73573067,-0.6127195358276367,73573067,-0.6127195358276367,0.22976982593536377,-10.109872817993164
73.57356300,73573563,-0.6893094778060913,73573563,-0.6893094778060913,0.07658994197845459,-10.18646240234375
73.57408100,73574081,-0.6893094778060913,73574081,-0.6893094778060913,0.07658994197845459,-10.109872817993164
73.57456600,73574566,-0.6893094778060913,73574566,-0.6893094778060913,0.07658994197845459,-10.033282279968262
73.57511700,73575117,-0.6127195358276367,73575117,-0.6127195358276367,0.0,-9.880102157592773
73.57557000,73575570,-0.6893094778060913,73575570,-0.6893094778060913,0.07658994197845459,-10.033282279968262
73.57606400,73576064,-0.6127195358276367,73576064,-0.6127195358276367,0.0,-10.033282279968262
73.57657500,73576575,-0.6893094778060913,73576575,-0.6893094778060913,0.15317988395690918,-10.033282279968262
73.57706300,73577063,-0.6893094778060913,73577063,-0.6893094778060913,0.0,-10.033282279968262
73.57761300,73577613,-0.6893094778060913,73577613,-0.6893094778060913,0.07658994197845459,-9.956692695617676
73.57807100,73578071,-0.6127195358276367,73578071,-0.6127195358276367,0.15317988395690918,-9.803512573242188
73.57856700,73578567,-0.8424893617630005,73578567,-0.8424893617630005,0.15317988395690918,-9.880102157592773
73.57906100,73579061,-0.7658994197845459,73579061,-0.7658994197845459,0.22976982593536377,-9.880102157592773
73.57957000,73579570,-0.7658994197845459,73579570,-0.7658994197845459,0.07658994197845459,-9.880102157592773
73.58011100,73580111,-0.6127195358276367,73580111,-0.6127195358276367,0.30635976791381836,-9.956692695617676
73.58057400,73580574,-0.6893094778060913,73580574,-0.6893094778060913,0.30635976791381836,-9.803512573242188
73.58106300,73581063,-0.6127195358276367,73581063,-0.6127195358276367,0.15317988395690918,-9.803512573242188
