timestamp,TimeUS,GYROx,TimeUS,GYROx,GYROy,GYROz
73.04102400,73041024,-0.019499629735946655,73041024,-0.019499629735946655,0.022162821143865585,0.008936329744756222
73.04151600,73041516,-0.013107848353683949,73041516,-0.013107848353683949,0.005118071101605892,-0.0006513429107144475
73.04202000,73042020,-0.007781362626701593,73042020,-0.007781362626701593,-0.004469601437449455,-0.002781936898827553
73.04257200,73042572,0.000741012510843575,73042572,0.000741012510843575,0.004052774049341679,0.0014792508445680141
73.04302400,73043024,-0.007781362626701593,73043024,-0.007781362626701593,0.011509853415191174,-0.0038472337182611227
73.04351800,73043518,-0.007781362626701593,73043518,-0.007781362626701593,0.012575148604810238,-0.004912530537694693
73.04402100,73044021,-0.0035201753489673138,73044021,-0.0035201753489673138,-0.0034043043851852417,-0.0017166398465633392
73.04451700,73044517,0.003936903551220894,73044517,0.003936903551220894,-0.01725316420197487,-0.004912530537694693
73.04506500,73045065,0.00500220013782382,73045065,0.00500220013782382,-0.027906134724617004,-0.00917371828109026
73.04552000,73045520,0.01139398105442524,73045520,0.01139398105442524,-0.027906134724617004,0.0014792508445680141
73.04601800,73046018,0.008198090828955173,73046018,0.008198090828955173,-0.015122571028769016,0.0036098449490964413
73.04652500,73046525,0.00500220013782382,73046525,0.00500220013782382,-0.004469601437449455,0.01852400228381157
73.04701600,73047016,0.001806309330277145,73047016,0.001806309330277145,0.011509853415191174,0.011066922917962074
73.04757300,73047573,0.0028716064989566803,73047573,0.0028716064989566803,0.01044455636292696,-0.0017166398465633392
73.04802000,73048020,0.007132794242352247,73048020,0.007132794242352247,0.011509853415191174,-0.010239015333354473
73.04852100,73048521,0.000741012510843575,73048521,0.000741012510843575,0.005118071101605892,-0.011304312385618687
73.04901700,73049017,0.00500220013782382,73049017,0.00500220013782382,-0.006600195541977882,0.0014792508445680141
73.04952300,73049523,-0.005650768987834454,73049523,-0.005650768987834454,-0.021514352411031723,-0.005977827589958906
73.05006300,73050063,0.0028716064989566803,73050063,0.0028716064989566803,-0.03536321222782135,-0.00917371828109026
73.05052700,73050527,0.006067497190088034,73050527,0.006067497190088034,-0.02897142991423607,-0.008108421228826046
73.05101700,73051017,0.013524575158953667,73051017,0.013524575158953667,-0.007665492128580809,0.0046751415356993675
73.05152700,73051527,0.0028716064989566803,73051527,0.0028716064989566803,0.009379259310662746,0.012132219970226288
73.05201700,73052017,-0.0035201753489673138,73052017,-0.0035201753489673138,0.015771038830280304,0.013197517022490501
73.05256500,73052565,-0.013107848353683949,73052565,-0.013107848353683949,0.007248665206134319,0.010001626797020435
73.05302100,73053021,-0.016303738579154015,73053021,-0.016303738579154015,0.01044455636292696,0.007871032692492008
73.05403100,73054031,-0.025891412049531937,73054031,-0.025891412049531937,0.006183368153870106,0.0046751415356993675
73.05404100,73054041,-0.021630223840475082,73054041,-0.021630223840475082,0.008313962258398533,-0.014500202611088753
73.05451700,73054517,-0.007781362626701593,73054517,-0.007781362626701593,0.004052774049341679,-0.00917371828109026
73.05507000,73055070,0.01458987221121788,73055070,0.01458987221121788,0.002987476997077465,-0.0017166398465633392
73.05552700,73055527,0.028438732028007507,73055527,0.028438732028007507,-0.00020841415971517563,0.023850485682487488
73.05653000,73056530,0.025242840871214867,73056530,0.025242840871214867,0.0019221799448132515,0.011066922917962074
73.05654100,73056541,0.01458987221121788,73056541,0.01458987221121788,0.005118071101605892,-0.002781936898827553
73.05701900,73057019,0.003936903551220894,73057019,0.003936903551220894,-0.002339007332921028,-0.017696093767881393
73.05757400,73057574,-0.0035201753489673138,73057574,-0.0035201753489673138,-0.011926679871976376,-0.004912530537694693
73.05802300,73058023,0.000741012510843575,73058023,0.000741012510843575,-0.006600195541977882,0.0014792508445680141
73.05902200,73059022,0.000741012510843575,73059022,0.000741012510843575,0.005118071101605892,0.015328111127018929
73.05903300,73059033,0.01458987221121788,73059033,0.01458987221121788,-0.002339007332921028,0.008936329744756222
73.05952000,73059520,0.00500220013782382,73059520,0.00500220013782382,-0.00873078964650631,0.00041395402513444424
73.06006500,73060065,0.0103286849334836,73060065,0.0103286849334836,-0.00873078964650631,-0.00704312464222312
73.06053000,73060530,-0.00032428442500531673,73060530,-0.00032428442500531673,0.006183368153870106,-0.005977827589958906
73.06152400,73061524,0.006067497190088034,73061524,0.006067497190088034,0.007248665206134319,0.0025445478968322277
73.06153800,73061538,0.003936903551220894,73061538,0.003936903551220894,0.0008568828925490379,-0.0017166398465633392
73.06201700,73062017,0.006067497190088034,73062017,0.006067497190088034,-0.009796086698770523,0.00041395402513444424
73.06256700,73062567,-0.0013895813608542085,73062567,-0.0013895813608542085,-0.01299197692424059,-0.0038472337182611227
73.06302200,73063022,0.0103286849334836,73063022,0.0103286849334836,-0.016187867149710655,-0.0006513429107144475
73.06402200,73064022,0.01139398105442524,73064022,0.01139398105442524,-0.007665492128580809,-0.005977827589958906
73.06403300,73064033,0.022046951577067375,73064033,0.022046951577067375,-0.00873078964650631,-0.005977827589958906
73.06452300,73064523,0.003936903551220894,73064523,0.003936903551220894,0.0008568828925490379,-0.011304312385618687
73.06506900,73065069,0.000741012510843575,73065069,0.000741012510843575,-0.002339007332921028,-0.00704312464222312
73.06552100,73065521,-0.008846660144627094,73065521,-0.008846660144627094,0.005118071101605892,-0.00704312464222312
73.06652900,73066529,0.000741012510843575,73066529,0.000741012510843575,-0.004469601437449455,-0.00704312464222312
73.06653900,73066539,0.0103286849334836,73066539,0.0103286849334836,-0.00020841415971517563,0.007871032692492008
73.06701800,73067018,0.015655169263482094,73067018,0.015655169263482094,0.0008568828925490379,0.0036098449490964413
73.06757300,73067573,0.008198090828955173,73067573,0.008198090828955173,0.009379259310662746,0.007871032692492008
73.06802900,73068029,-0.006716066040098667,73068029,-0.006716066040098667,0.005118071101605892,-0.004912530537694693
73.06901800,73069018,-0.013107848353683949,73069018,-0.013107848353683949,0.0008568828925490379,0.0046751415356993675
73.06951700,73069517,0.001806309330277145,73069517,0.001806309330277145,-0.006600195541977882,0.00041395402513444424
73.07006500,73070065,0.01458987221121788,73070065,0.01458987221121788,-0.00020841415971517563,-0.002781936898827553
73.07007700,73070077,0.018851060420274734,73070077,0.018851060420274734,-0.0034043043851852417,-0.004912530537694693
73.07102100,73071021,-0.00032428442500531673,73071021,-0.00032428442500531673,0.005118071101605892,0.00041395402513444424
73.07152200,73071522,-0.00458547193557024,73071522,-0.00458547193557024,0.007248665206134319,0.0046751415356993675
73.07201600,73072016,-0.006716066040098667,73072016,-0.006716066040098667,0.008313962258398533,0.0046751415356993675
73.07257500,73072575,-0.0013895813608542085,73072575,-0.0013895813608542085,0.0008568828925490379,0.006805735640227795
73.07258700,73072587,0.003936903551220894,73072587,0.003936903551220894,0.0019221799448132515,-0.0038472337182611227
73.07351800,73073518,0.007132794242352247,73073518,0.007132794242352247,0.004052774049341679,-0.0006513429107144475
73.07402200,73074022,0.013524575158953667,73074022,0.013524575158953667,0.012575148604810238,-0.013434906490147114
73.07451700,73074517,0.008198090828955173,73074517,0.008198090828955173,-0.00020841415971517563,0.0014792508445680141
73.07508300,73075083,0.00500220013782382,73075083,0.00500220013782382,-0.005534898489713669,-0.0017166398465633392
73.07509400,73075094,-0.00458547193557024,73075094,-0.00458547193557024,-0.01299197692424059,0.00041395402513444424
73.07602000,73076020,-0.014173144474625587,73076020,-0.014173144474625587,-0.002339007332921028,-0.00704312464222312
73.07652000,73076520,-0.025891412049531937,73076520,-0.025891412049531937,0.012575148604810238,-0.011304312385618687
73.07702100,73077021,-0.02056492678821087,73077021,-0.02056492678821087,0.03281579166650772,0.0014792508445680141
73.07757100,73077571,-0.007781362626701593,73077571,-0.007781362626701593,0.02961990237236023,-0.0006513429107144475
73.07758600,73077586,-0.0013895813608542085,73077586,-0.0013895813608542085,0.016836337745189667,0.006805735640227795
73.07852100,73078521,-0.00032428442500531673,73078521,-0.00032428442500531673,0.006183368153870106,0.006805735640227795
73.07901800,73079018,-0.0024548782967031,73079018,-0.0024548782967031,0.0008568828925490379,0.010001626797020435
73.07951800,73079518,-0.00032428442500531673,73079518,-0.00032428442500531673,-0.0034043043851852417,0.011066922917962074
73.08006200,73080062,0.001806309330277145,73080062,0.001806309330277145,-0.00873078964650631,0.0025445478968322277
73.08052300,73080523,0.000741012510843575,73080523,0.000741012510843575,-0.0012737102806568146,-0.005977827589958906
73.08101500,73081015,0.0028716064989566803,73081015,0.0028716064989566803,0.007248665206134319,-0.014500202611088753
73.08151800,73081518,-0.008846660144627094,73081518,-0.008846660144627094,0.007248665206134319,-0.008108421228826046
73.08201700,73082017,-0.017369035631418228,73082017,-0.017369035631418228,0.012575148604810238,-0.0006513429107144475
73.08256600,73082566,-0.022695520892739296,73082566,-0.022695520892739296,0.011509853415191174,0.006805735640227795
73.08302200,73083022,-0.010977254249155521,73083022,-0.010977254249155521,0.006183368153870106,0.00041395402513444424
73.08352100,73083521,-0.00032428442500531673,73083521,-0.00032428442500531673,-0.00020841415971517563,-0.0006513429107144475
73.08402000,73084020,0.00500220013782382,73084020,0.00500220013782382,0.002987476997077465,-0.005977827589958906
73.08452600,73084526,-0.0035201753489673138,73084526,-0.0035201753489673138,0.004052774049341679,-0.0038472337182611227
73.08506700,73085067,-0.012042551301419735,73085067,-0.012042551301419735,-0.005534898489713669,-0.0123696094378829
73.08552300,73085523,-0.017369035631418228,73085523,-0.017369035631418228,-0.007665492128580809,-0.00704312464222312
73.08601900,73086019,-0.012042551301419735,73086019,-0.012042551301419735,-0.00020841415971517563,-0.005977827589958906
73.08652300,73086523,-0.007781362626701593,73086523,-0.007781362626701593,0.014705742709338665,0.0046751415356993675
73.08701800,73087018,-0.00032428442500531673,73087018,-0.00032428442500531673,0.006183368153870106,0.007871032692492008
73.08757000,73087570,0.0028716064989566803,73087570,0.0028716064989566803,0.006183368153870106,0.00041395402513444424
73.08802100,73088021,-0.0024548782967031,73088021,-0.0024548782967031,0.004052774049341679,-0.00704312464222312
73.08851900,73088519,-0.0024548782967031,73088519,-0.0024548782967031,0.008313962258398533,-0.0038472337182611227
73.08901700,73089017,-0.007781362626701593,73089017,-0.007781362626701593,0.006183368153870106,0.0025445478968322277
73.08951800,73089518,0.00500220013782382,73089518,0.00500220013782382,0.0008568828925490379,0.014262814074754715
73.09006300,73090063,0.00500220013782382,73090063,0.00500220013782382,0.004052774049341679,0.008936329744756222
73.09052600,73090526,0.003936903551220894,73090526,0.003936903551220894,0.0019221799448132515,0.005740438587963581
73.09101600,73091016,-0.00032428442500531673,73091016,-0.00032428442500531673,0.008313962258398533,0.007871032692492008
73.09152900,73091529,-0.013107848353683949,73091529,-0.013107848353683949,0.0019221799448132515,-0.0006513429107144475
73.09201700,73092017,-0.009911957196891308,73092017,-0.009911957196891308,-0.009796086698770523,0.00041395402513444424
73.09257300,73092573,-0.012042551301419735,73092573,-0.012042551301419735,-0.019383758306503296,-0.018761390820145607
73.09302500,73093025,-0.0013895813608542085,73093025,-0.0013895813608542085,-0.007665492128580809,-0.011304312385618687
73.09351700,73093517,-0.0013895813608542085,73093517,-0.0013895813608542085,0.014705742709338665,-0.010239015333354473
73.09401900,73094019,0.007132794242352247,73094019,0.007132794242352247,0.02642400935292244,0.0025445478968322277
73.09452500,73094525,0.007132794242352247,73094525,0.007132794242352247,0.02642400935292244,-0.0038472337182611227
73.09506500,73095065,0.009263387881219387,73095065,0.009263387881219387,0.014705742709338665,-0.004912530537694693
73.09552000,73095520,0.0028716064989566803,73095520,0.0028716064989566803,0.016836337745189667,-0.0017166398465633392
73.09601800,73096018,-0.0024548782967031,73096018,-0.0024548782967031,0.013640445657074451,0.00041395402513444424
73.09651900,73096519,-0.0013895813608542085,73096519,-0.0013895813608542085,0.004052774049341679,-0.00704312464222312
73.09701800,73097018,-0.010977254249155521,73097018,-0.010977254249155521,-0.0034043043851852417,-0.020891984924674034
73.09757200,73097572,-0.00458547193557024,73097572,-0.00458547193557024,-0.009796086698770523,-0.008108421228826046
73.09802100,73098021,-0.0035201753489673138,73098021,-0.0035201753489673138,-0.007665492128580809,0.005740438587963581
73.09852500,73098525,0.006067497190088034,73098525,0.006067497190088034,-0.01299197692424059,0.025981079787015915
73.09901700,73099017,0.008198090828955173,73099017,0.008198090828955173,-0.011926679871976376,0.011066922917962074
73.09952500,73099525,0.001806309330277145,73099525,0.001806309330277145,-0.00873078964650631,0.007871032692492008
73.10006000,73100060,-0.0013895813608542085,73100060,-0.0013895813608542085,-0.011926679871976376,-0.005977827589958906
73.10053100,73100531,-0.0035201753489673138,73100531,-0.0035201753489673138,-0.00873078964650631,0.0025445478968322277
73.10101800,73101018,0.00500220013782382,73101018,0.00500220013782382,0.015771038830280304,0.010001626797020435
73.10152400,73101524,0.013524575158953667,73101524,0.013524575158953667,0.024293415248394012,0.020654596388339996
73.10201700,73102017,0.008198090828955173,73102017,0.008198090828955173,0.020032230764627457,0.010001626797020435
73.10257300,73102573,0.000741012510843575,73102573,0.000741012510843575,-0.005534898489713669,0.00041395402513444424
73.10302200,73103022,0.0028716064989566803,73103022,0.0028716064989566803,-0.019383758306503296,-0.0038472337182611227
73.10352100,73103521,-0.0013895813608542085,73103521,-0.0013895813608542085,-0.02364494651556015,-0.0038472337182611227
73.10401700,73104017,0.000741012510843575,73104017,0.000741012510843575,-0.01725316420197487,0.0036098449490964413
73.10452000,73104520,-0.012042551301419735,73104520,-0.012042551301419735,0.002987476997077465,0.0014792508445680141
73.10506800,73105068,-0.008846660144627094,73105068,-0.008846660144627094,0.011509853415191174,0.012132219970226288
73.10553200,73105532,-0.007781362626701593,73105532,-0.007781362626701593,0.018966931849718094,-0.002781936898827553
73.10602100,73106021,-0.00032428442500531673,73106021,-0.00032428442500531673,0.004052774049341679,-0.0006513429107144475
73.10652300,73106523,0.009263387881219387,73106523,0.009263387881219387,-0.0034043043851852417,-0.0038472337182611227
73.10701900,73107019,0.009263387881219387,73107019,0.009263387881219387,-0.018318461254239082,0.0014792508445680141
73.10757000,73107570,0.007132794242352247,73107570,0.007132794242352247,-0.010861382819712162,0.00041395402513444424
73.10802400,73108024,-0.0024548782967031,73108024,-0.0024548782967031,-0.004469601437449455,0.00041395402513444424
73.10852000,73108520,-0.00458547193557024,73108520,-0.00458547193557024,-0.004469601437449455,-0.002781936898827553
73.10901600,73109016,-0.008846660144627094,73109016,-0.008846660144627094,-0.0034043043851852417,-0.00917371828109026
73.10951800,73109518,-0.008846660144627094,73109518,-0.008846660144627094,-0.007665492128580809,-0.010239015333354473
73.11006100,73110061,-0.006716066040098667,73110061,-0.006716066040098667,0.005118071101605892,0.006805735640227795
73.11052500,73110525,0.007132794242352247,73110525,0.007132794242352247,0.002987476997077465,0.012132219970226288
73.11102000,73111020,0.018851060420274734,73111020,0.018851060420274734,0.0008568828925490379,0.015328111127018929
73.11151700,73111517,0.018851060420274734,73111517,0.018851060420274734,-0.006600195541977882,-0.002781936898827553
73.11202000,73112020,0.000741012510843575,73112020,0.000741012510843575,-0.00873078964650631,0.0014792508445680141
73.11256100,73112561,-0.012042551301419735,73112561,-0.012042551301419735,-0.0012737102806568146,-0.0006513429107144475
73.11302000,73113020,-0.012042551301419735,73113020,-0.012042551301419735,-0.0012737102806568146,0.00041395402513444424
73.11352000,73113520,-0.00458547193557024,73113520,-0.00458547193557024,0.005118071101605892,-0.005977827589958906
73.11402400,73114024,-0.013107848353683949,73114024,-0.013107848353683949,-0.005534898489713669,-0.00917371828109026
73.11451500,73114515,-0.021630223840475082,73114515,-0.021630223840475082,0.009379259310662746,0.00041395402513444424
73.11506900,73115069,-0.02376081794500351,73115069,-0.02376081794500351,0.01790163293480873,-0.005977827589958906
73.11551900,73115519,-0.005650768987834454,73115519,-0.005650768987834454,0.02961990237236023,0.008936329744756222
73.11601900,73116019,-0.006716066040098667,73116019,-0.006716066040098667,0.022162821143865585,0.010001626797020435
73.11651700,73116517,-0.0024548782967031,73116517,-0.0024548782967031,-0.002339007332921028,0.012132219970226288
73.11701700,73117017,-0.006716066040098667,73117017,-0.006716066040098667,-0.01299197692424059,-0.005977827589958906
73.11757100,73117571,0.00500220013782382,73117571,0.00500220013782382,-0.015122571028769016,-0.018761390820145607
73.11802300,73118023,0.003936903551220894,73118023,0.003936903551220894,0.004052774049341679,-0.015565499663352966
73.11852800,73118528,0.013524575158953667,73118528,0.013524575158953667,-0.0012737102806568146,0.0046751415356993675
73.11901700,73119017,0.008198090828955173,73119017,0.008198090828955173,0.005118071101605892,0.012132219970226288
73.11952600,73119526,0.009263387881219387,73119526,0.009263387881219387,-0.00020841415971517563,0.016393408179283142
73.12006300,73120063,0.003936903551220894,73120063,0.003936903551220894,0.004052774049341679,0.0046751415356993675
73.12052500,73120525,0.02098165452480316,73120525,0.02098165452480316,-0.015122571028769016,0.006805735640227795
73.12101800,73121018,0.01778576336801052,73121018,0.01778576336801052,-0.01725316420197487,0.005740438587963581
73.12151900,73121519,0.007132794242352247,73121519,0.007132794242352247,-0.016187867149710655,-0.0006513429107144475
73.12201700,73122017,0.001806309330277145,73122017,0.001806309330277145,-0.016187867149710655,-0.0006513429107144475
73.12256700,73122567,0.001806309330277145,73122567,0.001806309330277145,-0.02364494651556015,0.0036098449490964413
73.12302400,73123024,-0.00032428442500531673,73123024,-0.00032428442500531673,-0.00873078964650631,0.00041395402513444424
73.12351900,73123519,-0.008846660144627094,73123519,-0.008846660144627094,0.006183368153870106,0.0014792508445680141
73.12402100,73124021,-0.0035201753489673138,73124021,-0.0035201753489673138,0.02109752595424652,-0.011304312385618687
73.12452300,73124523,0.001806309330277145,73124523,0.001806309330277145,0.015771038830280304,-0.011304312385618687
73.12507100,73125071,0.000741012510843575,73125071,0.000741012510843575,0.0019221799448132515,-0.011304312385618687
73.12552100,73125521,-0.00458547193557024,73125521,-0.00458547193557024,-0.0034043043851852417,-0.0038472337182611227
73.12602000,73126020,-0.009911957196891308,73126020,-0.009911957196891308,-0.0034043043851852417,0.0046751415356993675
73.12652400,73126524,-0.005650768987834454,73126524,-0.005650768987834454,0.0019221799448132515,0.0025445478968322277
73.12702200,73127022,0.013524575158953667,73127022,0.013524575158953667,-0.007665492128580809,0.008936329744756222
73.12756900,73127569,0.030569326132535934,73127569,0.030569326132535934,-0.00020841415971517563,0.015328111127018929
73.12802300,73128023,0.02311224862933159,73128023,0.02311224862933159,0.0019221799448132515,0.013197517022490501
73.12852000,73128520,-0.0024548782967031,73128520,-0.0024548782967031,-0.00020841415971517563,0.0036098449490964413
73.12901700,73129017,-0.013107848353683949,73129017,-0.013107848353683949,-0.021514352411031723,-0.008108421228826046
73.12951700,73129517,-0.005650768987834454,73129517,-0.005650768987834454,-0.018318461254239082,-0.011304312385618687
73.13006100,73130061,0.006067497190088034,73130061,0.006067497190088034,-0.004469601437449455,-0.008108421228826046
73.13052500,73130525,0.006067497190088034,73130525,0.006067497190088034,0.007248665206134319,-0.0017166398465633392
73.13101800,73131018,0.01139398105442524,73131018,0.01139398105442524,0.011509853415191174,0.010001626797020435
73.13152700,73131527,0.012459278106689453,73131527,0.012459278106689453,0.006183368153870106,0.01852400228381157
73.13201600,73132016,0.012459278106689453,73132016,0.012459278106689453,0.0019221799448132515,0.017458705231547356
73.13257600,73132576,0.001806309330277145,73132576,0.001806309330277145,-0.005534898489713669,0.0014792508445680141
73.13302100,73133021,-0.005650768987834454,73133021,-0.005650768987834454,-0.002339007332921028,-0.00704312464222312
73.13352200,73133522,-0.008846660144627094,73133522,-0.008846660144627094,-0.014057273976504803,-0.01663079671561718
73.13402600,73134026,-0.009911957196891308,73134026,-0.009911957196891308,-0.014057273976504803,-0.02302257902920246
73.13452200,73134522,-0.007781362626701593,73134522,-0.007781362626701593,-0.02044905535876751,-0.018761390820145607
73.13507300,73135073,0.0028716064989566803,73135073,0.0028716064989566803,-0.006600195541977882,-0.004912530537694693
73.13552900,73135529,0.008198090828955173,73135529,0.008198090828955173,0.005118071101605892,0.017458705231547356
73.13602100,73136021,0.007132794242352247,73136021,0.007132794242352247,0.013640445657074451,0.022785190492868423
73.13651700,73136517,-0.0035201753489673138,73136517,-0.0035201753489673138,0.014705742709338665,0.01852400228381157
73.13701900,73137019,-0.008846660144627094,73137019,-0.008846660144627094,0.012575148604810238,0.010001626797020435
73.13756200,73137562,-0.006716066040098667,73137562,-0.006716066040098667,0.008313962258398533,0.00041395402513444424
73.13802800,73138028,-0.008846660144627094,73138028,-0.008846660144627094,0.004052774049341679,-0.002781936898827553
73.13852000,73138520,-0.010977254249155521,73138520,-0.010977254249155521,-0.00020841415971517563,-0.0038472337182611227
73.13901600,73139016,-0.005650768987834454,73139016,-0.005650768987834454,0.004052774049341679,-0.014500202611088753
73.13952200,73139522,-0.005650768987834454,73139522,-0.005650768987834454,-0.006600195541977882,-0.020891984924674034
73.14006100,73140061,-0.0013895813608542085,73140061,-0.0013895813608542085,-0.006600195541977882,-0.01663079671561718
73.14052400,73140524,-0.0013895813608542085,73140524,-0.0013895813608542085,-0.006600195541977882,0.007871032692492008
73.14101600,73141016,-0.0035201753489673138,73141016,-0.0035201753489673138,0.009379259310662746,0.020654596388339996
73.14151700,73141517,-0.0035201753489673138,73141517,-0.0035201753489673138,0.0008568828925490379,0.016393408179283142
73.14201800,73142018,-0.0013895813608542085,73142018,-0.0013895813608542085,-0.0034043043851852417,0.0036098449490964413
73.14256200,73142562,0.0028716064989566803,73142562,0.0028716064989566803,0.004052774049341679,-0.008108421228826046
73.14302100,73143021,0.001806309330277145,73143021,0.001806309330277145,0.020032230764627457,-0.01982668787240982
73.14351900,73143519,-0.0013895813608542085,73143519,-0.0013895813608542085,0.024293415248394012,-0.01982668787240982
73.14401900,73144019,0.015655169263482094,73144019,0.015655169263482094,0.011509853415191174,-0.010239015333354473
73.14451700,73144517,0.028438732028007507,73144517,0.028438732028007507,-0.006600195541977882,0.00041395402513444424
73.14506700,73145067,0.01778576336801052,73145067,0.01778576336801052,-0.015122571028769016,0.0014792508445680141
73.14552800,73145528,-0.00458547193557024,73145528,-0.00458547193557024,0.0008568828925490379,-0.0038472337182611227
73.14601900,73146019,-0.013107848353683949,73146019,-0.013107848353683949,0.008313962258398533,0.0046751415356993675
73.14652400,73146524,0.006067497190088034,73146524,0.006067497190088034,0.014705742709338665,0.007871032692492008
73.14701800,73147018,0.013524575158953667,73147018,0.013524575158953667,0.006183368153870106,0.010001626797020435
73.14756700,73147567,0.012459278106689453,73147567,0.012459278106689453,0.009379259310662746,-0.0017166398465633392
73.14802400,73148024,0.006067497190088034,73148024,0.006067497190088034,0.01044455636292696,0.0036098449490964413
73.14851800,73148518,0.018851060420274734,73148518,0.018851060420274734,-0.0034043043851852417,-0.002781936898827553
73.14901600,73149016,0.018851060420274734,73149016,0.018851060420274734,-0.01299197692424059,-0.002781936898827553
73.14951700,73149517,0.01458987221121788,73149517,0.01458987221121788,-0.021514352411031723,0.0014792508445680141
73.15006400,73150064,-0.0024548782967031,73150064,-0.0024548782967031,-0.018318461254239082,0.0036098449490964413
73.15052100,73150521,-0.010977254249155521,73150521,-0.010977254249155521,-0.011926679871976376,0.0036098449490964413
73.15101700,73151017,-0.005650768987834454,73151017,-0.005650768987834454,-0.0012737102806568146,-0.014500202611088753
73.15152600,73151526,-0.0024548782967031,73151526,-0.0024548782967031,0.011509853415191174,-0.017696093767881393
73.15201700,73152017,0.008198090828955173,73152017,0.008198090828955173,0.016836337745189667,-0.011304312385618687
73.15257300,73152573,-0.0024548782967031,73152573,-0.0024548782967031,0.014705742709338665,0.0025445478968322277
73.15302300,73153023,-0.0035201753489673138,73153023,-0.0035201753489673138,0.005118071101605892,0.013197517022490501
73.15351600,73153516,-0.008846660144627094,73153516,-0.008846660144627094,-0.00020841415971517563,0.014262814074754715
73.15402000,73154020,0.000741012510843575,73154020,0.000741012510843575,0.011509853415191174,0.0046751415356993675
73.15452100,73154521,-0.005650768987834454,73154521,-0.005650768987834454,0.011509853415191174,-0.0017166398465633392
73.15507500,73155075,-0.0024548782967031,73155075,-0.0024548782967031,0.009379259310662746,-0.0017166398465633392
73.15552700,73155527,-0.017369035631418228,73155527,-0.017369035631418228,0.002987476997077465,-0.005977827589958906
73.15602700,73156027,-0.0035201753489673138,73156027,-0.0035201753489673138,0.005118071101605892,-0.0017166398465633392
73.15652900,73156529,-0.005650768987834454,73156529,-0.005650768987834454,0.009379259310662746,0.0014792508445680141
73.15702300,73157023,0.008198090828955173,73157023,0.008198090828955173,-0.0034043043851852417,0.0025445478968322277
73.15756900,73157569,0.0028716064989566803,73157569,0.0028716064989566803,-0.00873078964650631,-0.004912530537694693
73.15802700,73158027,0.003936903551220894,73158027,0.003936903551220894,0.0019221799448132515,-0.011304312385618687
73.15852000,73158520,-0.00032428442500531673,73158520,-0.00032428442500531673,0.011509853415191174,-0.011304312385618687
73.15901800,73159018,-0.0035201753489673138,73159018,-0.0035201753489673138,0.014705742709338665,-0.005977827589958906
73.15951600,73159516,-0.0024548782967031,73159516,-0.0024548782967031,0.005118071101605892,-0.004912530537694693
73.16006100,73160061,0.01139398105442524,73160061,0.01139398105442524,0.012575148604810238,0.005740438587963581
73.16052100,73160521,0.012459278106689453,73160521,0.012459278106689453,0.006183368153870106,0.005740438587963581
73.16101700,73161017,0.007132794242352247,73161017,0.007132794242352247,-0.0012737102806568146,0.007871032692492008
73.16151700,73161517,-0.005650768987834454,73161517,-0.005650768987834454,-0.011926679871976376,0.0025445478968322277
73.16201700,73162017,-0.015238441526889801,73162017,-0.015238441526889801,0.007248665206134319,-0.00704312464222312
73.16256900,73162569,-0.008846660144627094,73162569,-0.008846660144627094,0.008313962258398533,0.0025445478968322277
73.16302000,73163020,-0.02056492678821087,73163020,-0.02056492678821087,0.018966931849718094,-0.002781936898827553
73.16352000,73163520,-0.015238441526889801,73163520,-0.015238441526889801,0.007248665206134319,0.0036098449490964413
73.16401700,73164017,-0.017369035631418228,73164017,-0.017369035631418228,0.013640445657074451,-0.00704312464222312
73.16451800,73164518,-0.008846660144627094,73164518,-0.008846660144627094,0.008313962258398533,-0.0038472337182611227
73.16506900,73165069,-0.00032428442500531673,73165069,-0.00032428442500531673,0.01044455636292696,0.0036098449490964413
73.16553000,73165530,0.018851060420274734,73165530,0.018851060420274734,0.002987476997077465,0.014262814074754715
73.16601900,73166019,0.012459278106689453,73166019,0.012459278106689453,-0.00020841415971517563,0.017458705231547356
73.16652500,73166525,0.01139398105442524,73166525,0.01139398105442524,-0.009796086698770523,0.0036098449490964413
73.16701900,73167019,0.001806309330277145,73167019,0.001806309330277145,-0.014057273976504803,-0.01663079671561718
73.16757000,73167570,0.007132794242352247,73167570,0.007132794242352247,-0.01299197692424059,-0.018761390820145607
73.16802700,73168027,0.000741012510843575,73168027,0.000741012510843575,-0.016187867149710655,-0.015565499663352966
73.16851900,73168519,-0.005650768987834454,73168519,-0.005650768987834454,-0.011926679871976376,-0.008108421228826046
73.16902200,73169022,-0.006716066040098667,73169022,-0.006716066040098667,-0.00873078964650631,-0.0006513429107144475
73.16951800,73169518,-0.0035201753489673138,73169518,-0.0035201753489673138,0.01044455636292696,0.006805735640227795
73.17006700,73170067,-0.008846660144627094,73170067,-0.008846660144627094,0.022162821143865585,0.013197517022490501
73.17052200,73170522,-0.01843433268368244,73170522,-0.01843433268368244,0.02109752595424652,0.012132219970226288
73.17101600,73171016,-0.029087301343679428,73171016,-0.029087301343679428,0.011509853415191174,0.0014792508445680141
73.17152000,73171520,-0.02376081794500351,73171520,-0.02376081794500351,0.006183368153870106,-0.004912530537694693
73.17201800,73172018,-0.00032428442500531673,73172018,-0.00032428442500531673,0.01044455636292696,-0.014500202611088753
73.17256400,73172564,0.01778576336801052,73172564,0.01778576336801052,0.01044455636292696,-0.0017166398465633392
73.17302200,73173022,0.02098165452480316,73173022,0.02098165452480316,-0.00020841415971517563,-0.002781936898827553
73.17351600,73173516,0.006067497190088034,73173516,0.006067497190088034,-0.011926679871976376,0.012132219970226288
73.17401900,73174019,0.006067497190088034,73174019,0.006067497190088034,-0.014057273976504803,0.011066922917962074
73.17451800,73174518,0.000741012510843575,73174518,0.000741012510843575,0.002987476997077465,0.0014792508445680141
73.17506600,73175066,0.003936903551220894,73175066,0.003936903551220894,0.005118071101605892,-0.015565499663352966
73.17552000,73175520,-0.0013895813608542085,73175520,-0.0013895813608542085,0.013640445657074451,-0.020891984924674034
73.17601900,73176019,-0.00458547193557024,73176019,-0.00458547193557024,0.0019221799448132515,-0.0038472337182611227
73.17651800,73176518,0.000741012510843575,73176518,0.000741012510843575,0.008313962258398533,0.013197517022490501
73.17701800,73177018,0.000741012510843575,73177018,0.000741012510843575,0.008313962258398533,0.014262814074754715
73.17756300,73177563,0.000741012510843575,73177563,0.000741012510843575,0.006183368153870106,0.005740438587963581
73.17802800,73178028,-0.0035201753489673138,73178028,-0.0035201753489673138,-0.002339007332921028,-0.008108421228826046
73.17852000,73178520,-0.009911957196891308,73178520,-0.009911957196891308,-0.018318461254239082,0.0025445478968322277
73.17901700,73179017,-0.00032428442500531673,73179017,-0.00032428442500531673,-0.019383758306503296,0.0025445478968322277
73.17952000,73179520,-0.0013895813608542085,73179520,-0.0013895813608542085,-0.009796086698770523,0.0036098449490964413
73.18006300,73180063,0.01778576336801052,73180063,0.01778576336801052,0.004052774049341679,-0.00704312464222312
73.18052700,73180527,0.019916357472538948,73180527,0.019916357472538948,-0.00873078964650631,-0.0006513429107144475
73.18101600,73181016,0.02098165452480316,73181016,0.02098165452480316,-0.01299197692424059,-0.0017166398465633392
73.18152500,73181525,0.0103286849334836,73181525,0.0103286849334836,-0.009796086698770523,0.0036098449490964413
73.18201700,73182017,0.000741012510843575,73182017,0.000741012510843575,0.01790163293480873,-0.00704312464222312
73.18257000,73182570,0.00500220013782382,73182570,0.00500220013782382,0.015771038830280304,-0.013434906490147114
73.18302300,73183023,0.003936903551220894,73183023,0.003936903551220894,0.01044455636292696,-0.0123696094378829
73.18351700,73183517,0.000741012510843575,73183517,0.000741012510843575,0.014705742709338665,0.0025445478968322277
73.18401700,73184017,0.0028716064989566803,73184017,0.0028716064989566803,0.025358714163303375,0.013197517022490501
73.18452800,73184528,-0.005650768987834454,73184528,-0.005650768987834454,0.025358714163303375,0.011066922917962074
73.18506200,73185062,-0.006716066040098667,73185062,-0.006716066040098667,0.0019221799448132515,0.0046751415356993675
73.18552400,73185524,-0.006716066040098667,73185524,-0.006716066040098667,-0.024710243567824364,0.0014792508445680141
73.18601700,73186017,0.000741012510843575,73186017,0.000741012510843575,-0.022579649463295937,-0.005977827589958906
73.18652100,73186521,0.006067497190088034,73186521,0.006067497190088034,0.0008568828925490379,-0.005977827589958906
73.18701700,73187017,0.007132794242352247,73187017,0.007132794242352247,0.002987476997077465,-0.014500202611088753
73.18756600,73187566,0.003936903551220894,73187566,0.003936903551220894,0.006183368153870106,-0.002781936898827553
73.18802100,73188021,-0.00458547193557024,73188021,-0.00458547193557024,0.015771038830280304,-0.0123696094378829
73.18854900,73188549,-0.01843433268368244,73188549,-0.01843433268368244,0.025358714163303375,0.0046751415356993675
73.18901700,73189017,-0.01843433268368244,73189017,-0.01843433268368244,0.030685197561979294,0.00041395402513444424
73.18952000,73189520,-0.0035201753489673138,73189520,-0.0035201753489673138,0.007248665206134319,0.013197517022490501
73.19006600,73190066,0.008198090828955173,73190066,0.008198090828955173,0.01044455636292696,0.011066922917962074
73.19052200,73190522,0.003936903551220894,73190522,0.003936903551220894,-0.002339007332921028,0.00041395402513444424
73.19101600,73191016,-0.00032428442500531673,73191016,-0.00032428442500531673,-0.007665492128580809,-0.005977827589958906
73.19152100,73191521,0.003936903551220894,73191521,0.003936903551220894,-0.016187867149710655,0.0014792508445680141
73.19201800,73192018,-0.00032428442500531673,73192018,-0.00032428442500531673,0.0008568828925490379,0.00041395402513444424
73.19256900,73192569,-0.007781362626701593,73192569,-0.007781362626701593,0.015771038830280304,0.00041395402513444424
73.19302100,73193021,-0.015238441526889801,73193021,-0.015238441526889801,0.027489308267831802,-0.00704312464222312
73.19351700,73193517,-0.007781362626701593,73193517,-0.007781362626701593,0.009379259310662746,0.006805735640227795
73.19401800,73194018,-0.00032428442500531673,73194018,-0.00032428442500531673,0.004052774049341679,0.0036098449490964413
73.19452000,73194520,-0.013107848353683949,73194520,-0.013107848353683949,0.005118071101605892,0.0036098449490964413
73.19506900,73195069,-0.014173144474625587,73195069,-0.014173144474625587,0.005118071101605892,0.005740438587963581
73.19553100,73195531,-0.016303738579154015,73195531,-0.016303738579154015,-0.007665492128580809,0.011066922917962074
73.19602300,73196023,-0.0035201753489673138,73196023,-0.0035201753489673138,-0.024710243567824364,-0.004912530537694693
73.19652800,73196528,-0.007781362626701593,73196528,-0.007781362626701593,-0.016187867149710655,-0.014500202611088753
73.19702700,73197027,-0.014173144474625587,73197027,-0.014173144474625587,0.002987476997077465,-0.018761390820145607
73.19756800,73197568,-0.009911957196891308,73197568,-0.009911957196891308,0.028554603457450867,-0.004912530537694693
73.19802500,73198025,-0.0013895813608542085,73198025,-0.0013895813608542085,0.03281579166650772,-0.0038472337182611227
73.19852000,73198520,0.01139398105442524,73198520,0.01139398105442524,0.020032230764627457,0.014262814074754715
73.19901700,73199017,0.008198090828955173,73199017,0.008198090828955173,0.013640445657074451,0.014262814074754715
73.19951700,73199517,0.013524575158953667,73199517,0.013524575158953667,-0.0034043043851852417,0.012132219970226288
73.20006300,73200063,0.008198090828955173,73200063,0.008198090828955173,-0.0012737102806568146,-0.0123696094378829
73.20052100,73200521,0.012459278106689453,73200521,0.012459278106689453,0.006183368153870106,-0.010239015333354473
73.20101800,73201018,0.000741012510843575,73201018,0.000741012510843575,0.02109752595424652,-0.010239015333354473
73.20152000,73201520,-0.0024548782967031,73201520,-0.0024548782967031,0.028554603457450867,0.0025445478968322277
73.20201700,73202017,-0.010977254249155521,73202017,-0.010977254249155521,0.015771038830280304,0.0025445478968322277
73.20257100,73202571,-0.010977254249155521,73202571,-0.010977254249155521,0.011509853415191174,0.011066922917962074
73.20302100,73203021,-0.017369035631418228,73203021,-0.017369035631418228,0.008313962258398533,0.0046751415356993675
73.20352000,73203520,-0.016303738579154015,73203520,-0.016303738579154015,0.011509853415191174,-0.002781936898827553
73.20401900,73204019,-0.02056492678821087,73204019,-0.02056492678821087,0.008313962258398533,-0.0038472337182611227
73.20452600,73204526,-0.022695520892739296,73204526,-0.022695520892739296,0.0019221799448132515,-0.008108421228826046
73.20506400,73205064,-0.014173144474625587,73205064,-0.014173144474625587,0.008313962258398533,0.00041395402513444424
73.20552200,73205522,-0.005650768987834454,73205522,-0.005650768987834454,0.013640445657074451,0.0014792508445680141
73.20602100,73206021,0.0028716064989566803,73206021,0.0028716064989566803,0.011509853415191174,0.005740438587963581
73.20651900,73206519,-0.0013895813608542085,73206519,-0.0013895813608542085,-0.002339007332921028,0.008936329744756222
73.20701700,73207017,-0.00032428442500531673,73207017,-0.00032428442500531673,-0.011926679871976376,0.0025445478968322277
73.20756500,73207565,-0.0013895813608542085,73207565,-0.0013895813608542085,0.002987476997077465,-0.0006513429107144475
73.20802100,73208021,0.007132794242352247,73208021,0.007132794242352247,-0.0034043043851852417,-0.00917371828109026
73.20851900,73208519,0.013524575158953667,73208519,0.013524575158953667,-0.006600195541977882,-0.010239015333354473
73.20901600,73209016,0.006067497190088034,73209016,0.006067497190088034,-0.015122571028769016,0.0014792508445680141
73.20951800,73209518,-0.00458547193557024,73209518,-0.00458547193557024,-0.004469601437449455,0.007871032692492008
73.21006400,73210064,-0.005650768987834454,73210064,-0.005650768987834454,0.013640445657074451,0.012132219970226288
73.21052200,73210522,0.006067497190088034,73210522,0.006067497190088034,0.024293415248394012,0.006805735640227795
73.21102100,73211021,-0.006716066040098667,73211021,-0.006716066040098667,0.03175049647688866,-0.0017166398465633392
73.21151900,73211519,-0.024826114997267723,73211519,-0.024826114997267723,0.027489308267831802,0.0025445478968322277
73.21201800,73212018,-0.03547908365726471,73212018,-0.03547908365726471,0.01790163293480873,0.0036098449490964413
73.21256200,73212562,-0.028022004291415215,73212562,-0.028022004291415215,0.015771038830280304,-0.005977827589958906
73.21302300,73213023,-0.0035201753489673138,73213023,-0.0035201753489673138,-0.002339007332921028,-0.011304312385618687
73.21351700,73213517,0.008198090828955173,73213517,0.008198090828955173,-0.00873078964650631,-0.00917371828109026
73.21401900,73214019,0.019916357472538948,73214019,0.019916357472538948,-0.01725316420197487,0.013197517022490501
73.21451700,73214517,0.012459278106689453,73214517,0.012459278106689453,-0.014057273976504803,0.011066922917962074
73.21506800,73215068,0.019916357472538948,73215068,0.019916357472538948,-0.018318461254239082,0.00041395402513444424
73.21552100,73215521,0.01139398105442524,73215521,0.01139398105442524,-0.022579649463295937,-0.013434906490147114
73.21601900,73216019,0.007132794242352247,73216019,0.007132794242352247,-0.03003672882914543,0.00041395402513444424
73.21651700,73216517,-0.00032428442500531673,73216517,-0.00032428442500531673,-0.024710243567824364,0.016393408179283142
73.21701900,73217019,0.009263387881219387,73217019,0.009263387881219387,-0.014057273976504803,0.014262814074754715
73.21757000,73217570,0.013524575158953667,73217570,0.013524575158953667,-0.002339007332921028,-0.0006513429107144475
73.21802900,73218029,-0.00032428442500531673,73218029,-0.00032428442500531673,-0.002339007332921028,-0.024087876081466675
73.21851900,73218519,-0.010977254249155521,73218519,-0.010977254249155521,-0.01299197692424059,-0.01982668787240982
73.21901600,73219016,-0.015238441526889801,73219016,-0.015238441526889801,-0.01725316420197487,-0.01982668787240982
73.21952000,73219520,-0.0013895813608542085,73219520,-0.0013895813608542085,-0.018318461254239082,0.00041395402513444424
73.22006200,73220062,0.01139398105442524,73220062,0.01139398105442524,-0.01299197692424059,0.008936329744756222
73.22052100,73220521,0.022046951577067375,73220521,0.022046951577067375,-0.009796086698770523,0.010001626797020435
73.22101900,73221019,0.019916357472538948,73221019,0.019916357472538948,-0.00020841415971517563,0.00041395402513444424
73.22152500,73221525,0.012459278106689453,73221525,0.012459278106689453,0.0019221799448132515,-0.0006513429107144475
73.22201700,73222017,0.000741012510843575,73222017,0.000741012510843575,0.015771038830280304,0.0046751415356993675
73.22256900,73222569,-0.013107848353683949,73222569,-0.013107848353683949,0.027489308267831802,0.007871032692492008
73.22302000,73223020,-0.02376081794500351,73223020,-0.02376081794500351,0.03175049647688866,-0.00704312464222312
73.22351800,73223518,-0.031217895448207855,73223518,-0.031217895448207855,0.028554603457450867,-0.013434906490147114
73.22452200,73224522,-0.017369035631418228,73224522,-0.017369035631418228,0.007248665206134319,-0.010239015333354473
73.22453300,73224533,0.001806309330277145,73224533,0.001806309330277145,-0.006600195541977882,-0.004912530537694693
73.22506300,73225063,0.01139398105442524,73225063,0.01139398105442524,-0.005534898489713669,0.0046751415356993675
73.22552400,73225524,0.01139398105442524,73225524,0.01139398105442524,0.002987476997077465,0.0025445478968322277
73.22601800,73226018,-0.00458547193557024,73226018,-0.00458547193557024,0.01044455636292696,0.0036098449490964413
73.22702300,73227023,0.003936903551220894,73227023,0.003936903551220894,0.004052774049341679,-0.0017166398465633392
73.22703300,73227033,0.008198090828955173,73227033,0.008198090828955173,0.004052774049341679,-0.0038472337182611227
73.22757300,73227573,0.016720466315746307,73227573,0.016720466315746307,0.016836337745189667,0.0036098449490964413
73.22802100,73228021,0.006067497190088034,73228021,0.006067497190088034,0.016836337745189667,0.006805735640227795
73.22852100,73228521,0.0028716064989566803,73228521,0.0028716064989566803,0.011509853415191174,0.0025445478968322277
73.22952300,73229523,0.003936903551220894,73229523,0.003936903551220894,0.002987476997077465,0.005740438587963581
73.22953400,73229534,-0.0013895813608542085,73229534,-0.0013895813608542085,0.006183368153870106,0.00041395402513444424
73.23006100,73230061,-0.0013895813608542085,73230061,-0.0013895813608542085,-0.002339007332921028,0.006805735640227795
73.23052900,73230529,-0.010977254249155521,73230529,-0.010977254249155521,-0.005534898489713669,-0.002781936898827553
73.23101700,73231017,-0.00458547193557024,73231017,-0.00458547193557024,-0.019383758306503296,0.008936329744756222
73.23202400,73232024,-0.0035201753489673138,73232024,-0.0035201753489673138,-0.018318461254239082,0.007871032692492008
73.23203400,73232034,-0.00458547193557024,73232034,-0.00458547193557024,-0.006600195541977882,0.01852400228381157
73.23256900,73232569,-0.008846660144627094,73232569,-0.008846660144627094,0.018966931849718094,0.00041395402513444424
73.23302000,73233020,-0.006716066040098667,73233020,-0.006716066040098667,0.03601168468594551,-0.002781936898827553
73.23351900,73233519,0.000741012510843575,73233519,0.000741012510843575,0.04133816808462143,-0.017696093767881393
73.23452800,73234528,0.015655169263482094,73234528,0.015655169263482094,0.02961990237236023,-0.0123696094378829
73.23453900,73234539,0.024177543818950653,73234539,0.024177543818950653,-0.0012737102806568146,0.00041395402513444424
73.23506300,73235063,0.033765215426683426,73235063,0.033765215426683426,-0.01725316420197487,-0.0017166398465633392
73.23552700,73235527,0.024177543818950653,73235527,0.024177543818950653,-0.022579649463295937,-0.005977827589958906
73.23652700,73236527,0.015655169263482094,73236527,0.015655169263482094,-0.018318461254239082,-0.00917371828109026
73.23701700,73237017,-0.00032428442500531673,73237017,-0.00032428442500531673,-0.01725316420197487,0.005740438587963581
73.23757500,73237575,-0.014173144474625587,73237575,-0.014173144474625587,-0.00873078964650631,0.007871032692492008
73.23758700,73237587,-0.02056492678821087,73237587,-0.02056492678821087,0.006183368153870106,-0.002781936898827553
73.23852200,73238522,-0.02056492678821087,73238522,-0.02056492678821087,0.002987476997077465,-0.0038472337182611227
73.23901600,73239016,-0.006716066040098667,73239016,-0.006716066040098667,-0.004469601437449455,0.006805735640227795
73.23951700,73239517,-0.0024548782967031,73239517,-0.0024548782967031,-0.004469601437449455,0.008936329744756222
73.24006900,73240069,0.00500220013782382,73240069,0.00500220013782382,0.002987476997077465,0.0025445478968322277
73.24008000,73240080,0.016720466315746307,73240080,0.016720466315746307,0.008313962258398533,0.0014792508445680141
73.24102000,73241020,0.025242840871214867,73241020,0.025242840871214867,0.002987476997077465,-0.002781936898827553
73.24152400,73241524,0.025242840871214867,73241524,0.025242840871214867,-0.005534898489713669,0.00041395402513444424
73.24201700,73242017,0.008198090828955173,73242017,0.008198090828955173,-0.01725316420197487,-0.008108421228826046
73.24257300,73242573,-0.00458547193557024,73242573,-0.00458547193557024,-0.014057273976504803,0.0036098449490964413
73.24258400,73242584,-0.009911957196891308,73242584,-0.009911957196891308,0.005118071101605892,-0.004912530537694693
73.24351800,73243518,-0.009911957196891308,73243518,-0.009911957196891308,0.023228120058774948,-0.0123696094378829
73.24401800,73244018,-0.007781362626701593,73244018,-0.007781362626701593,0.022162821143865585,-0.017696093767881393
73.24451700,73244517,-0.008846660144627094,73244517,-0.008846660144627094,0.004052774049341679,-0.005977827589958906
73.24507200,73245072,0.006067497190088034,73245072,0.006067497190088034,-0.005534898489713669,0.014262814074754715
73.24508400,73245084,0.00500220013782382,73245084,0.00500220013782382,-0.004469601437449455,0.010001626797020435
73.24602300,73246023,-0.0035201753489673138,73246023,-0.0035201753489673138,0.0019221799448132515,0.006805735640227795
73.24652300,73246523,-0.014173144474625587,73246523,-0.014173144474625587,0.002987476997077465,-0.0006513429107144475
73.24702000,73247020,-0.019499629735946655,73247020,-0.019499629735946655,0.008313962258398533,-0.00917371828109026
73.24757400,73247574,-0.007781362626701593,73247574,-0.007781362626701593,-0.002339007332921028,-0.00704312464222312
73.24758500,73247585,-0.008846660144627094,73247585,-0.008846660144627094,-0.007665492128580809,-0.011304312385618687
73.24852000,73248520,-0.006716066040098667,73248520,-0.006716066040098667,-0.02044905535876751,0.0036098449490964413
73.24901800,73249018,0.006067497190088034,73249018,0.006067497190088034,-0.00873078964650631,0.013197517022490501
73.24952000,73249520,0.000741012510843575,73249520,0.000741012510843575,0.007248665206134319,0.00041395402513444424
73.25006700,73250067,0.0103286849334836,73250067,0.0103286849334836,0.014705742709338665,0.0014792508445680141
73.25052000,73250520,-0.00458547193557024,73250520,-0.00458547193557024,0.012575148604810238,-0.00704312464222312
73.25102200,73251022,-0.008846660144627094,73251022,-0.008846660144627094,0.006183368153870106,0.011066922917962074
73.25152500,73251525,-0.01843433268368244,73251525,-0.01843433268368244,0.006183368153870106,0.005740438587963581
73.25202000,73252020,-0.026956707239151,73252020,-0.026956707239151,0.0008568828925490379,-0.004912530537694693
73.25257300,73252573,-0.015238441526889801,73252573,-0.015238441526889801,-0.00873078964650631,-0.014500202611088753
73.25302600,73253026,0.000741012510843575,73253026,0.000741012510843575,-0.015122571028769016,-0.005977827589958906
73.25351800,73253518,0.008198090828955173,73253518,0.008198090828955173,-0.010861382819712162,-0.0006513429107144475
73.25401900,73254019,-0.00032428442500531673,73254019,-0.00032428442500531673,0.002987476997077465,0.0036098449490964413
73.25451800,73254518,-0.010977254249155521,73254518,-0.010977254249155521,0.011509853415191174,-0.0038472337182611227
73.25507000,73255070,-0.0035201753489673138,73255070,-0.0035201753489673138,0.006183368153870106,0.005740438587963581
73.25552400,73255524,0.0103286849334836,73255524,0.0103286849334836,-0.010861382819712162,0.0014792508445680141
73.25602400,73256024,0.008198090828955173,73256024,0.008198090828955173,-0.01299197692424059,0.005740438587963581
73.25652500,73256525,0.01139398105442524,73256525,0.01139398105442524,-0.009796086698770523,-0.0038472337182611227
73.25702000,73257020,0.008198090828955173,73257020,0.008198090828955173,-0.0034043043851852417,0.0036098449490964413
73.25757200,73257572,0.01458987221121788,73257572,0.01458987221121788,-0.0012737102806568146,0.00041395402513444424
73.25802500,73258025,0.007132794242352247,73258025,0.007132794242352247,0.0019221799448132515,0.0046751415356993675
73.25851900,73258519,-0.005650768987834454,73258519,-0.005650768987834454,0.005118071101605892,0.0025445478968322277
73.25901900,73259019,-0.012042551301419735,73259019,-0.012042551301419735,0.002987476997077465,0.006805735640227795
73.25952500,73259525,-0.015238441526889801,73259525,-0.015238441526889801,0.002987476997077465,0.00041395402513444424
73.26006400,73260064,0.003936903551220894,73260064,0.003936903551220894,-0.00020841415971517563,-0.00704312464222312
73.26052700,73260527,0.013524575158953667,73260527,0.013524575158953667,0.0008568828925490379,-0.0123696094378829
73.26101600,73261016,0.016720466315746307,73261016,0.016720466315746307,-0.011926679871976376,-0.014500202611088753
73.26151800,73261518,0.000741012510843575,73261518,0.000741012510843575,-0.01299197692424059,-0.011304312385618687
73.26201800,73262018,-0.013107848353683949,73262018,-0.013107848353683949,-0.014057273976504803,-0.0006513429107144475
73.26256300,73262563,-0.008846660144627094,73262563,-0.008846660144627094,-0.002339007332921028,0.012132219970226288
73.26302200,73263022,-0.0013895813608542085,73263022,-0.0013895813608542085,-0.0012737102806568146,0.014262814074754715
73.26351700,73263517,-0.0035201753489673138,73263517,-0.0035201753489673138,0.004052774049341679,0.0036098449490964413
73.26401800,73264018,-0.014173144474625587,73264018,-0.014173144474625587,0.006183368153870106,0.0014792508445680141
73.26452000,73264520,-0.014173144474625587,73264520,-0.014173144474625587,0.0019221799448132515,0.0025445478968322277
73.26507000,73265070,-0.013107848353683949,73265070,-0.013107848353683949,0.006183368153870106,-0.00917371828109026
73.26552700,73265527,-0.0035201753489673138,73265527,-0.0035201753489673138,0.0019221799448132515,-0.011304312385618687
73.26601700,73266017,-0.0024548782967031,73266017,-0.0024548782967031,0.002987476997077465,-0.002781936898827553
73.26652000,73266520,0.01778576336801052,73266520,0.01778576336801052,-0.011926679871976376,0.019589299336075783
73.26701800,73267018,0.0103286849334836,73267018,0.0103286849334836,-0.0034043043851852417,0.007871032692492008
73.26756600,73267566,0.000741012510843575,73267566,0.000741012510843575,0.0008568828925490379,-0.011304312385618687
73.26802800,73268028,-0.014173144474625587,73268028,-0.014173144474625587,0.012575148604810238,-0.011304312385618687
73.26852100,73268521,-0.007781362626701593,73268521,-0.007781362626701593,0.007248665206134319,0.00041395402513444424
73.26901700,73269017,0.001806309330277145,73269017,0.001806309330277145,0.015771038830280304,0.014262814074754715
73.26951800,73269518,0.0028716064989566803,73269518,0.0028716064989566803,0.018966931849718094,-0.0006513429107144475
73.27006300,73270063,-0.007781362626701593,73270063,-0.007781362626701593,0.016836337745189667,-0.01663079671561718
73.27052100,73270521,-0.02376081794500351,73270521,-0.02376081794500351,-0.005534898489713669,-0.018761390820145607
73.27101700,73271017,-0.017369035631418228,73271017,-0.017369035631418228,-0.01725316420197487,-0.00704312464222312
73.27152200,73271522,0.000741012510843575,73271522,0.000741012510843575,-0.015122571028769016,0.007871032692492008
73.27201700,73272017,0.016720466315746307,73272017,0.016720466315746307,-0.005534898489713669,0.007871032692492008
73.27257100,73272571,0.02630813792347908,73272571,0.02630813792347908,-0.004469601437449455,0.00041395402513444424
73.27302100,73273021,0.01778576336801052,73273021,0.01778576336801052,-0.011926679871976376,0.019589299336075783
73.27352000,73273520,0.000741012510843575,73273520,0.000741012510843575,-0.019383758306503296,0.02171989344060421
73.27401700,73274017,-0.017369035631418228,73274017,-0.017369035631418228,-0.02364494651556015,0.022785190492868423
73.27451800,73274518,-0.01843433268368244,73274518,-0.01843433268368244,-0.009796086698770523,-0.01663079671561718
73.27506900,73275069,-0.0013895813608542085,73275069,-0.0013895813608542085,0.002987476997077465,-0.015565499663352966
73.27552100,73275521,0.00500220013782382,73275521,0.00500220013782382,0.016836337745189667,-0.0038472337182611227
73.27602000,73276020,-0.0013895813608542085,73276020,-0.0013895813608542085,0.014705742709338665,0.010001626797020435
73.27652000,73276520,-0.007781362626701593,73276520,-0.007781362626701593,0.005118071101605892,0.0014792508445680141
73.27701900,73277019,-0.016303738579154015,73277019,-0.016303738579154015,-0.006600195541977882,-0.008108421228826046
73.27756900,73277569,-0.009911957196891308,73277569,-0.009911957196891308,-0.009796086698770523,0.007871032692492008
73.27803000,73278030,-0.013107848353683949,73278030,-0.013107848353683949,0.002987476997077465,0.020654596388339996
73.27852000,73278520,-0.007781362626701593,73278520,-0.007781362626701593,0.012575148604810238,0.025981079787015915
73.27901600,73279016,0.008198090828955173,73279016,0.008198090828955173,0.015771038830280304,0.011066922917962074
73.27951900,73279519,0.01458987221121788,73279519,0.01458987221121788,0.01044455636292696,-0.0038472337182611227
73.28006200,73280062,0.01458987221121788,73280062,0.01458987221121788,0.004052774049341679,0.00041395402513444424
73.28052300,73280523,-0.005650768987834454,73280523,-0.005650768987834454,-0.0034043043851852417,-0.0017166398465633392
73.28101800,73281018,-0.012042551301419735,73281018,-0.012042551301419735,-0.009796086698770523,0.0025445478968322277
73.28152100,73281521,-0.01843433268368244,73281521,-0.01843433268368244,0.007248665206134319,-0.017696093767881393
73.28201600,73282016,-0.008846660144627094,73282016,-0.008846660144627094,0.0019221799448132515,-0.0123696094378829
73.28256800,73282568,-0.0035201753489673138,73282568,-0.0035201753489673138,0.0019221799448132515,-0.010239015333354473
73.28302100,73283021,0.006067497190088034,73283021,0.006067497190088034,-0.014057273976504803,-0.008108421228826046
73.28351700,73283517,0.007132794242352247,73283517,0.007132794242352247,-0.00873078964650631,-0.0038472337182611227
73.28401700,73284017,0.00500220013782382,73284017,0.00500220013782382,0.0008568828925490379,0.0014792508445680141
73.28452000,73284520,0.000741012510843575,73284520,0.000741012510843575,-0.00020841415971517563,0.020654596388339996
73.28506400,73285064,-0.00458547193557024,73285064,-0.00458547193557024,0.009379259310662746,0.015328111127018929
73.28553100,73285531,-0.006716066040098667,73285531,-0.006716066040098667,0.01044455636292696,0.005740438587963581
73.28601800,73286018,-0.006716066040098667,73286018,-0.006716066040098667,0.016836337745189667,-0.010239015333354473
73.28652500,73286525,-0.009911957196891308,73286525,-0.009911957196891308,0.015771038830280304,-0.002781936898827553
73.28701800,73287018,0.0028716064989566803,73287018,0.0028716064989566803,0.005118071101605892,0.014262814074754715
73.28757600,73287576,0.013524575158953667,73287576,0.013524575158953667,-0.00873078964650631,0.03130756691098213
73.28802300,73288023,0.018851060420274734,73288023,0.018851060420274734,-0.01299197692424059,0.019589299336075783
73.28852000,73288520,-0.0013895813608542085,73288520,-0.0013895813608542085,-0.007665492128580809,-0.002781936898827553
73.28901900,73289019,-0.008846660144627094,73289019,-0.008846660144627094,-0.005534898489713669,-0.027283765375614166
73.28952000,73289520,-0.0035201753489673138,73289520,-0.0035201753489673138,-0.007665492128580809,-0.015565499663352966
73.29006200,73290062,0.008198090828955173,73290062,0.008198090828955173,-0.006600195541977882,-0.008108421228826046
73.29053000,73290530,0.00500220013782382,73290530,0.00500220013782382,-0.005534898489713669,0.005740438587963581
73.29102200,73291022,-0.008846660144627094,73291022,-0.008846660144627094,0.002987476997077465,-0.005977827589958906
73.29152000,73291520,-0.013107848353683949,73291520,-0.013107848353683949,0.009379259310662746,0.0025445478968322277
73.29201800,73292018,-0.00032428442500531673,73292018,-0.00032428442500531673,0.023228120058774948,-0.0017166398465633392
73.29256700,73292567,0.009263387881219387,73292567,0.009263387881219387,0.015771038830280304,0.0046751415356993675
73.29302100,73293021,0.013524575158953667,73293021,0.013524575158953667,0.011509853415191174,-0.008108421228826046
73.29351800,73293518,0.008198090828955173,73293518,0.008198090828955173,-0.002339007332921028,-0.005977827589958906
73.29401800,73294018,0.016720466315746307,73294018,0.016720466315746307,-0.004469601437449455,-0.008108421228826046
73.29451700,73294517,0.01139398105442524,73294517,0.01139398105442524,-0.014057273976504803,-0.0017166398465633392
73.29506900,73295069,-0.0024548782967031,73295069,-0.0024548782967031,0.004052774049341679,0.0046751415356993675
73.29552900,73295529,-0.025891412049531937,73295529,-0.025891412049531937,0.020032230764627457,0.0046751415356993675
73.29601800,73296018,-0.02056492678821087,73296018,-0.02056492678821087,0.02961990237236023,0.008936329744756222
73.29652400,73296524,-0.0024548782967031,73296524,-0.0024548782967031,-0.00020841415971517563,0.0014792508445680141
73.29701700,73297017,0.008198090828955173,73297017,0.008198090828955173,-0.02044905535876751,-0.00704312464222312
73.29757000,73297570,0.013524575158953667,73297570,0.013524575158953667,-0.03642851114273071,-0.002781936898827553
73.29802600,73298026,0.009263387881219387,73298026,0.009263387881219387,-0.02364494651556015,-0.0017166398465633392
73.29852200,73298522,0.003936903551220894,73298522,0.003936903551220894,-0.009796086698770523,0.00041395402513444424
73.29901600,73299016,-0.012042551301419735,73299016,-0.012042551301419735,-0.002339007332921028,-0.015565499663352966
73.29951800,73299518,-0.014173144474625587,73299518,-0.014173144474625587,-0.006600195541977882,-0.015565499663352966
73.30006600,73300066,0.006067497190088034,73300066,0.006067497190088034,-0.00873078964650631,-0.0017166398465633392
73.30052200,73300522,0.01458987221121788,73300522,0.01458987221121788,-0.00873078964650631,0.007871032692492008
73.30101800,73301018,0.01139398105442524,73301018,0.01139398105442524,0.004052774049341679,0.013197517022490501
73.30152400,73301524,-0.006716066040098667,73301524,-0.006716066040098667,0.009379259310662746,0.010001626797020435
73.30201700,73302017,-0.005650768987834454,73302017,-0.005650768987834454,0.022162821143865585,-0.00704312464222312
73.30258000,73302580,-0.00458547193557024,73302580,-0.00458547193557024,0.015771038830280304,-0.008108421228826046
73.30302100,73303021,-0.00458547193557024,73303021,-0.00458547193557024,0.006183368153870106,-0.013434906490147114
73.30351800,73303518,-0.007781362626701593,73303518,-0.007781362626701593,-0.002339007332921028,0.014262814074754715
73.30402200,73304022,-0.008846660144627094,73304022,-0.008846660144627094,-0.00020841415971517563,0.011066922917962074
73.30452000,73304520,0.0028716064989566803,73304520,0.0028716064989566803,0.005118071101605892,0.00041395402513444424
73.30507200,73305072,0.007132794242352247,73305072,0.007132794242352247,0.005118071101605892,-0.0038472337182611227
73.30552700,73305527,0.000741012510843575,73305527,0.000741012510843575,-0.00020841415971517563,-0.010239015333354473
73.30601900,73306019,-0.008846660144627094,73306019,-0.008846660144627094,-0.00020841415971517563,0.006805735640227795
73.30652000,73306520,-0.0013895813608542085,73306520,-0.0013895813608542085,0.005118071101605892,0.013197517022490501
73.30701600,73307016,0.003936903551220894,73307016,0.003936903551220894,0.020032230764627457,0.03130756691098213
73.30757200,73307572,-0.0024548782967031,73307572,-0.0024548782967031,0.015771038830280304,0.020654596388339996
73.30802700,73308027,-0.008846660144627094,73308027,-0.008846660144627094,0.0019221799448132515,-0.004912530537694693
73.30852000,73308520,-0.0024548782967031,73308520,-0.0024548782967031,-0.015122571028769016,-0.02515317313373089
73.30902500,73309025,0.00500220013782382,73309025,0.00500220013782382,-0.0034043043851852417,-0.020891984924674034
73.30952800,73309528,0.0028716064989566803,73309528,0.0028716064989566803,0.014705742709338665,-0.005977827589958906
73.31006700,73310067,-0.013107848353683949,73310067,-0.013107848353683949,0.028554603457450867,-0.0017166398465633392
73.31052800,73310528,-0.013107848353683949,73310528,-0.013107848353683949,0.022162821143865585,-0.0038472337182611227
73.31102100,73311021,-0.016303738579154015,73311021,-0.016303738579154015,0.018966931849718094,-0.0123696094378829
73.31151700,73311517,-0.005650768987834454,73311517,-0.005650768987834454,0.018966931849718094,-0.004912530537694693
73.31201800,73312018,-0.012042551301419735,73312018,-0.012042551301419735,0.015771038830280304,-0.0038472337182611227
73.31256300,73312563,-0.0013895813608542085,73312563,-0.0013895813608542085,0.016836337745189667,0.010001626797020435
73.31302100,73313021,0.001806309330277145,73313021,0.001806309330277145,0.023228120058774948,0.0046751415356993675
73.31351500,73313515,0.001806309330277145,73313515,0.001806309330277145,0.03281579166650772,-0.0017166398465633392
73.31401800,73314018,-0.008846660144627094,73314018,-0.008846660144627094,0.014705742709338665,-0.0006513429107144475
73.31451600,73314516,-0.02376081794500351,73314516,-0.02376081794500351,-0.00020841415971517563,-0.0017166398465633392
73.31506500,73315065,-0.025891412049531937,73315065,-0.025891412049531937,-0.015122571028769016,0.0046751415356993675
73.31552100,73315521,-0.028022004291415215,73315521,-0.028022004291415215,-0.0034043043851852417,0.0014792508445680141
73.31601900,73316019,-0.017369035631418228,73316019,-0.017369035631418228,-0.004469601437449455,0.007871032692492008
73.31651800,73316518,-0.006716066040098667,73316518,-0.006716066040098667,0.006183368153870106,0.010001626797020435
73.31701800,73317018,-0.00032428442500531673,73317018,-0.00032428442500531673,0.002987476997077465,0.007871032692492008
73.31757200,73317572,-0.0035201753489673138,73317572,-0.0035201753489673138,0.012575148604810238,0.008936329744756222
73.31802700,73318027,-0.007781362626701593,73318027,-0.007781362626701593,0.005118071101605892,0.0025445478968322277
73.31852200,73318522,-0.01843433268368244,73318522,-0.01843433268368244,0.006183368153870106,-0.00704312464222312
73.31901800,73319018,-0.008846660144627094,73319018,-0.008846660144627094,0.002987476997077465,0.0014792508445680141
73.31952300,73319523,-0.008846660144627094,73319523,-0.008846660144627094,0.008313962258398533,0.00041395402513444424
73.32006000,73320060,0.01139398105442524,73320060,0.01139398105442524,0.009379259310662746,0.007871032692492008
73.32053100,73320531,0.01778576336801052,73320531,0.01778576336801052,0.006183368153870106,-0.0038472337182611227
73.32101700,73321017,0.02311224862933159,73321017,0.02311224862933159,-0.00020841415971517563,-0.005977827589958906
73.32152400,73321524,0.012459278106689453,73321524,0.012459278106689453,0.002987476997077465,-0.004912530537694693
73.32201900,73322019,-0.0013895813608542085,73322019,-0.0013895813608542085,0.0019221799448132515,-0.0006513429107144475
73.32257700,73322577,-0.0035201753489673138,73322577,-0.0035201753489673138,-0.010861382819712162,0.010001626797020435
73.32302000,73323020,-0.0024548782967031,73323020,-0.0024548782967031,-0.018318461254239082,-0.004912530537694693
73.32351900,73323519,-0.00032428442500531673,73323519,-0.00032428442500531673,-0.02364494651556015,-0.010239015333354473
73.32401800,73324018,0.001806309330277145,73324018,0.001806309330277145,-0.004469601437449455,-0.01663079671561718
73.32452400,73324524,0.00500220013782382,73324524,0.00500220013782382,0.0008568828925490379,0.0014792508445680141
73.32507000,73325070,-0.0035201753489673138,73325070,-0.0035201753489673138,0.016836337745189667,-0.0038472337182611227
73.32552400,73325524,-0.009911957196891308,73325524,-0.009911957196891308,0.015771038830280304,-0.0038472337182611227
73.32601800,73326018,-0.01843433268368244,73326018,-0.01843433268368244,0.016836337745189667,0.0025445478968322277
73.32652200,73326522,-0.005650768987834454,73326522,-0.005650768987834454,-0.006600195541977882,0.015328111127018929
73.32701600,73327016,0.012459278106689453,73327016,0.012459278106689453,-0.018318461254239082,0.014262814074754715
73.32757200,73327572,0.007132794242352247,73327572,0.007132794242352247,-0.015122571028769016,0.0025445478968322277
73.32802200,73328022,0.00500220013782382,73328022,0.00500220013782382,-0.0012737102806568146,-0.0038472337182611227
73.32852600,73328526,-0.015238441526889801,73328526,-0.015238441526889801,0.007248665206134319,0.0014792508445680141
73.32901700,73329017,-0.007781362626701593,73329017,-0.007781362626701593,0.002987476997077465,0.0025445478968322277
73.32951800,73329518,-0.005650768987834454,73329518,-0.005650768987834454,0.01044455636292696,-0.008108421228826046
73.33006300,73330063,0.003936903551220894,73330063,0.003936903551220894,0.007248665206134319,-0.020891984924674034
73.33052700,73330527,0.015655169263482094,73330527,0.015655169263482094,-0.0012737102806568146,-0.013434906490147114
73.33101600,73331016,0.01458987221121788,73331016,0.01458987221121788,-0.0012737102806568146,0.007871032692492008
73.33152600,73331526,-0.0024548782967031,73331526,-0.0024548782967031,0.002987476997077465,0.0014792508445680141
73.33201600,73332016,-0.016303738579154015,73332016,-0.016303738579154015,0.011509853415191174,-0.0038472337182611227
73.33257300,73332573,-0.012042551301419735,73332573,-0.012042551301419735,0.0008568828925490379,-0.002781936898827553
73.33302100,73333021,0.0028716064989566803,73333021,0.0028716064989566803,-0.007665492128580809,0.022785190492868423
73.33351800,73333518,-0.0035201753489673138,73333518,-0.0035201753489673138,-0.002339007332921028,0.011066922917962074
73.33401800,73334018,-0.009911957196891308,73334018,-0.009911957196891308,0.002987476997077465,-0.002781936898827553
73.33452300,73334523,-0.02056492678821087,73334523,-0.02056492678821087,0.013640445657074451,-0.01982668787240982
73.33506300,73335063,-0.0035201753489673138,73335063,-0.0035201753489673138,0.007248665206134319,-0.00704312464222312
73.33552100,73335521,0.0103286849334836,73335521,0.0103286849334836,0.012575148604810238,-0.0038472337182611227
73.33601900,73336019,0.013524575158953667,73336019,0.013524575158953667,0.009379259310662746,0.008936329744756222
73.33651700,73336517,0.009263387881219387,73336517,0.009263387881219387,0.004052774049341679,0.007871032692492008
73.33702300,73337023,0.008198090828955173,73337023,0.008198090828955173,-0.011926679871976376,0.011066922917962074
73.33756900,73337569,0.01139398105442524,73337569,0.01139398105442524,-0.016187867149710655,0.007871032692492008
73.33802600,73338026,0.008198090828955173,73338026,0.008198090828955173,-0.009796086698770523,-0.0017166398465633392
73.33852000,73338520,-0.00458547193557024,73338520,-0.00458547193557024,0.007248665206134319,-0.00917371828109026
73.33901600,73339016,-0.0035201753489673138,73339016,-0.0035201753489673138,0.005118071101605892,-0.0123696094378829
73.33952100,73339521,0.00500220013782382,73339521,0.00500220013782382,0.01790163293480873,-0.0038472337182611227
73.34006200,73340062,0.01458987221121788,73340062,0.01458987221121788,0.009379259310662746,0.0046751415356993675
73.34052600,73340526,0.016720466315746307,73340526,0.016720466315746307,0.009379259310662746,0.006805735640227795
73.34101800,73341018,0.003936903551220894,73341018,0.003936903551220894,0.012575148604810238,0.0036098449490964413
73.34151900,73341519,-0.0013895813608542085,73341519,-0.0013895813608542085,0.007248665206134319,0.00041395402513444424
73.34201700,73342017,-0.009911957196891308,73342017,-0.009911957196891308,0.006183368153870106,-0.0017166398465633392
73.34256800,73342568,-0.0024548782967031,73342568,-0.0024548782967031,-0.002339007332921028,0.005740438587963581
73.34302100,73343021,-0.007781362626701593,73343021,-0.007781362626701593,0.008313962258398533,0.0014792508445680141
73.34352200,73343522,0.000741012510843575,73343522,0.000741012510843575,0.025358714163303375,0.005740438587963581
73.34401700,73344017,-0.0035201753489673138,73344017,-0.0035201753489673138,0.023228120058774948,-0.004912530537694693
73.34452100,73344521,-0.0013895813608542085,73344521,-0.0013895813608542085,0.01044455636292696,-0.004912530537694693
73.34506200,73345062,-0.014173144474625587,73345062,-0.014173144474625587,-0.005534898489713669,-0.014500202611088753
73.34552900,73345529,-0.00458547193557024,73345529,-0.00458547193557024,-0.002339007332921028,0.010001626797020435
73.34604000,73346040,0.000741012510843575,73346040,0.000741012510843575,0.01044455636292696,0.0249157827347517
73.34652600,73346526,0.012459278106689453,73346526,0.012459278106689453,0.02109752595424652,0.028111673891544342
73.34701800,73347018,0.0103286849334836,73347018,0.0103286849334836,-0.0034043043851852417,0.0046751415356993675
73.34757300,73347573,0.003936903551220894,73347573,0.003936903551220894,-0.022579649463295937,-0.008108421228826046
73.34802100,73348021,-0.008846660144627094,73348021,-0.008846660144627094,-0.03642851114273071,-0.021957281976938248
73.34852000,73348520,-0.012042551301419735,73348520,-0.012042551301419735,-0.01725316420197487,-0.01982668787240982
73.34901700,73349017,-0.00458547193557024,73349017,-0.00458547193557024,-0.011926679871976376,-0.0123696094378829
73.34951800,73349518,0.003936903551220894,73349518,0.003936903551220894,-0.004469601437449455,-0.005977827589958906
73.35006400,73350064,-0.0035201753489673138,73350064,-0.0035201753489673138,-0.0012737102806568146,0.0025445478968322277
73.35052200,73350522,-0.013107848353683949,73350522,-0.013107848353683949,0.002987476997077465,0.012132219970226288
73.35101700,73351017,-0.007781362626701593,73351017,-0.007781362626701593,-0.005534898489713669,0.020654596388339996
73.35151900,73351519,0.001806309330277145,73351519,0.001806309330277145,-0.016187867149710655,0.016393408179283142
73.35201900,73352019,0.013524575158953667,73352019,0.013524575158953667,-0.010861382819712162,0.00041395402513444424
73.35256900,73352569,0.019916357472538948,73352569,0.019916357472538948,-0.007665492128580809,-0.008108421228826046
73.35302000,73353020,0.02098165452480316,73353020,0.02098165452480316,0.004052774049341679,-0.005977827589958906
73.35351900,73353519,0.008198090828955173,73353519,0.008198090828955173,0.002987476997077465,-0.0038472337182611227
73.35402000,73354020,0.007132794242352247,73354020,0.007132794242352247,-0.004469601437449455,0.007871032692492008
73.35451900,73354519,0.009263387881219387,73354519,0.009263387881219387,-0.007665492128580809,0.0046751415356993675
73.35506500,73355065,0.001806309330277145,73355065,0.001806309330277145,0.002987476997077465,0.0014792508445680141
73.35552900,73355529,-0.008846660144627094,73355529,-0.008846660144627094,0.01044455636292696,-0.0006513429107144475
73.35602000,73356020,-0.02056492678821087,73356020,-0.02056492678821087,0.008313962258398533,-0.00917371828109026
73.35651800,73356518,0.0028716064989566803,73356518,0.0028716064989566803,-0.02044905535876751,-0.010239015333354473
73.35702300,73357023,0.006067497190088034,73357023,0.006067497190088034,-0.01725316420197487,-0.01663079671561718
73.35756400,73357564,0.000741012510843575,73357564,0.000741012510843575,-0.011926679871976376,-0.0123696094378829
73.35803200,73358032,-0.017369035631418228,73358032,-0.017369035631418228,0.012575148604810238,-0.013434906490147114
73.35852100,73358521,-0.015238441526889801,73358521,-0.015238441526889801,0.02642400935292244,-0.002781936898827553
73.35901600,73359016,-0.009911957196891308,73359016,-0.009911957196891308,0.030685197561979294,0.00041395402513444424
73.35951900,73359519,-0.0013895813608542085,73359519,-0.0013895813608542085,0.02961990237236023,0.016393408179283142
73.36006300,73360063,-0.00458547193557024,73360063,-0.00458547193557024,0.022162821143865585,0.013197517022490501
73.36052000,73360520,-0.008846660144627094,73360520,-0.008846660144627094,0.020032230764627457,0.0025445478968322277
73.36101800,73361018,-0.013107848353683949,73361018,-0.013107848353683949,0.012575148604810238,-0.005977827589958906
73.36151800,73361518,-0.017369035631418228,73361518,-0.017369035631418228,-0.0012737102806568146,-0.0123696094378829
73.36201700,73362017,-0.008846660144627094,73362017,-0.008846660144627094,-0.009796086698770523,-0.005977827589958906
73.36256300,73362563,-0.009911957196891308,73362563,-0.009911957196891308,-0.002339007332921028,-0.002781936898827553
73.36302300,73363023,-0.0024548782967031,73363023,-0.0024548782967031,0.007248665206134319,0.0046751415356993675
73.36351700,73363517,-0.014173144474625587,73363517,-0.014173144474625587,-0.0012737102806568146,0.017458705231547356
73.36401700,73364017,-0.016303738579154015,73364017,-0.016303738579154015,-0.00873078964650631,0.02171989344060421
73.36451700,73364517,-0.026956707239151,73364517,-0.026956707239151,-0.009796086698770523,0.012132219970226288
73.36507100,73365071,-0.01843433268368244,73365071,-0.01843433268368244,-0.0012737102806568146,0.0014792508445680141
73.36552400,73365524,-0.017369035631418228,73365524,-0.017369035631418228,0.007248665206134319,-0.0123696094378829
73.36601800,73366018,-0.009911957196891308,73366018,-0.009911957196891308,0.016836337745189667,-0.017696093767881393
73.36651900,73366519,-0.01843433268368244,73366519,-0.01843433268368244,0.018966931849718094,-0.021957281976938248
73.36701600,73367016,-0.029087301343679428,73367016,-0.029087301343679428,0.01790163293480873,-0.020891984924674034
73.36757100,73367571,-0.0386749729514122,73367571,-0.0386749729514122,0.005118071101605892,-0.005977827589958906
73.36802500,73368025,-0.03760967776179314,73368025,-0.03760967776179314,0.012575148604810238,0.0036098449490964413
73.36852000,73368520,-0.034413788467645645,73368520,-0.034413788467645645,0.008313962258398533,0.005740438587963581
73.36901700,73369017,-0.025891412049531937,73369017,-0.025891412049531937,0.013640445657074451,0.007871032692492008
73.36952100,73369521,-0.02056492678821087,73369521,-0.02056492678821087,0.008313962258398533,0.008936329744756222
73.37006200,73370062,-0.015238441526889801,73370062,-0.015238441526889801,-0.0034043043851852417,0.00041395402513444424
73.37052600,73370526,-0.010977254249155521,73370526,-0.010977254249155521,-0.005534898489713669,0.0046751415356993675
73.37101900,73371019,-0.005650768987834454,73371019,-0.005650768987834454,-0.014057273976504803,0.011066922917962074
73.37151900,73371519,-0.009911957196891308,73371519,-0.009911957196891308,-0.005534898489713669,0.02171989344060421
73.37201700,73372017,-0.010977254249155521,73372017,-0.010977254249155521,-0.016187867149710655,0.010001626797020435
73.37256800,73372568,-0.012042551301419735,73372568,-0.012042551301419735,-0.016187867149710655,-0.011304312385618687
73.37302000,73373020,0.006067497190088034,73373020,0.006067497190088034,-0.018318461254239082,-0.01663079671561718
73.37351800,73373518,0.006067497190088034,73373518,0.006067497190088034,-0.01299197692424059,-0.015565499663352966
73.37401800,73374018,0.009263387881219387,73374018,0.009263387881219387,-0.007665492128580809,-0.005977827589958906
73.37451700,73374517,0.009263387881219387,73374517,0.009263387881219387,-0.002339007332921028,0.008936329744756222
73.37506800,73375068,0.02098165452480316,73375068,0.02098165452480316,-0.0012737102806568146,0.0249157827347517
73.37552700,73375527,0.02311224862933159,73375527,0.02311224862933159,0.008313962258398533,0.022785190492868423
73.37602200,73376022,0.022046951577067375,73376022,0.022046951577067375,0.008313962258398533,0.0014792508445680141
73.37651800,73376518,0.022046951577067375,73376518,0.022046951577067375,0.008313962258398533,-0.01982668787240982
73.37702800,73377028,0.03269992023706436,73377028,0.03269992023706436,-0.009796086698770523,-0.01663079671561718
73.37756300,73377563,0.0433528907597065,73377563,0.0433528907597065,-0.009796086698770523,0.005740438587963581
73.37802600,73378026,0.05613645166158676,73378026,0.05613645166158676,-0.002339007332921028,0.007871032692492008
73.37851900,73378519,0.05933234468102455,73378519,0.05933234468102455,0.009379259310662746,-0.00704312464222312
73.37901700,73379017,0.06252823770046234,73379017,0.06252823770046234,0.01044455636292696,-0.01982668787240982
73.37951800,73379518,0.0635935366153717,73379518,0.0635935366153717,0.006183368153870106,-0.011304312385618687
73.38006300,73380063,0.07424650341272354,73380063,0.07424650341272354,-0.002339007332921028,-0.008108421228826046
73.38052300,73380523,0.08383417874574661,73380523,0.08383417874574661,-0.0034043043851852417,-0.010239015333354473
73.38101700,73381017,0.10087892413139343,73381017,0.10087892413139343,-0.0034043043851852417,-0.017696093767881393
73.38152100,73381521,0.09768303483724594,73381521,0.09768303483724594,0.002987476997077465,-0.011304312385618687
73.38201600,73382016,0.09342184662818909,73382016,0.09342184662818909,0.004052774049341679,-0.004912530537694693
73.38257500,73382575,0.08489947021007538,73382575,0.08489947021007538,-0.0034043043851852417,0.007871032692492008
73.38302000,73383020,0.08916065841913223,73383020,0.08916065841913223,-0.0034043043851852417,0.006805735640227795
73.38351800,73383518,0.10514011234045029,73383518,0.10514011234045029,-0.014057273976504803,0.0014792508445680141
73.38401800,73384018,0.11685838550329208,73384018,0.11685838550329208,-0.009796086698770523,-0.008108421228826046
73.38452300,73384523,0.11792367696762085,73384523,0.11792367696762085,-0.01725316420197487,-0.00704312464222312
73.38506100,73385061,0.10514011234045029,73385061,0.10514011234045029,-0.022579649463295937,-0.0006513429107144475
73.38552400,73385524,0.10514011234045029,73385524,0.10514011234045029,-0.014057273976504803,0.0014792508445680141
73.38601900,73386019,0.10620541125535965,73386019,0.10620541125535965,-0.005534898489713669,0.0036098449490964413
73.38652800,73386528,0.11472778767347336,73386528,0.11472778767347336,-0.006600195541977882,-0.0017166398465633392
73.38701800,73387018,0.0987483337521553,73387018,0.0987483337521553,-0.018318461254239082,-0.004912530537694693
73.38756700,73387567,0.0902259573340416,73387567,0.0902259573340416,-0.024710243567824364,0.00041395402513444424
73.38802800,73388028,0.07744239270687103,73388028,0.07744239270687103,-0.0012737102806568146,-0.0017166398465633392
73.38851900,73388519,0.07211591303348541,73388519,0.07211591303348541,0.022162821143865585,0.00041395402513444424
73.38901700,73389017,0.07105061411857605,73389017,0.07105061411857605,0.03814227506518364,0.0046751415356993675
73.39006800,73390068,0.0667894259095192,73390068,0.0667894259095192,0.03281579166650772,0.014262814074754715
73.39007900,73390079,0.06465883553028107,73390079,0.06465883553028107,0.015771038830280304,0.010001626797020435
73.39052100,73390521,0.042287591844797134,73390521,0.042287591844797134,0.008313962258398533,-0.004912530537694693
73.39101900,73391019,0.03269992023706436,73391019,0.03269992023706436,0.009379259310662746,-0.01663079671561718
73.39152700,73391527,0.02311224862933159,73391527,0.02311224862933159,0.002987476997077465,-0.010239015333354473
73.39257300,73392573,0.024177543818950653,73392573,0.024177543818950653,-0.00020841415971517563,-0.0017166398465633392
73.39258500,73392585,0.030569326132535934,73392585,0.030569326132535934,0.002987476997077465,-0.00704312464222312
73.39302100,73393021,0.03802640363574028,73393021,0.03802640363574028,0.014705742709338665,-0.0123696094378829
73.39351700,73393517,0.042287591844797134,73393517,0.042287591844797134,0.02109752595424652,-0.008108421228826046
73.39402000,73394020,0.022046951577067375,73394020,0.022046951577067375,0.0019221799448132515,0.006805735640227795
73.39507500,73395075,-0.006716066040098667,73395075,-0.006716066040098667,-0.007665492128580809,0.023850485682487488
73.39508900,73395089,-0.036544378846883774,73395089,-0.036544378846883774,-0.018318461254239082,0.022785190492868423
73.39552000,73395520,-0.04506675526499748,73395520,-0.04506675526499748,-0.00020841415971517563,0.02704637683928013
73.39601900,73396019,-0.054654426872730255,73396019,-0.054654426872730255,0.01044455636292696,0.006805735640227795
73.39651800,73396518,-0.051458537578582764,73396518,-0.051458537578582764,0.03281579166650772,0.0014792508445680141
73.39757000,73397570,-0.05998091399669647,73397570,-0.05998091399669647,0.039207573980093,-0.014500202611088753
73.39758200,73397582,-0.06530739367008209,73397582,-0.06530739367008209,0.028554603457450867,-0.0123696094378829
73.39802300,73398023,-0.06743799149990082,73398023,-0.06743799149990082,-0.0012737102806568146,-0.01663079671561718
73.39852000,73398520,-0.08022154867649078,73398520,-0.08022154867649078,-0.021514352411031723,-0.0017166398465633392
73.39901700,73399017,-0.09833160042762756,73399017,-0.09833160042762756,-0.006600195541977882,0.013197517022490501
73.40006800,73400068,-0.11431105434894562,73400068,-0.11431105434894562,0.02109752595424652,0.017458705231547356
73.40007900,73400079,-0.1207028329372406,73400079,-0.1207028329372406,0.03175049647688866,0.015328111127018929
73.40052800,73400528,-0.11963754147291183,73400528,-0.11963754147291183,0.023228120058774948,0.013197517022490501
73.40101800,73401018,-0.11537635326385498,73401018,-0.11537635326385498,-0.00873078964650631,0.01852400228381157
73.40152100,73401521,-0.10791926831007004,73401521,-0.10791926831007004,-0.021514352411031723,0.02171989344060421
73.40257600,73402576,-0.11750694364309311,73402576,-0.11750694364309311,-0.02684083580970764,0.0046751415356993675
73.40258700,73402587,-0.1356169879436493,73402587,-0.1356169879436493,-0.01299197692424059,-0.010239015333354473
73.40302300,73403023,-0.14840056002140045,73403023,-0.14840056002140045,-0.007665492128580809,-0.02302257902920246
73.40352000,73403520,-0.14307406544685364,73403520,-0.14307406544685364,-0.00020841415971517563,-0.013434906490147114
73.40402300,73404023,-0.13987818360328674,73404023,-0.13987818360328674,0.016836337745189667,-0.0017166398465633392
73.40507500,73405075,-0.15159644186496735,73405075,-0.15159644186496735,0.024293415248394012,0.006805735640227795
73.40508800,73405088,-0.16011881828308105,73405088,-0.16011881828308105,0.013640445657074451,0.010001626797020435
73.40601800,73406018,-0.16544531285762787,73406018,-0.16544531285762787,0.0008568828925490379,0.008936329744756222
73.40651900,73406519,-0.16544531285762787,73406519,-0.16544531285762787,0.009379259310662746,0.0036098449490964413
73.40701700,73407017,-0.16544531285762787,73407017,-0.16544531285762787,0.02109752595424652,0.0025445478968322277
73.40757200,73407572,-0.16544531285762787,73407572,-0.16544531285762787,0.020032230764627457,0.0014792508445680141
73.40758300,73407583,-0.14840056002140045,73407583,-0.14840056002140045,0.020032230764627457,-0.0017166398465633392
73.40852000,73408520,-0.1356169879436493,73408520,-0.1356169879436493,0.01044455636292696,0.010001626797020435
73.40901900,73409019,-0.13029050827026367,73409019,-0.13029050827026367,0.005118071101605892,0.0046751415356993675
73.40951800,73409518,-0.13987818360328674,73409518,-0.13987818360328674,-0.005534898489713669,0.005740438587963581
73.41006600,73410066,-0.13987818360328674,73410066,-0.13987818360328674,0.011509853415191174,-0.002781936898827553
73.41007800,73410078,-0.13881288468837738,73410078,-0.13881288468837738,0.018966931849718094,-0.004912530537694693
73.41102000,73411020,-0.1292252093553543,73411020,-0.1292252093553543,0.024293415248394012,-0.002781936898827553
73.41151600,73411516,-0.12389872223138809,73411516,-0.12389872223138809,0.012575148604810238,-0.004912530537694693
73.41201700,73412017,-0.11750694364309311,73412017,-0.11750694364309311,0.004052774049341679,-0.010239015333354473
73.41256900,73412569,-0.11324575543403625,73412569,-0.11324575543403625,-0.002339007332921028,-0.002781936898827553
73.41258000,73412580,-0.10259278863668442,73412580,-0.10259278863668442,-0.002339007332921028,0.0036098449490964413
73.41351700,73413517,-0.08128684759140015,73413517,-0.08128684759140015,0.005118071101605892,0.02171989344060421
73.41402700,73414027,-0.06317680329084396,73414027,-0.06317680329084396,0.007248665206134319,0.022785190492868423
73.41451700,73414517,-0.04932794347405434,73414517,-0.04932794347405434,0.007248665206134319,0.014262814074754715
73.41507500,73415075,-0.04400146007537842,73415075,-0.04400146007537842,0.0008568828925490379,0.005740438587963581
73.41508600,73415086,-0.034413788467645645,73415086,-0.034413788467645645,-0.004469601437449455,-0.010239015333354473
73.41601800,73416018,-0.024826114997267723,73416018,-0.024826114997267723,-0.011926679871976376,0.0025445478968322277
73.41652000,73416520,-0.02376081794500351,73416520,-0.02376081794500351,-0.016187867149710655,0.0036098449490964413
73.41701600,73417016,-0.019499629735946655,73417016,-0.019499629735946655,-0.015122571028769016,0.006805735640227795
73.41757200,73417572,-0.02376081794500351,73417572,-0.02376081794500351,-0.00020841415971517563,-0.010239015333354473
73.41758400,73417584,0.008198090828955173,73417584,0.008198090828955173,0.006183368153870106,-0.018761390820145607
73.41852000,73418520,0.02630813792347908,73418520,0.02630813792347908,0.01790163293480873,-0.008108421228826046
73.41901700,73419017,0.0316346250474453,73419017,0.0316346250474453,0.015771038830280304,-0.0006513429107144475
73.41951700,73419517,0.028438732028007507,73419517,0.028438732028007507,0.013640445657074451,0.0025445478968322277
73.42006300,73420063,0.024177543818950653,73420063,0.024177543818950653,-0.0034043043851852417,-0.0017166398465633392
73.42052000,73420520,0.048679374158382416,73420520,0.048679374158382416,-0.004469601437449455,0.0036098449490964413
73.42101700,73421017,0.057201750576496124,73421017,0.057201750576496124,0.011509853415191174,0.013197517022490501
73.42152100,73421521,0.08276887983083725,73421521,0.08276887983083725,0.03601168468594551,0.015328111127018929
73.42201700,73422017,0.10514011234045029,73422017,0.10514011234045029,0.03175049647688866,0.007871032692492008
73.42256500,73422565,0.12964195013046265,73422565,0.12964195013046265,0.016836337745189667,-0.00917371828109026
73.42302100,73423021,0.12857665121555328,73423021,0.12857665121555328,-0.007665492128580809,-0.005977827589958906
73.42351800,73423518,0.12111956626176834,73423518,0.12111956626176834,-0.011926679871976376,-0.0123696094378829
73.42401700,73424017,0.11898897588253021,73424017,0.11898897588253021,-0.014057273976504803,0.0025445478968322277
73.42451900,73424519,0.12857665121555328,73424519,0.12857665121555328,-0.011926679871976376,-0.005977827589958906
73.42506500,73425065,0.12111956626176834,73425065,0.12111956626176834,0.01044455636292696,-0.0006513429107144475
73.42552600,73425526,0.12325016409158707,73425526,0.12325016409158707,0.018966931849718094,-0.00917371828109026
73.42602000,73426020,0.1253807544708252,73426020,0.1253807544708252,0.028554603457450867,-0.013434906490147114
73.42652300,73426523,0.14775198698043823,73426523,0.14775198698043823,0.009379259310662746,-0.014500202611088753
73.42701700,73427017,0.15201318264007568,73427017,0.15201318264007568,-0.0012737102806568146,-0.011304312385618687
73.42756500,73427565,0.1605355590581894,73427565,0.1605355590581894,-0.002339007332921028,0.0025445478968322277
73.42802000,73428020,0.1605355590581894,73428020,0.1605355590581894,-0.004469601437449455,-0.0017166398465633392
73.42852100,73428521,0.1637314409017563,73428521,0.1637314409017563,0.01044455636292696,0.005740438587963581
73.42902200,73429022,0.15307848155498505,73429022,0.15307848155498505,0.025358714163303375,-0.00704312464222312
73.42951800,73429518,0.15094788372516632,73429518,0.15094788372516632,0.02961990237236023,0.00041395402513444424
73.43006200,73430062,0.15520906448364258,73430062,0.15520906448364258,0.012575148604810238,-0.008108421228826046
73.43052000,73430520,0.16160085797309875,73430520,0.16160085797309875,-0.015122571028769016,-0.002781936898827553
73.43102000,73431020,0.15201318264007568,73431020,0.15201318264007568,-0.009796086698770523,-0.013434906490147114
73.43151600,73431516,0.1488172858953476,73431516,0.1488172858953476,0.009379259310662746,-0.020891984924674034
73.43201700,73432017,0.1488172858953476,73432017,0.1488172858953476,0.02642400935292244,-0.01982668787240982
73.43256100,73432561,0.15627436339855194,73432561,0.15627436339855194,0.013640445657074451,0.006805735640227795
73.43302100,73433021,0.1424255073070526,73433021,0.1424255073070526,-0.0034043043851852417,0.006805735640227795
73.43351800,73433518,0.137099027633667,73433518,0.137099027633667,-0.015122571028769016,0.011066922917962074
73.43401900,73434019,0.12431545555591583,73434019,0.12431545555591583,-0.007665492128580809,-0.008108421228826046
73.43451700,73434517,0.11792367696762085,73434517,0.11792367696762085,-0.0012737102806568146,-0.004912530537694693
73.43506400,73435064,0.1019442230463028,73435064,0.1019442230463028,-0.00020841415971517563,-0.00917371828109026
73.43552000,73435520,0.09768303483724594,73435520,0.09768303483724594,-0.010861382819712162,-0.005977827589958906
73.43602000,73436020,0.08489947021007538,73436020,0.08489947021007538,-0.0012737102806568146,-0.0006513429107144475
73.43651700,73436517,0.07744239270687103,73436517,0.07744239270687103,0.007248665206134319,-0.0038472337182611227
73.43701900,73437019,0.06465883553028107,73437019,0.06465883553028107,0.02642400935292244,-0.0017166398465633392
73.43757100,73437571,0.06998531520366669,73437571,0.06998531520366669,0.012575148604810238,0.013197517022490501
73.43803000,73438030,0.06998531520366669,73438030,0.06998531520366669,0.01044455636292696,0.0249157827347517
73.43852000,73438520,0.06252823770046234,73438520,0.06252823770046234,-0.0034043043851852417,0.02171989344060421
73.43901800,73439018,0.05613645166158676,73439018,0.05613645166158676,-0.010861382819712162,0.0046751415356993675
73.43951800,73439518,0.03589580953121185,73439518,0.03589580953121185,-0.019383758306503296,0.0025445478968322277
73.44006100,73440061,0.016720466315746307,73440061,0.016720466315746307,-0.02044905535876751,-0.0017166398465633392
73.44052100,73440521,-0.005650768987834454,73440521,-0.005650768987834454,-0.01725316420197487,-0.013434906490147114
73.44101600,73441016,-0.016303738579154015,73441016,-0.016303738579154015,-0.015122571028769016,-0.018761390820145607
73.44152000,73441520,-0.019499629735946655,73441520,-0.019499629735946655,0.004052774049341679,-0.00704312464222312
73.44201700,73442017,-0.028022004291415215,73442017,-0.028022004291415215,0.024293415248394012,0.011066922917962074
73.44256800,73442568,-0.0386749729514122,73442568,-0.0386749729514122,0.039207573980093,0.011066922917962074
73.44302200,73443022,-0.04932794347405434,73443022,-0.04932794347405434,0.02961990237236023,0.0046751415356993675
73.44352100,73443521,-0.06956858187913895,73443521,-0.06956858187913895,0.014705742709338665,-0.00704312464222312
73.44401900,73444019,-0.08128684759140015,73444019,-0.08128684759140015,0.008313962258398533,-0.011304312385618687
73.44452300,73444523,-0.08022154867649078,73444523,-0.08022154867649078,0.007248665206134319,-0.0038472337182611227
73.44506700,73445067,-0.08128684759140015,73445067,-0.08128684759140015,0.011509853415191174,0.0036098449490964413
73.44552100,73445521,-0.08448273688554764,73445521,-0.08448273688554764,0.008313962258398533,0.013197517022490501
73.44602000,73446020,-0.09193981438875198,73446020,-0.09193981438875198,0.008313962258398533,0.007871032692492008
73.44652500,73446525,-0.0972663015127182,73446525,-0.0972663015127182,0.01044455636292696,-0.004912530537694693
73.44701900,73447019,-0.10578867793083191,73447019,-0.10578867793083191,0.011509853415191174,-0.00917371828109026
73.44757100,73447571,-0.12176813185214996,73447571,-0.12176813185214996,0.009379259310662746,-0.00704312464222312
73.44802400,73448024,-0.11324575543403625,73448024,-0.11324575543403625,0.008313962258398533,0.005740438587963581
73.44852000,73448520,-0.10259278863668442,73448520,-0.10259278863668442,-0.004469601437449455,0.012132219970226288
73.44901600,73449016,-0.10472337901592255,73449016,-0.10472337901592255,0.013640445657074451,0.010001626797020435
73.44951900,73449519,-0.11431105434894562,73449519,-0.11431105434894562,0.027489308267831802,0.01852400228381157
73.45006500,73450065,-0.13029050827026367,73450065,-0.13029050827026367,0.0509258396923542,0.00041395402513444424
73.45052500,73450525,-0.1292252093553543,73450525,-0.1292252093553543,0.03494638577103615,-0.00917371828109026
73.45102000,73451020,-0.13881288468837738,73451020,-0.13881288468837738,0.016836337745189667,-0.021957281976938248
73.45152500,73451525,-0.1356169879436493,73451525,-0.1356169879436493,0.008313962258398533,-0.0017166398465633392
73.45201800,73452018,-0.13987818360328674,73452018,-0.13987818360328674,0.005118071101605892,0.01852400228381157
73.45257800,73452578,-0.13668228685855865,73452578,-0.13668228685855865,0.011509853415191174,0.014262814074754715
73.45302200,73453022,-0.13029050827026367,73453022,-0.13029050827026367,-0.00020841415971517563,0.0036098449490964413
73.45352100,73453521,-0.11750694364309311,73453521,-0.11750694364309311,-0.0034043043851852417,-0.008108421228826046
73.45402000,73454020,-0.10365808010101318,73454020,-0.10365808010101318,-0.010861382819712162,-0.002781936898827553
73.45451700,73454517,-0.10791926831007004,73454517,-0.10791926831007004,0.006183368153870106,-0.004912530537694693
73.45507600,73455076,-0.10578867793083191,73455076,-0.10578867793083191,0.01044455636292696,-0.01663079671561718
73.45552000,73455520,-0.0972663015127182,73455520,-0.0972663015127182,0.014705742709338665,0.005740438587963581
73.45602400,73456024,-0.08128684759140015,73456024,-0.08128684759140015,-0.007665492128580809,0.013197517022490501
73.45651700,73456517,-0.08235214650630951,73456517,-0.08235214650630951,-0.004469601437449455,0.03343815729022026
73.45702400,73457024,-0.08767862617969513,73457024,-0.08767862617969513,-0.004469601437449455,0.013197517022490501
73.45756900,73457569,-0.08980922400951385,73457569,-0.08980922400951385,0.006183368153870106,0.0046751415356993675
73.45802500,73458025,-0.07169917225837708,73458025,-0.07169917225837708,0.016836337745189667,-0.015565499663352966
73.45851900,73458519,-0.06743799149990082,73458519,-0.06743799149990082,0.03281579166650772,-0.015565499663352966
73.45901700,73459017,-0.05998091399669647,73459017,-0.05998091399669647,0.04453405737876892,-0.00917371828109026
73.45952100,73459521,-0.04826264828443527,73459521,-0.04826264828443527,0.028554603457450867,0.005740438587963581
73.46006400,73460064,-0.04187086597084999,73460064,-0.04187086597084999,0.020032230764627457,0.0014792508445680141
73.46052900,73460529,-0.024826114997267723,73460529,-0.024826114997267723,0.005118071101605892,-0.0017166398465633392
73.46101700,73461017,-0.03228319063782692,73461017,-0.03228319063782692,0.004052774049341679,-0.005977827589958906
73.46151900,73461519,-0.017369035631418228,73461519,-0.017369035631418228,-0.014057273976504803,-0.0017166398465633392
73.46201800,73462018,-0.015238441526889801,73462018,-0.015238441526889801,-0.007665492128580809,-0.004912530537694693
73.46257700,73462577,-0.0024548782967031,73462577,-0.0024548782967031,-0.014057273976504803,0.0036098449490964413
73.46302100,73463021,-0.00032428442500531673,73463021,-0.00032428442500531673,-0.00020841415971517563,0.015328111127018929
73.46351600,73463516,0.009263387881219387,73463516,0.009263387881219387,0.002987476997077465,0.012132219970226288
73.46401700,73464017,0.02098165452480316,73464017,0.02098165452480316,0.013640445657074451,-0.0038472337182611227
73.46452200,73464522,0.030569326132535934,73464522,0.030569326132535934,0.0008568828925490379,-0.00917371828109026
73.46507000,73465070,0.03589580953121185,73465070,0.03589580953121185,-0.0034043043851852417,-0.008108421228826046
73.46552100,73465521,0.04015699774026871,73465521,0.04015699774026871,-0.002339007332921028,0.00041395402513444424
73.46601900,73466019,0.04974466934800148,73466019,0.04974466934800148,0.004052774049341679,-0.0017166398465633392
73.46652400,73466524,0.06146293506026268,73466524,0.06146293506026268,0.0019221799448132515,0.0046751415356993675
73.46701700,73467017,0.048679374158382416,73467017,0.048679374158382416,-0.002339007332921028,-0.0017166398465633392
73.46757600,73467576,0.0433528907597065,73467576,0.0433528907597065,0.008313962258398533,0.006805735640227795
73.46802400,73468024,0.03269992023706436,73468024,0.03269992023706436,0.007248665206134319,0.0014792508445680141
73.46851800,73468518,0.05187526345252991,73468518,0.05187526345252991,0.020032230764627457,-0.0006513429107144475
73.46901800,73469018,0.0667894259095192,73469018,0.0667894259095192,0.005118071101605892,-0.00917371828109026
73.46951700,73469517,0.0785076916217804,73469517,0.0785076916217804,0.012575148604810238,-0.0017166398465633392
73.47006100,73470061,0.08596476912498474,73470061,0.08596476912498474,0.0008568828925490379,0.005740438587963581
73.47052200,73470522,0.07957299053668976,73470522,0.07957299053668976,0.005118071101605892,0.014262814074754715
73.47101700,73471017,0.0785076916217804,73471017,0.0785076916217804,-0.0012737102806568146,0.0014792508445680141
73.47152300,73471523,0.0785076916217804,73471523,0.0785076916217804,0.005118071101605892,-0.00917371828109026
73.47201600,73472016,0.08063828945159912,73472016,0.08063828945159912,0.01044455636292696,-0.024087876081466675
73.47256900,73472569,0.08916065841913223,73472569,0.08916065841913223,0.005118071101605892,-0.0017166398465633392
73.47302000,73473020,0.08383417874574661,73473020,0.08383417874574661,-0.006600195541977882,0.008936329744756222
73.47351800,73473518,0.0870300680398941,73473518,0.0870300680398941,-0.004469601437449455,0.006805735640227795
73.47401700,73474017,0.0785076916217804,73474017,0.0785076916217804,-0.0012737102806568146,-0.014500202611088753
73.47452200,73474522,0.07318120449781418,73474522,0.07318120449781418,0.004052774049341679,-0.015565499663352966
73.47506300,73475063,0.08383417874574661,73475063,0.08383417874574661,-0.01299197692424059,-0.002781936898827553
73.47553200,73475532,0.07318120449781418,73475532,0.07318120449781418,-0.02044905535876751,0.007871032692492008
73.47601800,73476018,0.07424650341272354,73476018,0.07424650341272354,-0.009796086698770523,0.0046751415356993675
73.47652300,73476523,0.05933234468102455,73476523,0.05933234468102455,0.004052774049341679,-0.0038472337182611227
73.47702000,73477020,0.0667894259095192,73477020,0.0667894259095192,0.015771038830280304,-0.011304312385618687
73.47756300,73477563,0.06572412699460983,73477563,0.06572412699460983,-0.004469601437449455,-0.0006513429107144475
73.47802800,73478028,0.060397639870643616,73478028,0.060397639870643616,-0.011926679871976376,0.0014792508445680141
73.47852000,73478520,0.04761407896876335,73478520,0.04761407896876335,-0.014057273976504803,-0.0006513429107144475
73.47901600,73479016,0.03589580953121185,73479016,0.03589580953121185,0.0008568828925490379,-0.013434906490147114
73.47951800,73479518,0.033765215426683426,73479518,0.033765215426683426,-0.002339007332921028,-0.0038472337182611227
73.48006300,73480063,0.04015699774026871,73480063,0.04015699774026871,0.0008568828925490379,0.008936329744756222
73.48052000,73480520,0.04122229665517807,73480520,0.04122229665517807,0.006183368153870106,0.012132219970226288
73.48101800,73481018,0.03483051434159279,73481018,0.03483051434159279,0.011509853415191174,-0.0006513429107144475
73.48152100,73481521,0.015655169263482094,73481521,0.015655169263482094,0.009379259310662746,-0.0006513429107144475
73.48201800,73482018,0.003936903551220894,73482018,0.003936903551220894,-0.0034043043851852417,-0.011304312385618687
73.48257500,73482575,-0.0024548782967031,73482575,-0.0024548782967031,0.004052774049341679,-0.008108421228826046
73.48302200,73483022,0.008198090828955173,73483022,0.008198090828955173,0.014705742709338665,-0.004912530537694693
73.48351800,73483518,0.01458987221121788,73483518,0.01458987221121788,0.03281579166650772,0.005740438587963581
73.48402200,73484022,0.009263387881219387,73484022,0.009263387881219387,0.022162821143865585,0.0036098449490964413
73.48451900,73484519,-0.010977254249155521,73484519,-0.010977254249155521,0.014705742709338665,-0.011304312385618687
73.48506900,73485069,-0.015238441526889801,73485069,-0.015238441526889801,0.002987476997077465,-0.005977827589958906
73.48552800,73485528,-0.015238441526889801,73485528,-0.015238441526889801,0.01044455636292696,-0.002781936898827553
73.48601900,73486019,-0.0013895813608542085,73486019,-0.0013895813608542085,-0.004469601437449455,0.02171989344060421
73.48652200,73486522,-0.010977254249155521,73486522,-0.010977254249155521,-0.021514352411031723,0.015328111127018929
73.48701900,73487019,-0.019499629735946655,73487019,-0.019499629735946655,-0.02897142991423607,0.015328111127018929
73.48756700,73487567,-0.04080556705594063,73487567,-0.04080556705594063,-0.009796086698770523,-0.00917371828109026
73.48803300,73488033,-0.046132054179906845,73488033,-0.046132054179906845,0.006183368153870106,-0.008108421228826046
73.48851900,73488519,-0.04400146007537842,73488519,-0.04400146007537842,0.008313962258398533,0.005740438587963581
73.48901600,73489016,-0.031217895448207855,73489016,-0.031217895448207855,0.006183368153870106,0.011066922917962074
73.48951800,73489518,-0.03228319063782692,73489518,-0.03228319063782692,0.006183368153870106,0.007871032692492008
73.49006000,73490060,-0.04826264828443527,73490060,-0.04826264828443527,0.004052774049341679,-0.015565499663352966
73.49052100,73490521,-0.05891561508178711,73490521,-0.05891561508178711,0.009379259310662746,-0.014500202611088753
73.49101700,73491017,-0.061046209186315536,73491017,-0.061046209186315536,0.016836337745189667,0.00041395402513444424
73.49152600,73491526,-0.0621115081012249,73491526,-0.0621115081012249,0.014705742709338665,0.013197517022490501
73.49201700,73492017,-0.05998091399669647,73492017,-0.05998091399669647,0.01790163293480873,0.015328111127018929
73.49257000,73492570,-0.05998091399669647,73492570,-0.05998091399669647,0.02109752595424652,0.005740438587963581
73.49302100,73493021,-0.0621115081012249,73493021,-0.0621115081012249,0.014705742709338665,0.006805735640227795
73.49351700,73493517,-0.07915625721216202,73493517,-0.07915625721216202,0.0019221799448132515,-0.002781936898827553
73.49401700,73494017,-0.07702565938234329,73494017,-0.07702565938234329,-0.009796086698770523,-0.0017166398465633392
73.49451700,73494517,-0.06530739367008209,73494517,-0.06530739367008209,-0.0012737102806568146,0.0046751415356993675
73.49506400,73495064,-0.04826264828443527,73495064,-0.04826264828443527,0.008313962258398533,0.011066922917962074
73.49552300,73495523,-0.051458537578582764,73495523,-0.051458537578582764,0.016836337745189667,0.012132219970226288
73.49601900,73496019,-0.05358913168311119,73496019,-0.05358913168311119,0.014705742709338665,0.007871032692492008
73.49652500,73496525,-0.05358913168311119,73496525,-0.05358913168311119,-0.00020841415971517563,0.005740438587963581
73.49701800,73497018,-0.05358913168311119,73497018,-0.05358913168311119,-0.00873078964650631,-0.020891984924674034
73.49756700,73497567,-0.0503932423889637,73497567,-0.0503932423889637,-0.006600195541977882,-0.02515317313373089
73.49802100,73498021,-0.04932794347405434,73498021,-0.04932794347405434,-0.00020841415971517563,-0.015565499663352966
73.49851900,73498519,-0.04932794347405434,73498519,-0.04932794347405434,0.007248665206134319,0.0025445478968322277
73.49901900,73499019,-0.046132054179906845,73499019,-0.046132054179906845,0.008313962258398533,0.012132219970226288
73.49951900,73499519,-0.05358913168311119,73499519,-0.05358913168311119,0.006183368153870106,0.00041395402513444424
73.50006300,73500063,-0.04400146007537842,73500063,-0.04400146007537842,-0.009796086698770523,0.007871032692492008
73.50052300,73500523,-0.04187086597084999,73500523,-0.04187086597084999,-0.022579649463295937,-0.0038472337182611227
73.50101800,73501018,-0.02376081794500351,73501018,-0.02376081794500351,-0.027906134724617004,0.0036098449490964413
73.50152300,73501523,-0.01843433268368244,73501523,-0.01843433268368244,-0.02044905535876751,0.008936329744756222
73.50201800,73502018,-0.021630223840475082,73502018,-0.021630223840475082,-0.005534898489713669,0.007871032692492008
73.50256700,73502567,-0.019499629735946655,73502567,-0.019499629735946655,0.0008568828925490379,0.011066922917962074
73.50302300,73503023,-0.012042551301419735,73503023,-0.012042551301419735,-0.01299197692424059,0.008936329744756222
73.50354600,73503546,-0.00458547193557024,73503546,-0.00458547193557024,-0.007665492128580809,0.013197517022490501
73.50401900,73504019,-0.00458547193557024,73504019,-0.00458547193557024,-0.002339007332921028,0.00041395402513444424
73.50451600,73504516,-0.0035201753489673138,73504516,-0.0035201753489673138,0.008313962258398533,0.00041395402513444424
73.50506900,73505069,0.01139398105442524,73505069,0.01139398105442524,-0.006600195541977882,-0.0017166398465633392
73.50551900,73505519,0.02630813792347908,73505519,0.02630813792347908,-0.014057273976504803,-0.0006513429107144475
73.50601700,73506017,0.04122229665517807,73506017,0.04122229665517807,0.002987476997077465,-0.011304312385618687
73.50652200,73506522,0.03909170255064964,73506522,0.03909170255064964,0.018966931849718094,-0.014500202611088753
73.50702200,73507022,0.042287591844797134,73507022,0.042287591844797134,0.037076979875564575,-0.00917371828109026
73.50756800,73507568,0.030569326132535934,73507568,0.030569326132535934,0.02961990237236023,-0.0038472337182611227
73.50802200,73508022,0.045483484864234924,73508022,0.045483484864234924,0.015771038830280304,0.007871032692492008
73.50852100,73508521,0.04761407896876335,73508521,0.04761407896876335,-0.011926679871976376,0.00041395402513444424
73.50901600,73509016,0.06146293506026268,73509016,0.06146293506026268,-0.02364494651556015,-0.00704312464222312
73.50951900,73509519,0.060397639870643616,73509519,0.060397639870643616,-0.027906134724617004,-0.008108421228826046
73.51006300,73510063,0.0667894259095192,73510063,0.0667894259095192,-0.01725316420197487,0.00041395402513444424
73.51052700,73510527,0.06572412699460983,73510527,0.06572412699460983,-0.010861382819712162,0.016393408179283142
73.51102000,73511020,0.06998531520366669,73511020,0.06998531520366669,0.005118071101605892,0.015328111127018929
73.51151600,73511516,0.07318120449781418,73511516,0.07318120449781418,0.007248665206134319,0.020654596388339996
73.51201700,73512017,0.07211591303348541,73512017,0.07211591303348541,0.006183368153870106,0.005740438587963581
73.51256100,73512561,0.06146293506026268,73512561,0.06146293506026268,-0.004469601437449455,-0.005977827589958906
73.51302100,73513021,0.05933234468102455,73513021,0.05933234468102455,-0.007665492128580809,-0.018761390820145607
73.51351700,73513517,0.060397639870643616,73513517,0.060397639870643616,-0.00020841415971517563,-0.015565499663352966
73.51402000,73514020,0.06892001628875732,73514020,0.06892001628875732,0.006183368153870106,-0.005977827589958906
73.51451700,73514517,0.0785076916217804,73514517,0.0785076916217804,-0.00020841415971517563,-0.002781936898827553
73.51507400,73515074,0.08916065841913223,73515074,0.08916065841913223,-0.014057273976504803,0.0036098449490964413
73.51552000,73515520,0.08916065841913223,73515520,0.08916065841913223,-0.016187867149710655,0.008936329744756222
73.51601700,73516017,0.07637710124254227,73516017,0.07637710124254227,-0.006600195541977882,0.015328111127018929
73.51652100,73516521,0.06465883553028107,73516521,0.06465883553028107,-0.002339007332921028,0.01852400228381157
73.51702000,73517020,0.05826704576611519,73517020,0.05826704576611519,-0.0034043043851852417,0.0046751415356993675
73.51756700,73517567,0.0550711564719677,73517567,0.0550711564719677,-0.002339007332921028,0.0025445478968322277
73.51803100,73518031,0.05613645166158676,73518031,0.05613645166158676,-0.0034043043851852417,-0.0038472337182611227
73.51852000,73518520,0.0550711564719677,73518520,0.0550711564719677,-0.00020841415971517563,0.0046751415356993675
73.51901600,73519016,0.05080996826291084,73519016,0.05080996826291084,-0.00020841415971517563,0.0046751415356993675
73.51951800,73519518,0.04974466934800148,73519518,0.04974466934800148,0.004052774049341679,-0.0038472337182611227
73.52006300,73520063,0.04015699774026871,73520063,0.04015699774026871,0.02109752595424652,-0.0123696094378829
73.52052000,73520520,0.036961108446121216,73520520,0.036961108446121216,0.022162821143865585,-0.014500202611088753
73.52101700,73521017,0.02098165452480316,73521017,0.02098165452480316,0.018966931849718094,-0.014500202611088753
73.52151700,73521517,0.027373434975743294,73521517,0.027373434975743294,-0.005534898489713669,-0.005977827589958906
73.52201700,73522017,0.02311224862933159,73522017,0.02311224862933159,-0.005534898489713669,-0.00917371828109026
73.52257300,73522573,0.022046951577067375,73522573,0.022046951577067375,-0.004469601437449455,0.00041395402513444424
73.52302100,73523021,0.02311224862933159,73523021,0.02311224862933159,-0.00873078964650631,0.008936329744756222
73.52352100,73523521,0.02630813792347908,73523521,0.02630813792347908,-0.01299197692424059,0.025981079787015915
73.52401700,73524017,0.02098165452480316,73524017,0.02098165452480316,-0.015122571028769016,0.02171989344060421
73.52451800,73524518,-0.0013895813608542085,73524518,-0.0013895813608542085,-0.00020841415971517563,0.00041395402513444424
73.52506100,73525061,-0.013107848353683949,73525061,-0.013107848353683949,0.011509853415191174,-0.011304312385618687
73.52552700,73525527,-0.02056492678821087,73525527,-0.02056492678821087,0.013640445657074451,-0.015565499663352966
73.52602200,73526022,-0.029087301343679428,73526022,-0.029087301343679428,0.012575148604810238,0.0025445478968322277
73.52651900,73526519,-0.031217895448207855,73526519,-0.031217895448207855,0.002987476997077465,0.0014792508445680141
73.52701800,73527018,-0.031217895448207855,73527018,-0.031217895448207855,0.0008568828925490379,0.0036098449490964413
73.52756700,73527567,-0.026956707239151,73527567,-0.026956707239151,-0.005534898489713669,-0.005977827589958906
73.52802200,73528022,-0.03760967776179314,73528022,-0.03760967776179314,-0.0012737102806568146,-0.005977827589958906
73.52852200,73528522,-0.04080556705594063,73528522,-0.04080556705594063,0.002987476997077465,-0.0006513429107144475
73.52901800,73529018,-0.05252383276820183,73529018,-0.05252383276820183,0.013640445657074451,0.005740438587963581
73.52951800,73529518,-0.04719734936952591,73529518,-0.04719734936952591,0.007248665206134319,0.008936329744756222
73.53006100,73530061,-0.05571972578763962,73530061,-0.05571972578763962,0.011509853415191174,0.022785190492868423
73.53052200,73530522,-0.05891561508178711,73530522,-0.05891561508178711,-0.00020841415971517563,0.01852400228381157
73.53101700,73531017,-0.07169917225837708,73531017,-0.07169917225837708,-0.0012737102806568146,0.0025445478968322277
73.53152400,73531524,-0.07169917225837708,73531524,-0.07169917225837708,-0.004469601437449455,-0.024087876081466675
73.53201600,73532016,-0.07169917225837708,73532016,-0.07169917225837708,0.0008568828925490379,-0.018761390820145607
73.53257200,73532572,-0.06956858187913895,73532572,-0.06956858187913895,-0.002339007332921028,-0.005977827589958906
73.53302100,73533021,-0.06424209475517273,73533021,-0.06424209475517273,-0.0034043043851852417,0.006805735640227795
73.53351600,73533516,-0.06956858187913895,73533516,-0.06956858187913895,-0.016187867149710655,0.006805735640227795
73.53402400,73534024,-0.0738297700881958,73534024,-0.0738297700881958,-0.004469601437449455,-0.0006513429107144475
73.53451700,73534517,-0.08448273688554764,73534517,-0.08448273688554764,-0.002339007332921028,-0.0017166398465633392
73.53506800,73535068,-0.07702565938234329,73535068,-0.07702565938234329,0.009379259310662746,0.00041395402513444424
73.53552100,73535521,-0.07809095829725266,73535521,-0.07809095829725266,0.008313962258398533,0.011066922917962074
73.53602100,73536021,-0.08767862617969513,73536021,-0.08767862617969513,0.01790163293480873,0.0046751415356993675
73.53651800,73536518,-0.09939689934253693,73536518,-0.09939689934253693,0.016836337745189667,0.0046751415356993675
73.53702100,73537021,-0.10259278863668442,73537021,-0.10259278863668442,0.018966931849718094,-0.008108421228826046
73.53756200,73537562,-0.09087452292442322,73537562,-0.09087452292442322,0.01790163293480873,0.0036098449490964413
73.53802500,73538025,-0.09193981438875198,73538025,-0.09193981438875198,0.012575148604810238,0.0025445478968322277
73.53852200,73538522,-0.09087452292442322,73538522,-0.09087452292442322,0.005118071101605892,0.010001626797020435
73.53901700,73539017,-0.08980922400951385,73539017,-0.08980922400951385,-0.0034043043851852417,-0.004912530537694693
73.53951700,73539517,-0.07489506900310516,73539517,-0.07489506900310516,-0.009796086698770523,-0.004912530537694693
73.54006500,73540065,-0.07489506900310516,73540065,-0.07489506900310516,-0.00873078964650631,-0.00704312464222312
73.54052100,73540521,-0.05998091399669647,73540521,-0.05998091399669647,-0.004469601437449455,0.006805735640227795
73.54101800,73541018,-0.05571972578763962,73541018,-0.05571972578763962,0.012575148604810238,0.008936329744756222
73.54152500,73541525,-0.04932794347405434,73541525,-0.04932794347405434,0.02109752595424652,0.013197517022490501
73.54201700,73542017,-0.04932794347405434,73542017,-0.04932794347405434,0.008313962258398533,0.0025445478968322277
73.54256700,73542567,-0.0503932423889637,73542567,-0.0503932423889637,-0.01299197692424059,0.0036098449490964413
73.54302100,73543021,-0.036544378846883774,73543021,-0.036544378846883774,-0.021514352411031723,0.005740438587963581
73.54351900,73543519,-0.03228319063782692,73543519,-0.03228319063782692,-0.002339007332921028,0.008936329744756222
73.54401600,73544016,-0.028022004291415215,73544016,-0.028022004291415215,0.013640445657074451,-0.0017166398465633392
73.54451900,73544519,-0.024826114997267723,73544519,-0.024826114997267723,0.015771038830280304,-0.005977827589958906
73.54506900,73545069,-0.02056492678821087,73545069,-0.02056492678821087,0.0019221799448132515,-0.00917371828109026
73.54553000,73545530,-0.013107848353683949,73545530,-0.013107848353683949,-0.0034043043851852417,-0.0017166398465633392
73.54601800,73546018,-0.013107848353683949,73546018,-0.013107848353683949,-0.0034043043851852417,-0.005977827589958906
73.54652600,73546526,-0.007781362626701593,73546526,-0.007781362626701593,-0.0012737102806568146,-0.0123696094378829
73.54701700,73547017,-0.006716066040098667,73547017,-0.006716066040098667,0.007248665206134319,-0.015565499663352966
73.54757000,73547570,0.00500220013782382,73547570,0.00500220013782382,0.009379259310662746,-0.010239015333354473
73.54802400,73548024,0.01139398105442524,73548024,0.01139398105442524,-0.0012737102806568146,-0.002781936898827553
73.54852200,73548522,0.02630813792347908,73548522,0.02630813792347908,-0.005534898489713669,-0.0038472337182611227
73.54901700,73549017,0.04122229665517807,73549017,0.04122229665517807,0.0008568828925490379,-0.010239015333354473
73.54951800,73549518,0.03483051434159279,73549518,0.03483051434159279,0.008313962258398533,-0.004912530537694693
73.55006400,73550064,0.033765215426683426,73550064,0.033765215426683426,0.007248665206134319,-0.0006513429107144475
73.55052200,73550522,0.030569326132535934,73550522,0.030569326132535934,-0.005534898489713669,0.013197517022490501
73.55101600,73551016,0.042287591844797134,73551016,0.042287591844797134,-0.00020841415971517563,0.014262814074754715
73.55152100,73551521,0.05826704576611519,73551521,0.05826704576611519,0.002987476997077465,0.012132219970226288
73.55202000,73552020,0.06252823770046234,73552020,0.06252823770046234,0.01044455636292696,0.0025445478968322277
73.55256700,73552567,0.06892001628875732,73552567,0.06892001628875732,-0.0012737102806568146,-0.005977827589958906
73.55302300,73553023,0.07744239270687103,73553023,0.07744239270687103,-0.014057273976504803,-0.0006513429107144475
73.55351600,73553516,0.0870300680398941,73553516,0.0870300680398941,-0.02364494651556015,-0.0006513429107144475
73.55401800,73554018,0.08170358091592789,73554018,0.08170358091592789,-0.01299197692424059,-0.0017166398465633392
73.55451700,73554517,0.08489947021007538,73554517,0.08489947021007538,0.002987476997077465,-0.010239015333354473
73.55506100,73555061,0.06998531520366669,73555061,0.06998531520366669,0.02109752595424652,-0.0123696094378829
73.55552700,73555527,0.07744239270687103,73555527,0.07744239270687103,0.022162821143865585,0.0036098449490964413
73.55602000,73556020,0.07637710124254227,73556020,0.07637710124254227,0.015771038830280304,0.006805735640227795
73.55651800,73556518,0.0870300680398941,73556518,0.0870300680398941,0.007248665206134319,0.006805735640227795
73.55701900,73557019,0.09555244445800781,73557019,0.09555244445800781,0.004052774049341679,-0.011304312385618687
73.55756500,73557565,0.09235655516386032,73557565,0.09235655516386032,0.006183368153870106,-0.017696093767881393
73.55803100,73558031,0.09129125624895096,73558031,0.09129125624895096,-0.0012737102806568146,-0.0038472337182611227
73.55851900,73558519,0.08809536695480347,73558519,0.08809536695480347,0.004052774049341679,0.0014792508445680141
73.55901900,73559019,0.0870300680398941,73559019,0.0870300680398941,-0.004469601437449455,-0.0017166398465633392
73.55951700,73559517,0.09555244445800781,73559517,0.09555244445800781,0.007248665206134319,-0.0038472337182611227
73.56006100,73560061,0.09661774337291718,73560061,0.09661774337291718,0.007248665206134319,-0.005977827589958906
73.56052300,73560523,0.09768303483724594,73560523,0.09768303483724594,0.018966931849718094,0.00041395402513444424
73.56101800,73561018,0.09342184662818909,73561018,0.09342184662818909,0.011509853415191174,-0.008108421228826046
