timestamp,TimeUS,ACCx,TimeUS,ACCx
136.34435500,136344355,141.5260467529297,136344355,141.5260467529297
136.34439400,136344394,141.5260467529297,136344394,141.5260467529297
136.34509100,136345091,141.5260467529297,136345091,141.5260467529297
136.34511500,136345115,141.5260467529297,136345115,141.5260467529297
136.34584900,136345849,141.5260467529297,136345849,141.5260467529297
136.34587400,136345874,141.5260467529297,136345874,141.5260467529297
136.34660100,136346601,141.5260467529297,136346601,141.5260467529297
136.34662400,136346624,141.5260467529297,136346624,141.5260467529297
136.34734900,136347349,141.5260467529297,136347349,141.5260467529297
136.34737100,136347371,141.5260467529297,136347371,141.5260467529297
136.34814800,136348148,141.5260467529297,136348148,141.5260467529297
136.34817100,136348171,141.5260467529297,136348171,141.5260467529297
136.34885000,136348850,141.5260467529297,136348850,141.5260467529297
136.34887400,136348874,141.5260467529297,136348874,141.5260467529297
136.34960100,136349601,141.5260467529297,136349601,141.5260467529297
136.34962300,136349623,141.5260467529297,136349623,141.5260467529297
136.35034200,136350342,141.5260467529297,136350342,141.5260467529297
136.35036400,136350364,141.5260467529297,136350364,141.5260467529297
136.35109900,136351099,141.5260467529297,136351099,141.5260467529297
136.35112100,136351121,141.5260467529297,136351121,141.5260467529297
136.35184600,136351846,141.5260467529297,136351846,141.5260467529297
136.35186800,136351868,141.5260467529297,136351868,141.5260467529297
136.35259600,136352596,141.5260467529297,136352596,141.5260467529297
136.35262300,136352623,141.5260467529297,136352623,141.5260467529297
136.35335300,136353353,141.5260467529297,136353353,141.5260467529297
136.35337500,136353375,141.5260467529297,136353375,141.5260467529297
136.35410100,136354101,141.5260467529297,136354101,141.5260467529297
136.35412500,136354125,141.5260467529297,136354125,141.5260467529297
136.35485200,136354852,141.5260467529297,136354852,141.5260467529297
136.35487400,136354874,141.5260467529297,136354874,141.5260467529297
136.35566000,136355660,141.5260467529297,136355660,141.5260467529297
136.35568300,136355683,141.5260467529297,136355683,141.5260467529297
136.35635800,136356358,141.5260467529297,136356358,141.5260467529297
136.35638100,136356381,141.5260467529297,136356381,141.5260467529297
136.35710900,136357109,141.5260467529297,136357109,141.5260467529297
136.35713100,136357131,141.5260467529297,136357131,141.5260467529297
136.35786100,136357861,141.5260467529297,136357861,141.5260467529297
136.35788200,136357882,141.5260467529297,136357882,141.5260467529297
136.35863100,136358631,141.5260467529297,136358631,141.5260467529297
136.35865400,136358654,141.5260467529297,136358654,141.5260467529297
136.35937300,136359373,141.5260467529297,136359373,141.5260467529297
136.35939400,136359394,141.5260467529297,136359394,141.5260467529297
136.36012300,136360123,141.5260467529297,136360123,141.5260467529297
136.36014700,136360147,141.5260467529297,136360147,141.5260467529297
136.36088700,136360887,141.5260467529297,136360887,141.5260467529297
136.36090900,136360909,141.5260467529297,136360909,141.5260467529297
136.36164300,136361643,141.5260467529297,136361643,141.5260467529297
136.36166600,136361666,141.5260467529297,136361666,141.5260467529297
136.36238800,136362388,141.5260467529297,136362388,141.5260467529297
136.36241000,136362410,141.5260467529297,136362410,141.5260467529297
136.36316200,136363162,141.5260467529297,136363162,141.5260467529297
136.36318500,136363185,141.5260467529297,136363185,141.5260467529297
136.36391000,136363910,141.5260467529297,136363910,141.5260467529297
136.36393400,136363934,141.5260467529297,136363934,141.5260467529297
136.36466100,136364661,141.5260467529297,136364661,141.5260467529297
136.36468500,136364685,141.5260467529297,136364685,141.5260467529297
136.36541300,136365413,141.5260467529297,136365413,141.5260467529297
136.36543500,136365435,141.5260467529297,136365435,141.5260467529297
136.36616500,136366165,141.5260467529297,136366165,141.5260467529297
136.36618700,136366187,141.5260467529297,136366187,141.5260467529297
136.36691200,136366912,141.5260467529297,136366912,141.5260467529297
136.36693400,136366934,141.5260467529297,136366934,141.5260467529297
136.36766800,136367668,141.5260467529297,136367668,141.5260467529297
136.36769000,136367690,141.5260467529297,136367690,141.5260467529297
136.36842500,136368425,141.5260467529297,136368425,141.5260467529297
136.36845000,136368450,141.5260467529297,136368450,141.5260467529297
136.36918100,136369181,141.5260467529297,136369181,141.5260467529297
136.36920300,136369203,141.5260467529297,136369203,141.5260467529297
136.36992800,136369928,141.5260467529297,136369928,141.5260467529297
136.36995000,136369950,141.5260467529297,136369950,141.5260467529297
136.37067800,136370678,141.5260467529297,136370678,141.5260467529297
136.37070000,136370700,141.5260467529297,136370700,141.5260467529297
136.37142900,136371429,141.5260467529297,136371429,141.5260467529297
136.37145200,136371452,141.5260467529297,136371452,141.5260467529297
136.37218000,136372180,141.5260467529297,136372180,141.5260467529297
136.37220200,136372202,141.5260467529297,136372202,141.5260467529297
136.37292900,136372929,141.5260467529297,136372929,141.5260467529297
136.37295100,136372951,141.5260467529297,136372951,141.5260467529297
136.37368300,136373683,141.5260467529297,136373683,141.5260467529297
136.37370500,136373705,141.5260467529297,136373705,141.5260467529297
136.37443200,136374432,141.5260467529297,136374432,141.5260467529297
136.37445300,136374453,141.5260467529297,136374453,141.5260467529297
136.37518300,136375183,141.5260467529297,136375183,141.5260467529297
136.37520600,136375206,141.5260467529297,136375206,141.5260467529297
136.37594200,136375942,141.5260467529297,136375942,141.5260467529297
136.37596400,136375964,141.5260467529297,136375964,141.5260467529297
136.37669300,136376693,141.5260467529297,136376693,141.5260467529297
136.37671500,136376715,141.5260467529297,136376715,141.5260467529297
136.37743900,136377439,141.5260467529297,136377439,141.5260467529297
136.37746100,136377461,141.5260467529297,136377461,141.5260467529297
136.37824800,136378248,141.5260467529297,136378248,141.5260467529297
136.37827200,136378272,141.5260467529297,136378272,141.5260467529297
136.37899400,136378994,141.5260467529297,136378994,141.5260467529297
136.37901800,136379018,141.5260467529297,136379018,141.5260467529297
136.37974900,136379749,141.5260467529297,136379749,141.5260467529297
136.37977100,136379771,141.5260467529297,136379771,141.5260467529297
136.38049600,136380496,141.5260467529297,136380496,141.5260467529297
136.38051800,136380518,141.5260467529297,136380518,141.5260467529297
136.38124900,136381249,141.5260467529297,136381249,141.5260467529297
136.38127200,136381272,141.5260467529297,136381272,141.5260467529297
136.38199800,136381998,141.5260467529297,136381998,141.5260467529297
136.38202300,136382023,141.5260467529297,136382023,141.5260467529297
136.38274900,136382749,141.5260467529297,136382749,141.5260467529297
136.38277100,136382771,141.5260467529297,136382771,141.5260467529297
136.38350600,136383506,141.5260467529297,136383506,141.5260467529297
136.38353000,136383530,141.5260467529297,136383530,141.5260467529297
136.38425700,136384257,141.5260467529297,136384257,141.5260467529297
136.38428100,136384281,141.5260467529297,136384281,141.5260467529297
136.38500400,136385004,141.5260467529297,136385004,141.5260467529297
136.38502600,136385026,141.5260467529297,136385026,141.5260467529297
136.38579400,136385794,141.5260467529297,136385794,141.5260467529297
136.38581600,136385816,141.5260467529297,136385816,141.5260467529297
136.38653600,136386536,141.5260467529297,136386536,141.5260467529297
136.38656100,136386561,141.5260467529297,136386561,141.5260467529297
136.38728600,136387286,141.5260467529297,136387286,141.5260467529297
136.38731000,136387310,141.5260467529297,136387310,141.5260467529297
136.38803400,136388034,141.5260467529297,136388034,141.5260467529297
136.38805600,136388056,141.5260467529297,136388056,141.5260467529297
136.38878500,136388785,141.5260467529297,136388785,141.5260467529297
136.38880700,136388807,141.5260467529297,136388807,141.5260467529297
136.38954200,136389542,141.5260467529297,136389542,141.5260467529297
136.38956400,136389564,141.5260467529297,136389564,141.5260467529297
136.39028800,136390288,141.5260467529297,136390288,141.5260467529297
136.39031000,136390310,141.5260467529297,136390310,141.5260467529297
136.39104700,136391047,141.5260467529297,136391047,141.5260467529297
136.39106900,136391069,141.5260467529297,136391069,141.5260467529297
136.39179400,136391794,141.5260467529297,136391794,141.5260467529297
136.39181600,136391816,141.5260467529297,136391816,141.5260467529297
136.39254200,136392542,141.5260467529297,136392542,141.5260467529297
136.39256400,136392564,141.5260467529297,136392564,141.5260467529297
136.39330800,136393308,141.5260467529297,136393308,141.5260467529297
136.39333300,136393333,141.5260467529297,136393333,141.5260467529297
136.39405300,136394053,141.5260467529297,136394053,141.5260467529297
136.39407600,136394076,141.5260467529297,136394076,141.5260467529297
136.39480300,136394803,141.5260467529297,136394803,141.5260467529297
136.39482700,136394827,141.5260467529297,136394827,141.5260467529297
136.39555000,136395550,141.5260467529297,136395550,141.5260467529297
136.39557100,136395571,141.5260467529297,136395571,141.5260467529297
136.39636300,136396363,141.5260467529297,136396363,141.5260467529297
136.39638500,136396385,141.5260467529297,136396385,141.5260467529297
136.39711400,136397114,141.5260467529297,136397114,141.5260467529297
136.39713600,136397136,141.5260467529297,136397136,141.5260467529297
136.39786800,136397868,141.5260467529297,136397868,141.5260467529297
136.39789000,136397890,141.5260467529297,136397890,141.5260467529297
136.39882800,136398828,141.5260467529297,136398828,141.5260467529297
136.39885100,136398851,141.5260467529297,136398851,141.5260467529297
136.39937600,136399376,141.5260467529297,136399376,141.5260467529297
136.39939800,136399398,141.5260467529297,136399398,141.5260467529297
136.40012600,136400126,141.5260467529297,136400126,141.5260467529297
136.40015100,136400151,141.5260467529297,136400151,141.5260467529297
136.40088200,136400882,141.5260467529297,136400882,141.5260467529297
136.40090500,136400905,141.5260467529297,136400905,141.5260467529297
136.40163200,136401632,141.5260467529297,136401632,141.5260467529297
136.40165700,136401657,141.5260467529297,136401657,141.5260467529297
136.40238100,136402381,141.5260467529297,136402381,141.5260467529297
136.40240300,136402403,141.5260467529297,136402403,141.5260467529297
136.40317000,136403170,141.5260467529297,136403170,141.5260467529297
136.40319700,136403197,141.5260467529297,136403197,141.5260467529297
136.40391900,136403919,141.5260467529297,136403919,141.5260467529297
136.40394100,136403941,141.5260467529297,136403941,141.5260467529297
136.40466800,136404668,141.5260467529297,136404668,141.5260467529297
136.40469200,136404692,141.5260467529297,136404692,141.5260467529297
136.40542200,136405422,141.5260467529297,136405422,141.5260467529297
136.40544400,136405444,141.5260467529297,136405444,141.5260467529297
136.40617600,136406176,141.5260467529297,136406176,141.5260467529297
136.40619800,136406198,141.5260467529297,136406198,141.5260467529297
136.40692600,136406926,141.5260467529297,136406926,141.5260467529297
136.40694900,136406949,141.5260467529297,136406949,141.5260467529297
136.40767800,136407678,141.5260467529297,136407678,141.5260467529297
136.40770000,136407700,141.5260467529297,136407700,141.5260467529297
136.40863800,136408638,141.5260467529297,136408638,141.5260467529297
136.40866300,136408663,141.5260467529297,136408663,141.5260467529297
136.40918300,136409183,141.5260467529297,136409183,141.5260467529297
136.40920500,136409205,141.5260467529297,136409205,141.5260467529297
136.40993300,136409933,141.5260467529297,136409933,141.5260467529297
136.40995600,136409956,141.5260467529297,136409956,141.5260467529297
136.41075100,136410751,141.5260467529297,136410751,141.5260467529297
136.41077300,136410773,141.5260467529297,136410773,141.5260467529297
136.41149700,136411497,141.5260467529297,136411497,141.5260467529297
136.41152000,136411520,141.5260467529297,136411520,141.5260467529297
136.41224400,136412244,141.5260467529297,136412244,141.5260467529297
136.41226600,136412266,141.5260467529297,136412266,141.5260467529297
136.41299300,136412993,141.5260467529297,136412993,141.5260467529297
136.41301400,136413014,141.5260467529297,136413014,141.5260467529297
136.41374500,136413745,141.5260467529297,136413745,141.5260467529297
136.41377200,136413772,141.5260467529297,136413772,141.5260467529297
136.41449400,136414494,141.5260467529297,136414494,141.5260467529297
136.41451600,136414516,141.5260467529297,136414516,141.5260467529297
136.41524600,136415246,141.5260467529297,136415246,141.5260467529297
136.41526800,136415268,141.5260467529297,136415268,141.5260467529297
136.41600000,136416000,141.5260467529297,136416000,141.5260467529297
136.41602200,136416022,141.5260467529297,136416022,141.5260467529297
136.41674900,136416749,141.5260467529297,136416749,141.5260467529297
136.41677700,136416777,141.5260467529297,136416777,141.5260467529297
136.41750100,136417501,141.5260467529297,136417501,141.5260467529297
136.41752300,136417523,141.5260467529297,136417523,141.5260467529297
136.41829700,136418297,141.5260467529297,136418297,141.5260467529297
136.41831900,136418319,141.5260467529297,136418319,141.5260467529297
136.41904700,136419047,141.5260467529297,136419047,141.5260467529297
136.41907000,136419070,141.5260467529297,136419070,141.5260467529297
136.41980600,136419806,141.5260467529297,136419806,141.5260467529297
136.41983100,136419831,141.5260467529297,136419831,141.5260467529297
136.42055200,136420552,141.5260467529297,136420552,141.5260467529297
136.42057400,136420574,141.5260467529297,136420574,141.5260467529297
136.42131200,136421312,141.5260467529297,136421312,141.5260467529297
136.42133500,136421335,141.5260467529297,136421335,141.5260467529297
136.42205600,136422056,141.5260467529297,136422056,141.5260467529297
136.42207800,136422078,141.5260467529297,136422078,141.5260467529297
136.42280600,136422806,141.5260467529297,136422806,141.5260467529297
136.42282900,136422829,141.5260467529297,136422829,141.5260467529297
136.42356500,136423565,141.5260467529297,136423565,141.5260467529297
136.42358700,136423587,141.5260467529297,136423587,141.5260467529297
136.42431500,136424315,141.5260467529297,136424315,141.5260467529297
136.42433900,136424339,141.5260467529297,136424339,141.5260467529297
136.42506300,136425063,141.5260467529297,136425063,141.5260467529297
136.42508500,136425085,141.5260467529297,136425085,141.5260467529297
136.42582300,136425823,141.5260467529297,136425823,141.5260467529297
136.42584500,136425845,141.5260467529297,136425845,141.5260467529297
136.42657200,136426572,141.5260467529297,136426572,141.5260467529297
136.42659500,136426595,141.5260467529297,136426595,141.5260467529297
136.42731900,136427319,141.5260467529297,136427319,141.5260467529297
136.42734100,136427341,141.5260467529297,136427341,141.5260467529297
136.42806500,136428065,141.5260467529297,136428065,141.5260467529297
136.42809000,136428090,141.5260467529297,136428090,141.5260467529297
136.42882400,136428824,141.5260467529297,136428824,141.5260467529297
136.42884600,136428846,141.5260467529297,136428846,141.5260467529297
136.42957400,136429574,141.5260467529297,136429574,141.5260467529297
136.42959600,136429596,141.5260467529297,136429596,141.5260467529297
136.43032300,136430323,141.5260467529297,136430323,141.5260467529297
136.43034500,136430345,141.5260467529297,136430345,141.5260467529297
136.43108100,136431081,141.5260467529297,136431081,141.5260467529297
136.43110600,136431106,141.5260467529297,136431106,141.5260467529297
136.43183000,136431830,141.5260467529297,136431830,141.5260467529297
136.43185100,136431851,141.5260467529297,136431851,141.5260467529297
136.43257800,136432578,141.5260467529297,136432578,141.5260467529297
136.43260200,136432602,141.5260467529297,136432602,141.5260467529297
136.43333600,136433336,141.5260467529297,136433336,141.5260467529297
136.43335900,136433359,141.5260467529297,136433359,141.5260467529297
136.43409100,136434091,141.5260467529297,136434091,141.5260467529297
136.43411300,136434113,141.5260467529297,136434113,141.5260467529297
136.43483500,136434835,141.5260467529297,136434835,141.5260467529297
136.43485700,136434857,141.5260467529297,136434857,141.5260467529297
136.43563900,136435639,141.5260467529297,136435639,141.5260467529297
136.43566500,136435665,141.5260467529297,136435665,141.5260467529297
136.43634500,136436345,141.5260467529297,136436345,141.5260467529297
136.43636700,136436367,141.5260467529297,136436367,141.5260467529297
136.43709100,136437091,141.5260467529297,136437091,141.5260467529297
136.43711300,136437113,141.5260467529297,136437113,141.5260467529297
136.43784300,136437843,141.5260467529297,136437843,141.5260467529297
136.43786500,136437865,141.5260467529297,136437865,141.5260467529297
136.43880300,136438803,141.5260467529297,136438803,141.5260467529297
136.43883200,136438832,141.5260467529297,136438832,141.5260467529297
136.43934800,136439348,141.5260467529297,136439348,141.5260467529297
136.43937200,136439372,141.5260467529297,136439372,141.5260467529297
136.44009900,136440099,141.5260467529297,136440099,141.5260467529297
136.44012100,136440121,141.5260467529297,136440121,141.5260467529297
136.44085800,136440858,141.5260467529297,136440858,141.5260467529297
136.44088000,136440880,141.5260467529297,136440880,141.5260467529297
136.44160600,136441606,141.5260467529297,136441606,141.5260467529297
136.44162800,136441628,141.5260467529297,136441628,141.5260467529297
136.44235300,136442353,141.5260467529297,136442353,141.5260467529297
136.44237500,136442375,141.5260467529297,136442375,141.5260467529297
136.44316500,136443165,141.5260467529297,136443165,141.5260467529297
136.44318800,136443188,141.5260467529297,136443188,141.5260467529297
136.44385600,136443856,141.5260467529297,136443856,141.5260467529297
136.44388100,136443881,141.5260467529297,136443881,141.5260467529297
136.44460700,136444607,141.5260467529297,136444607,141.5260467529297
136.44462900,136444629,141.5260467529297,136444629,141.5260467529297
136.44535900,136445359,141.5260467529297,136445359,141.5260467529297
136.44538100,136445381,141.5260467529297,136445381,141.5260467529297
136.44611600,136446116,141.5260467529297,136446116,141.5260467529297
136.44613800,136446138,141.5260467529297,136446138,141.5260467529297
136.44686800,136446868,141.5260467529297,136446868,141.5260467529297
136.44689000,136446890,141.5260467529297,136446890,141.5260467529297
136.44761600,136447616,141.5260467529297,136447616,141.5260467529297
136.44763800,136447638,141.5260467529297,136447638,141.5260467529297
136.44837400,136448374,141.5260467529297,136448374,141.5260467529297
136.44840500,136448405,141.5260467529297,136448405,141.5260467529297
136.44912200,136449122,141.5260467529297,136449122,141.5260467529297
136.44914500,136449145,141.5260467529297,136449145,141.5260467529297
136.44987400,136449874,141.5260467529297,136449874,141.5260467529297
136.44989600,136449896,141.5260467529297,136449896,141.5260467529297
136.45066900,136450669,141.5260467529297,136450669,141.5260467529297
136.45069000,136450690,141.5260467529297,136450690,141.5260467529297
136.45142500,136451425,141.5260467529297,136451425,141.5260467529297
136.45144700,136451447,141.5260467529297,136451447,141.5260467529297
136.45217900,136452179,141.5260467529297,136452179,141.5260467529297
136.45220400,136452204,141.5260467529297,136452204,141.5260467529297
136.45292600,136452926,141.5260467529297,136452926,141.5260467529297
136.45294700,136452947,141.5260467529297,136452947,141.5260467529297
136.45368400,136453684,141.5260467529297,136453684,141.5260467529297
136.45370600,136453706,141.5260467529297,136453706,141.5260467529297
136.45443100,136454431,141.5260467529297,136454431,141.5260467529297
136.45445300,136454453,141.5260467529297,136454453,141.5260467529297
136.45518100,136455181,141.5260467529297,136455181,141.5260467529297
136.45520300,136455203,141.5260467529297,136455203,141.5260467529297
136.45593700,136455937,141.5260467529297,136455937,141.5260467529297
136.45595900,136455959,141.5260467529297,136455959,141.5260467529297
136.45668600,136456686,141.5260467529297,136456686,141.5260467529297
136.45670800,136456708,141.5260467529297,136456708,141.5260467529297
136.45743500,136457435,141.5260467529297,136457435,141.5260467529297
136.45745600,136457456,141.5260467529297,136457456,141.5260467529297
136.45825100,136458251,141.5260467529297,136458251,141.5260467529297
136.45827300,136458273,141.5260467529297,136458273,141.5260467529297
136.45900100,136459001,141.5260467529297,136459001,141.5260467529297
136.45902500,136459025,141.5260467529297,136459025,141.5260467529297
136.45975600,136459756,141.5260467529297,136459756,141.5260467529297
136.45978000,136459780,141.5260467529297,136459780,141.5260467529297
136.46050500,136460505,141.5260467529297,136460505,141.5260467529297
136.46052700,136460527,141.5260467529297,136460527,141.5260467529297
136.46126000,136461260,141.5260467529297,136461260,141.5260467529297
136.46128300,136461283,141.5260467529297,136461283,141.5260467529297
136.46200800,136462008,141.5260467529297,136462008,141.5260467529297
136.46203000,136462030,141.5260467529297,136462030,141.5260467529297
136.46275900,136462759,141.5260467529297,136462759,141.5260467529297
136.46278100,136462781,141.5260467529297,136462781,141.5260467529297
136.46371900,136463719,141.5260467529297,136463719,141.5260467529297
136.46374400,136463744,141.5260467529297,136463744,141.5260467529297
136.46426700,136464267,141.5260467529297,136464267,141.5260467529297
136.46429000,136464290,141.5260467529297,136464290,141.5260467529297
136.46501800,136465018,141.5260467529297,136465018,141.5260467529297
136.46504100,136465041,141.5260467529297,136465041,141.5260467529297
136.46579300,136465793,141.5260467529297,136465793,141.5260467529297
136.46581500,136465815,141.5260467529297,136465815,141.5260467529297
136.46654100,136466541,141.5260467529297,136466541,141.5260467529297
136.46656300,136466563,141.5260467529297,136466563,141.5260467529297
136.46729100,136467291,141.5260467529297,136467291,141.5260467529297
136.46731300,136467313,141.5260467529297,136467313,141.5260467529297
136.46804500,136468045,141.5260467529297,136468045,141.5260467529297
136.46806700,136468067,141.5260467529297,136468067,141.5260467529297
136.46879800,136468798,141.5260467529297,136468798,141.5260467529297
136.46882300,136468823,141.5260467529297,136468823,141.5260467529297
136.46954800,136469548,141.5260467529297,136469548,141.5260467529297
136.46957000,136469570,141.5260467529297,136469570,141.5260467529297
136.47030300,136470303,141.5260467529297,136470303,141.5260467529297
136.47032500,136470325,141.5260467529297,136470325,141.5260467529297
136.47105600,136471056,141.5260467529297,136471056,141.5260467529297
136.47107800,136471078,141.5260467529297,136471078,141.5260467529297
136.47180700,136471807,141.5260467529297,136471807,141.5260467529297
136.47182800,136471828,141.5260467529297,136471828,141.5260467529297
136.47255400,136472554,141.5260467529297,136472554,141.5260467529297
136.47257600,136472576,141.5260467529297,136472576,141.5260467529297
136.47331700,136473317,141.5260467529297,136473317,141.5260467529297
136.47334000,136473340,141.5260467529297,136473340,141.5260467529297
136.47406900,136474069,141.5260467529297,136474069,141.5260467529297
136.47409100,136474091,141.5260467529297,136474091,141.5260467529297
136.47481600,136474816,141.5260467529297,136474816,141.5260467529297
136.47483800,136474838,141.5260467529297,136474838,141.5260467529297
136.47556100,136475561,141.5260467529297,136475561,141.5260467529297
136.47558400,136475584,141.5260467529297,136475584,141.5260467529297
136.47631700,136476317,141.5260467529297,136476317,141.5260467529297
136.47633900,136476339,141.5260467529297,136476339,141.5260467529297
136.47707100,136477071,141.5260467529297,136477071,141.5260467529297
136.47709500,136477095,141.5260467529297,136477095,141.5260467529297
136.47781900,136477819,141.5260467529297,136477819,141.5260467529297
136.47784100,136477841,141.5260467529297,136477841,141.5260467529297
136.47857500,136478575,141.5260467529297,136478575,141.5260467529297
136.47859700,136478597,141.5260467529297,136478597,141.5260467529297
136.47932200,136479322,141.5260467529297,136479322,141.5260467529297
136.47934400,136479344,141.5260467529297,136479344,141.5260467529297
136.48007200,136480072,141.5260467529297,136480072,141.5260467529297
136.48009400,136480094,141.5260467529297,136480094,141.5260467529297
136.48082900,136480829,141.5260467529297,136480829,141.5260467529297
136.48085100,136480851,141.5260467529297,136480851,141.5260467529297
136.48158000,136481580,141.5260467529297,136481580,141.5260467529297
136.48160400,136481604,141.5260467529297,136481604,141.5260467529297
136.48232800,136482328,141.5260467529297,136482328,141.5260467529297
136.48235100,136482351,141.5260467529297,136482351,141.5260467529297
136.48308000,136483080,141.5260467529297,136483080,141.5260467529297
136.48316700,136483167,141.5260467529297,136483167,141.5260467529297
136.48382800,136483828,141.5260467529297,136483828,141.5260467529297
136.48385100,136483851,141.5260467529297,136483851,141.5260467529297
136.48457900,136484579,141.5260467529297,136484579,141.5260467529297
136.48460100,136484601,141.5260467529297,136484601,141.5260467529297
136.48532600,136485326,141.5260467529297,136485326,141.5260467529297
136.48534800,136485348,141.5260467529297,136485348,141.5260467529297
136.48608800,136486088,141.5260467529297,136486088,141.5260467529297
136.48611000,136486110,141.5260467529297,136486110,141.5260467529297
136.48683700,136486837,141.5260467529297,136486837,141.5260467529297
136.48685900,136486859,141.5260467529297,136486859,141.5260467529297
136.48759000,136487590,141.5260467529297,136487590,141.5260467529297
136.48761200,136487612,141.5260467529297,136487612,141.5260467529297
136.48834600,136488346,141.5260467529297,136488346,141.5260467529297
136.48837000,136488370,141.5260467529297,136488370,141.5260467529297
136.48909500,136489095,141.5260467529297,136489095,141.5260467529297
136.48911700,136489117,141.5260467529297,136489117,141.5260467529297
136.48984100,136489841,141.5260467529297,136489841,141.5260467529297
136.48986500,136489865,141.5260467529297,136489865,141.5260467529297
136.49064600,136490646,141.5260467529297,136490646,141.5260467529297
136.49067200,136490672,141.5260467529297,136490672,141.5260467529297
136.49134300,136491343,141.5260467529297,136491343,141.5260467529297
136.49136500,136491365,141.5260467529297,136491365,141.5260467529297
136.49209500,136492095,141.5260467529297,136492095,141.5260467529297
136.49211700,136492117,141.5260467529297,136492117,141.5260467529297
136.49284300,136492843,141.5260467529297,136492843,141.5260467529297
136.49286500,136492865,141.5260467529297,136492865,141.5260467529297
136.49380300,136493803,141.5260467529297,136493803,141.5260467529297
136.49382800,136493828,141.5260467529297,136493828,141.5260467529297
136.49434700,136494347,141.5260467529297,136494347,141.5260467529297
136.49437200,136494372,141.5260467529297,136494372,141.5260467529297
136.49510100,136495101,141.5260467529297,136495101,141.5260467529297
136.49512300,136495123,141.5260467529297,136495123,141.5260467529297
136.49586800,136495868,141.5260467529297,136495868,141.5260467529297
136.49589000,136495890,141.5260467529297,136495890,141.5260467529297
136.49661500,136496615,141.5260467529297,136496615,141.5260467529297
136.49663800,136496638,141.5260467529297,136496638,141.5260467529297
136.49736400,136497364,141.5260467529297,136497364,141.5260467529297
136.49738600,136497386,141.5260467529297,136497386,141.5260467529297
136.49817200,136498172,141.5260467529297,136498172,141.5260467529297
136.49819400,136498194,141.5260467529297,136498194,141.5260467529297
136.49892100,136498921,141.5260467529297,136498921,141.5260467529297
136.49894400,136498944,141.5260467529297,136498944,141.5260467529297
136.49967100,136499671,141.5260467529297,136499671,141.5260467529297
136.49969300,136499693,141.5260467529297,136499693,141.5260467529297
136.50042200,136500422,141.5260467529297,136500422,141.5260467529297
136.50044500,136500445,141.5260467529297,136500445,141.5260467529297
136.50117700,136501177,141.5260467529297,136501177,141.5260467529297
136.50120100,136501201,141.5260467529297,136501201,141.5260467529297
136.50192800,136501928,141.5260467529297,136501928,141.5260467529297
136.50195000,136501950,141.5260467529297,136501950,141.5260467529297
136.50268600,136502686,141.5260467529297,136502686,141.5260467529297
136.50270800,136502708,141.5260467529297,136502708,141.5260467529297
136.50344600,136503446,141.5260467529297,136503446,141.5260467529297
136.50346900,136503469,141.5260467529297,136503469,141.5260467529297
136.50419700,136504197,141.5260467529297,136504197,141.5260467529297
136.50422000,136504220,141.5260467529297,136504220,141.5260467529297
136.50494500,136504945,141.5260467529297,136504945,141.5260467529297
136.50496700,136504967,141.5260467529297,136504967,141.5260467529297
136.50575400,136505754,141.5260467529297,136505754,141.5260467529297
136.50577700,136505777,141.5260467529297,136505777,141.5260467529297
136.50650300,136506503,141.5260467529297,136506503,141.5260467529297
136.50652600,136506526,141.5260467529297,136506526,141.5260467529297
136.50725200,136507252,141.5260467529297,136507252,141.5260467529297
136.50727600,136507276,141.5260467529297,136507276,141.5260467529297
136.50800000,136508000,141.5260467529297,136508000,141.5260467529297
136.50802800,136508028,141.5260467529297,136508028,141.5260467529297
136.50875900,136508759,141.5260467529297,136508759,141.5260467529297
136.50878100,136508781,141.5260467529297,136508781,141.5260467529297
136.50950700,136509507,141.5260467529297,136509507,141.5260467529297
136.50952800,136509528,141.5260467529297,136509528,141.5260467529297
136.51025400,136510254,141.5260467529297,136510254,141.5260467529297
136.51027600,136510276,141.5260467529297,136510276,141.5260467529297
136.51101500,136511015,141.5260467529297,136511015,141.5260467529297
136.51103700,136511037,141.5260467529297,136511037,141.5260467529297
136.51176000,136511760,141.5260467529297,136511760,141.5260467529297
136.51178200,136511782,141.5260467529297,136511782,141.5260467529297
136.51251000,136512510,141.5260467529297,136512510,141.5260467529297
136.51253200,136512532,141.5260467529297,136512532,141.5260467529297
136.51329600,136513296,141.5260467529297,136513296,141.5260467529297
136.51332100,136513321,141.5260467529297,136513321,141.5260467529297
136.51404500,136514045,141.5260467529297,136514045,141.5260467529297
136.51406700,136514067,141.5260467529297,136514067,141.5260467529297
136.51479400,136514794,141.5260467529297,136514794,141.5260467529297
136.51481600,136514816,141.5260467529297,136514816,141.5260467529297
136.51553700,136515537,141.5260467529297,136515537,141.5260467529297
136.51555900,136515559,141.5260467529297,136515559,141.5260467529297
136.51629800,136516298,141.5260467529297,136516298,141.5260467529297
136.51632000,136516320,141.5260467529297,136516320,141.5260467529297
136.51704400,136517044,141.5260467529297,136517044,141.5260467529297
136.51706600,136517066,141.5260467529297,136517066,141.5260467529297
136.51779000,136517790,141.5260467529297,136517790,141.5260467529297
136.51781200,136517812,141.5260467529297,136517812,141.5260467529297
136.51854400,136518544,141.5260467529297,136518544,141.5260467529297
136.51856600,136518566,141.5260467529297,136518566,141.5260467529297
136.51929600,136519296,141.5260467529297,136519296,141.5260467529297
136.51932100,136519321,141.5260467529297,136519321,141.5260467529297
136.52004800,136520048,141.5260467529297,136520048,141.5260467529297
136.52007000,136520070,141.5260467529297,136520070,141.5260467529297
136.52081600,136520816,141.5260467529297,136520816,141.5260467529297
136.52083800,136520838,141.5260467529297,136520838,141.5260467529297
136.52156300,136521563,141.5260467529297,136521563,141.5260467529297
136.52158500,136521585,141.5260467529297,136521585,141.5260467529297
136.52231100,136522311,141.5260467529297,136522311,141.5260467529297
136.52233400,136522334,141.5260467529297,136522334,141.5260467529297
136.52306100,136523061,141.5260467529297,136523061,141.5260467529297
136.52314500,136523145,141.5260467529297,136523145,141.5260467529297
136.52381300,136523813,141.5260467529297,136523813,141.5260467529297
136.52383500,136523835,141.5260467529297,136523835,141.5260467529297
136.52456400,136524564,141.5260467529297,136524564,141.5260467529297
136.52458500,136524585,141.5260467529297,136524585,141.5260467529297
136.52531900,136525319,141.5260467529297,136525319,141.5260467529297
136.52534100,136525341,141.5260467529297,136525341,141.5260467529297
136.52608400,136526084,141.5260467529297,136526084,141.5260467529297
136.52610600,136526106,141.5260467529297,136526106,141.5260467529297
136.52683100,136526831,141.5260467529297,136526831,141.5260467529297
136.52685300,136526853,141.5260467529297,136526853,141.5260467529297
136.52758300,136527583,141.5260467529297,136527583,141.5260467529297
136.52760500,136527605,141.5260467529297,136527605,141.5260467529297
136.52834300,136528343,141.5260467529297,136528343,141.5260467529297
136.52836600,136528366,141.5260467529297,136528366,141.5260467529297
136.52909900,136529099,141.5260467529297,136529099,141.5260467529297
136.52912300,136529123,141.5260467529297,136529123,141.5260467529297
136.52984500,136529845,141.5260467529297,136529845,141.5260467529297
136.52986700,136529867,141.5260467529297,136529867,141.5260467529297
136.53064900,136530649,141.5260467529297,136530649,141.5260467529297
136.53067400,136530674,141.5260467529297,136530674,141.5260467529297
136.53134900,136531349,141.5260467529297,136531349,141.5260467529297
136.53137100,136531371,141.5260467529297,136531371,141.5260467529297
136.53210000,136532100,141.5260467529297,136532100,141.5260467529297
136.53212300,136532123,141.5260467529297,136532123,141.5260467529297
136.53284400,136532844,141.5260467529297,136532844,141.5260467529297
136.53286600,136532866,141.5260467529297,136532866,141.5260467529297
136.53360100,136533601,141.5260467529297,136533601,141.5260467529297
136.53362300,136533623,141.5260467529297,136533623,141.5260467529297
136.53434900,136534349,141.5260467529297,136534349,141.5260467529297
136.53437100,136534371,141.5260467529297,136534371,141.5260467529297
136.53509900,136535099,141.5260467529297,136535099,141.5260467529297
136.53512200,136535122,141.5260467529297,136535122,141.5260467529297
136.53585200,136535852,141.5260467529297,136535852,141.5260467529297
136.53587400,136535874,141.5260467529297,136535874,141.5260467529297
136.53660200,136536602,141.5260467529297,136536602,141.5260467529297
136.53662400,136536624,141.5260467529297,136536624,141.5260467529297
136.53735500,136537355,141.5260467529297,136537355,141.5260467529297
136.53738000,136537380,141.5260467529297,136537380,141.5260467529297
136.53816800,136538168,141.5260467529297,136538168,141.5260467529297
136.53819100,136538191,141.5260467529297,136538191,141.5260467529297
136.53886000,136538860,141.5260467529297,136538860,141.5260467529297
136.53888400,136538884,141.5260467529297,136538884,141.5260467529297
136.53960500,136539605,141.5260467529297,136539605,141.5260467529297
136.53962700,136539627,141.5260467529297,136539627,141.5260467529297
136.54036300,136540363,141.5260467529297,136540363,141.5260467529297
136.54038500,136540385,141.5260467529297,136540385,141.5260467529297
136.54112500,136541125,141.5260467529297,136541125,141.5260467529297
136.54114800,136541148,141.5260467529297,136541148,141.5260467529297
136.54186900,136541869,141.5260467529297,136541869,141.5260467529297
136.54189300,136541893,141.5260467529297,136541893,141.5260467529297
136.54261800,136542618,141.5260467529297,136542618,141.5260467529297
136.54264300,136542643,141.5260467529297,136542643,141.5260467529297
136.54338000,136543380,141.5260467529297,136543380,141.5260467529297
136.54340800,136543408,141.5260467529297,136543408,141.5260467529297
136.54412800,136544128,141.5260467529297,136544128,141.5260467529297
136.54415200,136544152,141.5260467529297,136544152,141.5260467529297
136.54487600,136544876,141.5260467529297,136544876,141.5260467529297
136.54489900,136544899,141.5260467529297,136544899,141.5260467529297
136.54566800,136545668,141.5260467529297,136545668,141.5260467529297
136.54569200,136545692,141.5260467529297,136545692,141.5260467529297
136.54641500,136546415,141.5260467529297,136546415,141.5260467529297
136.54643700,136546437,141.5260467529297,136546437,141.5260467529297
136.54717000,136547170,141.5260467529297,136547170,141.5260467529297
136.54719200,136547192,141.5260467529297,136547192,141.5260467529297
136.54791800,136547918,141.5260467529297,136547918,141.5260467529297
136.54794000,136547940,141.5260467529297,136547940,141.5260467529297
136.54867600,136548676,141.5260467529297,136548676,141.5260467529297
136.54869800,136548698,141.5260467529297,136548698,141.5260467529297
136.54942900,136549429,141.5260467529297,136549429,141.5260467529297
136.54945200,136549452,141.5260467529297,136549452,141.5260467529297
136.55018100,136550181,141.5260467529297,136550181,141.5260467529297
136.55020500,136550205,141.5260467529297,136550205,141.5260467529297
136.55114700,136551147,141.5260467529297,136551147,141.5260467529297
136.55117100,136551171,141.5260467529297,136551171,141.5260467529297
136.55168900,136551689,141.5260467529297,136551689,141.5260467529297
136.55171100,136551711,141.5260467529297,136551711,141.5260467529297
136.55243700,136552437,141.5260467529297,136552437,141.5260467529297
136.55245900,136552459,141.5260467529297,136552459,141.5260467529297
136.55325600,136553256,141.5260467529297,136553256,141.5260467529297
136.55328100,136553281,141.5260467529297,136553281,141.5260467529297
136.55400600,136554006,141.5260467529297,136554006,141.5260467529297
136.55402900,136554029,141.5260467529297,136554029,141.5260467529297
136.55475500,136554755,141.5260467529297,136554755,141.5260467529297
136.55477700,136554777,141.5260467529297,136554777,141.5260467529297
136.55550400,136555504,141.5260467529297,136555504,141.5260467529297
136.55552600,136555526,141.5260467529297,136555526,141.5260467529297
136.55626900,136556269,141.5260467529297,136556269,141.5260467529297
136.55629300,136556293,141.5260467529297,136556293,141.5260467529297
136.55701700,136557017,141.5260467529297,136557017,141.5260467529297
136.55704100,136557041,141.5260467529297,136557041,141.5260467529297
136.55776800,136557768,141.5260467529297,136557768,141.5260467529297
136.55779200,136557792,141.5260467529297,136557792,141.5260467529297
136.55852500,136558525,141.5260467529297,136558525,141.5260467529297
136.55854700,136558547,141.5260467529297,136558547,141.5260467529297
136.55927400,136559274,141.5260467529297,136559274,141.5260467529297
136.55929800,136559298,141.5260467529297,136559298,141.5260467529297
136.56002300,136560023,141.5260467529297,136560023,141.5260467529297
136.56004500,136560045,141.5260467529297,136560045,141.5260467529297
136.56079400,136560794,141.5260467529297,136560794,141.5260467529297
136.56081600,136560816,141.5260467529297,136560816,141.5260467529297
136.56154400,136561544,141.5260467529297,136561544,141.5260467529297
136.56156600,136561566,141.5260467529297,136561566,141.5260467529297
136.56229700,136562297,141.5260467529297,136562297,141.5260467529297
136.56232200,136562322,141.5260467529297,136562322,141.5260467529297
136.56304400,136563044,141.5260467529297,136563044,141.5260467529297
136.56306500,136563065,141.5260467529297,136563065,141.5260467529297
136.56380400,136563804,141.5260467529297,136563804,141.5260467529297
136.56382600,136563826,141.5260467529297,136563826,141.5260467529297
136.56454900,136564549,141.5260467529297,136564549,141.5260467529297
136.56457000,136564570,141.5260467529297,136564570,141.5260467529297
136.56530500,136565305,141.5260467529297,136565305,141.5260467529297
136.56532800,136565328,141.5260467529297,136565328,141.5260467529297
136.56606300,136566063,141.5260467529297,136566063,141.5260467529297
136.56608500,136566085,141.5260467529297,136566085,141.5260467529297
136.56681000,136566810,141.5260467529297,136566810,141.5260467529297
136.56683500,136566835,141.5260467529297,136566835,141.5260467529297
136.56756000,136567560,141.5260467529297,136567560,141.5260467529297
136.56758200,136567582,141.5260467529297,136567582,141.5260467529297
136.56832200,136568322,141.5260467529297,136568322,141.5260467529297
136.56834500,136568345,141.5260467529297,136568345,141.5260467529297
136.56907000,136569070,141.5260467529297,136569070,141.5260467529297
136.56909300,136569093,141.5260467529297,136569093,141.5260467529297
136.56981800,136569818,141.5260467529297,136569818,141.5260467529297
136.56984000,136569840,141.5260467529297,136569840,141.5260467529297
136.57056600,136570566,141.5260467529297,136570566,141.5260467529297
136.57064800,136570648,141.5260467529297,136570648,141.5260467529297
136.57132600,136571326,141.5260467529297,136571326,141.5260467529297
136.57134800,136571348,141.5260467529297,136571348,141.5260467529297
136.57207500,136572075,141.5260467529297,136572075,141.5260467529297
136.57209700,136572097,141.5260467529297,136572097,141.5260467529297
136.57282500,136572825,141.5260467529297,136572825,141.5260467529297
136.57284700,136572847,141.5260467529297,136572847,141.5260467529297
136.57358200,136573582,141.5260467529297,136573582,141.5260467529297
136.57360600,136573606,141.5260467529297,136573606,141.5260467529297
136.57433100,136574331,141.5260467529297,136574331,141.5260467529297
136.57435200,136574352,141.5260467529297,136574352,141.5260467529297
136.57507900,136575079,141.5260467529297,136575079,141.5260467529297
136.57510200,136575102,141.5260467529297,136575102,141.5260467529297
136.57583600,136575836,141.5260467529297,136575836,141.5260467529297
136.57585800,136575858,141.5260467529297,136575858,141.5260467529297
136.57659000,136576590,141.5260467529297,136576590,141.5260467529297
136.57661400,136576614,141.5260467529297,136576614,141.5260467529297
136.57733600,136577336,141.5260467529297,136577336,141.5260467529297
136.57735800,136577358,141.5260467529297,136577358,141.5260467529297
136.57814000,136578140,141.5260467529297,136578140,141.5260467529297
136.57816500,136578165,141.5260467529297,136578165,141.5260467529297
136.57883600,136578836,141.5260467529297,136578836,141.5260467529297
136.57885900,136578859,141.5260467529297,136578859,141.5260467529297
136.57958800,136579588,141.5260467529297,136579588,141.5260467529297
136.57961200,136579612,141.5260467529297,136579612,141.5260467529297
136.58033900,136580339,141.5260467529297,136580339,141.5260467529297
136.58036100,136580361,141.5260467529297,136580361,141.5260467529297
136.58109700,136581097,141.5260467529297,136581097,141.5260467529297
136.58111900,136581119,141.5260467529297,136581119,141.5260467529297
136.58184600,136581846,141.5260467529297,136581846,141.5260467529297
136.58186800,136581868,141.5260467529297,136581868,141.5260467529297
136.58259400,136582594,141.5260467529297,136582594,141.5260467529297
136.58261600,136582616,141.5260467529297,136582616,141.5260467529297
136.58335600,136583356,141.5260467529297,136583356,141.5260467529297
136.58337900,136583379,141.5260467529297,136583379,141.5260467529297
136.58410400,136584104,141.5260467529297,136584104,141.5260467529297
136.58412700,136584127,141.5260467529297,136584127,141.5260467529297
136.58485200,136584852,141.5260467529297,136584852,141.5260467529297
136.58487400,136584874,141.5260467529297,136584874,141.5260467529297
136.58566300,136585663,141.5260467529297,136585663,141.5260467529297
136.58568500,136585685,141.5260467529297,136585685,141.5260467529297
136.58635700,136586357,141.5260467529297,136586357,141.5260467529297
136.58638100,136586381,141.5260467529297,136586381,141.5260467529297
136.58710600,136587106,141.5260467529297,136587106,141.5260467529297
136.58712800,136587128,141.5260467529297,136587128,141.5260467529297
136.58785500,136587855,141.5260467529297,136587855,141.5260467529297
136.58787700,136587877,141.5260467529297,136587877,141.5260467529297
136.58861300,136588613,141.5260467529297,136588613,141.5260467529297
136.58863500,136588635,141.5260467529297,136588635,141.5260467529297
136.58936700,136589367,141.5260467529297,136589367,141.5260467529297
136.58939000,136589390,141.5260467529297,136589390,141.5260467529297
136.59011700,136590117,141.5260467529297,136590117,141.5260467529297
136.59014100,136590141,141.5260467529297,136590141,141.5260467529297
136.59087700,136590877,141.5260467529297,136590877,141.5260467529297
136.59090200,136590902,141.5260467529297,136590902,141.5260467529297
136.59162400,136591624,141.5260467529297,136591624,141.5260467529297
136.59164800,136591648,141.5260467529297,136591648,141.5260467529297
136.59237500,136592375,141.5260467529297,136592375,141.5260467529297
136.59239900,136592399,141.5260467529297,136592399,141.5260467529297
136.59317000,136593170,141.5260467529297,136593170,141.5260467529297
136.59319200,136593192,141.5260467529297,136593192,141.5260467529297
136.59391900,136593919,141.5260467529297,136593919,141.5260467529297
136.59394200,136593942,141.5260467529297,136593942,141.5260467529297
136.59467300,136594673,141.5260467529297,136594673,141.5260467529297
136.59469700,136594697,141.5260467529297,136594697,141.5260467529297
136.59542200,136595422,141.5260467529297,136595422,141.5260467529297
136.59544400,136595444,141.5260467529297,136595444,141.5260467529297
136.59617800,136596178,141.5260467529297,136596178,141.5260467529297
136.59620100,136596201,141.5260467529297,136596201,141.5260467529297
136.59692900,136596929,141.5260467529297,136596929,141.5260467529297
136.59695100,136596951,141.5260467529297,136596951,141.5260467529297
136.59767900,136597679,141.5260467529297,136597679,141.5260467529297
136.59770100,136597701,141.5260467529297,136597701,141.5260467529297
136.59844300,136598443,141.5260467529297,136598443,141.5260467529297
136.59846500,136598465,141.5260467529297,136598465,141.5260467529297
136.59919300,136599193,141.5260467529297,136599193,141.5260467529297
136.59921800,136599218,141.5260467529297,136599218,141.5260467529297
136.59994100,136599941,141.5260467529297,136599941,141.5260467529297
136.59996300,136599963,141.5260467529297,136599963,141.5260467529297
136.60075200,136600752,141.5260467529297,136600752,141.5260467529297
136.60077400,136600774,141.5260467529297,136600774,141.5260467529297
136.60150100,136601501,141.5260467529297,136601501,141.5260467529297
136.60152500,136601525,141.5260467529297,136601525,141.5260467529297
136.60225200,136602252,141.5260467529297,136602252,141.5260467529297
136.60227900,136602279,141.5260467529297,136602279,141.5260467529297
136.60300400,136603004,141.5260467529297,136603004,141.5260467529297
136.60302600,136603026,141.5260467529297,136603026,141.5260467529297
136.60376100,136603761,141.5260467529297,136603761,141.5260467529297
136.60378400,136603784,141.5260467529297,136603784,141.5260467529297
136.60450900,136604509,141.5260467529297,136604509,141.5260467529297
136.60453100,136604531,141.5260467529297,136604531,141.5260467529297
136.60526100,136605261,141.5260467529297,136605261,141.5260467529297
136.60528800,136605288,141.5260467529297,136605288,141.5260467529297
136.60601600,136606016,141.5260467529297,136606016,141.5260467529297
136.60604000,136606040,141.5260467529297,136606040,141.5260467529297
136.60676700,136606767,141.5260467529297,136606767,141.5260467529297
136.60678900,136606789,141.5260467529297,136606789,141.5260467529297
136.60751300,136607513,141.5260467529297,136607513,141.5260467529297
136.60753700,136607537,141.5260467529297,136607537,141.5260467529297
136.60830000,136608300,141.5260467529297,136608300,141.5260467529297
136.60832200,136608322,141.5260467529297,136608322,141.5260467529297
136.60904800,136609048,141.5260467529297,136609048,141.5260467529297
136.60907000,136609070,141.5260467529297,136609070,141.5260467529297
136.60979300,136609793,141.5260467529297,136609793,141.5260467529297
136.60981500,136609815,141.5260467529297,136609815,141.5260467529297
136.61054600,136610546,141.5260467529297,136610546,141.5260467529297
136.61056800,136610568,141.5260467529297,136610568,141.5260467529297
136.61130500,136611305,141.5260467529297,136611305,141.5260467529297
136.61133000,136611330,141.5260467529297,136611330,141.5260467529297
136.61205200,136612052,141.5260467529297,136612052,141.5260467529297
136.61207400,136612074,141.5260467529297,136612074,141.5260467529297
136.61280000,136612800,141.5260467529297,136612800,141.5260467529297
136.61282400,136612824,141.5260467529297,136612824,141.5260467529297
136.61356300,136613563,141.5260467529297,136613563,141.5260467529297
136.61358500,136613585,141.5260467529297,136613585,141.5260467529297
136.61431700,136614317,141.5260467529297,136614317,141.5260467529297
136.61434000,136614340,141.5260467529297,136614340,141.5260467529297
136.61506300,136615063,141.5260467529297,136615063,141.5260467529297
136.61508500,136615085,141.5260467529297,136615085,141.5260467529297
136.61581900,136615819,141.5260467529297,136615819,141.5260467529297
136.61584500,136615845,141.5260467529297,136615845,141.5260467529297
136.61657500,136616575,141.5260467529297,136616575,141.5260467529297
136.61659700,136616597,141.5260467529297,136616597,141.5260467529297
136.61732300,136617323,141.5260467529297,136617323,141.5260467529297
136.61734600,136617346,141.5260467529297,136617346,141.5260467529297
136.61806600,136618066,141.5260467529297,136618066,141.5260467529297
136.61809000,136618090,141.5260467529297,136618090,141.5260467529297
136.61882400,136618824,141.5260467529297,136618824,141.5260467529297
136.61884600,136618846,141.5260467529297,136618846,141.5260467529297
136.61956700,136619567,141.5260467529297,136619567,141.5260467529297
136.61958900,136619589,141.5260467529297,136619589,141.5260467529297
136.62031800,136620318,141.5260467529297,136620318,141.5260467529297
136.62034500,136620345,141.5260467529297,136620345,141.5260467529297
136.62107300,136621073,141.5260467529297,136621073,141.5260467529297
136.62109500,136621095,141.5260467529297,136621095,141.5260467529297
136.62182000,136621820,141.5260467529297,136621820,141.5260467529297
136.62184200,136621842,141.5260467529297,136621842,141.5260467529297
136.62257700,136622577,141.5260467529297,136622577,141.5260467529297
136.62260000,136622600,141.5260467529297,136622600,141.5260467529297
136.62334000,136623340,141.5260467529297,136623340,141.5260467529297
136.62336200,136623362,141.5260467529297,136623362,141.5260467529297
136.62408900,136624089,141.5260467529297,136624089,141.5260467529297
136.62411200,136624112,141.5260467529297,136624112,141.5260467529297
136.62483400,136624834,141.5260467529297,136624834,141.5260467529297
136.62485600,136624856,141.5260467529297,136624856,141.5260467529297
136.62563900,136625639,141.5260467529297,136625639,141.5260467529297
136.62566400,136625664,141.5260467529297,136625664,141.5260467529297
136.62633600,136626336,141.5260467529297,136626336,141.5260467529297
136.62636300,136626363,141.5260467529297,136626363,141.5260467529297
136.62708400,136627084,141.5260467529297,136627084,141.5260467529297
136.62710700,136627107,141.5260467529297,136627107,141.5260467529297
136.62783600,136627836,141.5260467529297,136627836,141.5260467529297
136.62785800,136627858,141.5260467529297,136627858,141.5260467529297
136.62859300,136628593,141.5260467529297,136628593,141.5260467529297
136.62861800,136628618,141.5260467529297,136628618,141.5260467529297
136.62934200,136629342,141.5260467529297,136629342,141.5260467529297
136.62936800,136629368,141.5260467529297,136629368,141.5260467529297
136.63009500,136630095,141.5260467529297,136630095,141.5260467529297
136.63011700,136630117,141.5260467529297,136630117,141.5260467529297
136.63085200,136630852,141.5260467529297,136630852,141.5260467529297
136.63087400,136630874,141.5260467529297,136630874,141.5260467529297
136.63160300,136631603,141.5260467529297,136631603,141.5260467529297
136.63162500,136631625,141.5260467529297,136631625,141.5260467529297
136.63235200,136632352,141.5260467529297,136632352,141.5260467529297
136.63237800,136632378,141.5260467529297,136632378,141.5260467529297
136.63316000,136633160,141.5260467529297,136633160,141.5260467529297
136.63318600,136633186,141.5260467529297,136633186,141.5260467529297
136.63385300,136633853,141.5260467529297,136633853,141.5260467529297
136.63387500,136633875,141.5260467529297,136633875,141.5260467529297
136.63460400,136634604,141.5260467529297,136634604,141.5260467529297
136.63462600,136634626,141.5260467529297,136634626,141.5260467529297
136.63535900,136635359,141.5260467529297,136635359,141.5260467529297
136.63538700,136635387,141.5260467529297,136635387,141.5260467529297
136.63611600,136636116,141.5260467529297,136636116,141.5260467529297
136.63613800,136636138,141.5260467529297,136636138,141.5260467529297
136.63686600,136636866,141.5260467529297,136636866,141.5260467529297
136.63688900,136636889,141.5260467529297,136636889,141.5260467529297
136.63761500,136637615,141.5260467529297,136637615,141.5260467529297
136.63763900,136637639,141.5260467529297,136637639,141.5260467529297
136.63838300,136638383,141.5260467529297,136638383,141.5260467529297
136.63840700,136638407,141.5260467529297,136638407,141.5260467529297
136.63912900,136639129,141.5260467529297,136639129,141.5260467529297
136.63915300,136639153,141.5260467529297,136639153,141.5260467529297
136.63988000,136639880,141.5260467529297,136639880,141.5260467529297
136.63990400,136639904,141.5260467529297,136639904,141.5260467529297
136.64065900,136640659,141.5260467529297,136640659,141.5260467529297
136.64068000,136640680,141.5260467529297,136640680,141.5260467529297
136.64141600,136641416,141.5260467529297,136641416,141.5260467529297
136.64143900,136641439,141.5260467529297,136641439,141.5260467529297
136.64217000,136642170,141.5260467529297,136642170,141.5260467529297
136.64219200,136642192,141.5260467529297,136642192,141.5260467529297
136.64291800,136642918,141.5260467529297,136642918,141.5260467529297
136.64294000,136642940,141.5260467529297,136642940,141.5260467529297
136.64367400,136643674,141.5260467529297,136643674,141.5260467529297
136.64369900,136643699,141.5260467529297,136643699,141.5260467529297
136.64442900,136644429,141.5260467529297,136644429,141.5260467529297
136.64445200,136644452,141.5260467529297,136644452,141.5260467529297
136.64517900,136645179,141.5260467529297,136645179,141.5260467529297
136.64520200,136645202,141.5260467529297,136645202,141.5260467529297
136.64614500,136646145,141.5260467529297,136646145,141.5260467529297
136.64617000,136646170,141.5260467529297,136646170,141.5260467529297
136.64668400,136646684,141.5260467529297,136646684,141.5260467529297
136.64670700,136646707,141.5260467529297,136646707,141.5260467529297
136.64744400,136647444,141.5260467529297,136647444,141.5260467529297
136.64746700,136647467,141.5260467529297,136647467,141.5260467529297
136.64825400,136648254,141.5260467529297,136648254,141.5260467529297
136.64827700,136648277,141.5260467529297,136648277,141.5260467529297
136.64900500,136649005,141.5260467529297,136649005,141.5260467529297
136.64902700,136649027,141.5260467529297,136649027,141.5260467529297
136.64975800,136649758,141.5260467529297,136649758,141.5260467529297
136.64978000,136649780,141.5260467529297,136649780,141.5260467529297
136.65050700,136650507,141.5260467529297,136650507,141.5260467529297
136.65053100,136650531,141.5260467529297,136650531,141.5260467529297
136.65127100,136651271,141.5260467529297,136651271,141.5260467529297
136.65129400,136651294,141.5260467529297,136651294,141.5260467529297
136.65201900,136652019,141.5260467529297,136652019,141.5260467529297
136.65204100,136652041,141.5260467529297,136652041,141.5260467529297
136.65276700,136652767,141.5260467529297,136652767,141.5260467529297
136.65279000,136652790,141.5260467529297,136652790,141.5260467529297
136.65353200,136653532,141.5260467529297,136653532,141.5260467529297
136.65355700,136653557,141.5260467529297,136653557,141.5260467529297
136.65429200,136654292,141.5260467529297,136654292,141.5260467529297
136.65431400,136654314,141.5260467529297,136654314,141.5260467529297
136.65504100,136655041,141.5260467529297,136655041,141.5260467529297
136.65506200,136655062,141.5260467529297,136655062,141.5260467529297
136.65580000,136655800,141.5260467529297,136655800,141.5260467529297
136.65582300,136655823,141.5260467529297,136655823,141.5260467529297
136.65655400,136656554,141.5260467529297,136656554,141.5260467529297
136.65657600,136656576,141.5260467529297,136656576,141.5260467529297
136.65730500,136657305,141.5260467529297,136657305,141.5260467529297
136.65732700,136657327,141.5260467529297,136657327,141.5260467529297
136.65805200,136658052,141.5260467529297,136658052,141.5260467529297
136.65807500,136658075,141.5260467529297,136658075,141.5260467529297
136.65880800,136658808,141.5260467529297,136658808,141.5260467529297
136.65883000,136658830,141.5260467529297,136658830,141.5260467529297
136.65955700,136659557,141.5260467529297,136659557,141.5260467529297
136.65957900,136659579,141.5260467529297,136659579,141.5260467529297
136.66030700,136660307,141.5260467529297,136660307,141.5260467529297
136.66033000,136660330,141.5260467529297,136660330,141.5260467529297
136.66106400,136661064,141.5260467529297,136661064,141.5260467529297
136.66108600,136661086,141.5260467529297,136661086,141.5260467529297
136.66181400,136661814,141.5260467529297,136661814,141.5260467529297
136.66183600,136661836,141.5260467529297,136661836,141.5260467529297
136.66256600,136662566,141.5260467529297,136662566,141.5260467529297
136.66258800,136662588,141.5260467529297,136662588,141.5260467529297
136.66332300,136663323,141.5260467529297,136663323,141.5260467529297
136.66334500,136663345,141.5260467529297,136663345,141.5260467529297
136.66407600,136664076,141.5260467529297,136664076,141.5260467529297
136.66409800,136664098,141.5260467529297,136664098,141.5260467529297
136.66482200,136664822,141.5260467529297,136664822,141.5260467529297
136.66484600,136664846,141.5260467529297,136664846,141.5260467529297
136.66558100,136665581,141.5260467529297,136665581,141.5260467529297
136.66566300,136665663,141.5260467529297,136665663,141.5260467529297
136.66633600,136666336,141.5260467529297,136666336,141.5260467529297
136.66635800,136666358,141.5260467529297,136666358,141.5260467529297
136.66708300,136667083,141.5260467529297,136667083,141.5260467529297
136.66710500,136667105,141.5260467529297,136667105,141.5260467529297
136.66783500,136667835,141.5260467529297,136667835,141.5260467529297
136.66785700,136667857,141.5260467529297,136667857,141.5260467529297
136.66859600,136668596,141.5260467529297,136668596,141.5260467529297
136.66861900,136668619,141.5260467529297,136668619,141.5260467529297
136.66934500,136669345,141.5260467529297,136669345,141.5260467529297
136.66936700,136669367,141.5260467529297,136669367,141.5260467529297
136.67009700,136670097,141.5260467529297,136670097,141.5260467529297
136.67011900,136670119,141.5260467529297,136670119,141.5260467529297
136.67085300,136670853,141.5260467529297,136670853,141.5260467529297
136.67087600,136670876,141.5260467529297,136670876,141.5260467529297
136.67160600,136671606,141.5260467529297,136671606,141.5260467529297
136.67163000,136671630,141.5260467529297,136671630,141.5260467529297
136.67235400,136672354,141.5260467529297,136672354,141.5260467529297
136.67237600,136672376,141.5260467529297,136672376,141.5260467529297
136.67316100,136673161,141.5260467529297,136673161,141.5260467529297
136.67319100,136673191,141.5260467529297,136673191,141.5260467529297
136.67385400,136673854,141.5260467529297,136673854,141.5260467529297
136.67387700,136673877,141.5260467529297,136673877,141.5260467529297
136.67461100,136674611,141.5260467529297,136674611,141.5260467529297
136.67463300,136674633,141.5260467529297,136674633,141.5260467529297
136.67536100,136675361,141.5260467529297,136675361,141.5260467529297
136.67538200,136675382,141.5260467529297,136675382,141.5260467529297
136.67611700,136676117,141.5260467529297,136676117,141.5260467529297
136.67614200,136676142,141.5260467529297,136676142,141.5260467529297
136.67686700,136676867,141.5260467529297,136676867,141.5260467529297
136.67688900,136676889,141.5260467529297,136676889,141.5260467529297
136.67761900,136677619,141.5260467529297,136677619,141.5260467529297
136.67764100,136677641,141.5260467529297,136677641,141.5260467529297
136.67837700,136678377,141.5260467529297,136678377,141.5260467529297
136.67840000,136678400,141.5260467529297,136678400,141.5260467529297
136.67912800,136679128,141.5260467529297,136679128,141.5260467529297
136.67915200,136679152,141.5260467529297,136679152,141.5260467529297
136.67987500,136679875,141.5260467529297,136679875,141.5260467529297
136.67989700,136679897,141.5260467529297,136679897,141.5260467529297
136.68066600,136680666,141.5260467529297,136680666,141.5260467529297
136.68069300,136680693,141.5260467529297,136680693,141.5260467529297
136.68141100,136681411,141.5260467529297,136681411,141.5260467529297
136.68143400,136681434,141.5260467529297,136681434,141.5260467529297
136.68215900,136682159,141.5260467529297,136682159,141.5260467529297
136.68218100,136682181,141.5260467529297,136682181,141.5260467529297
136.68290800,136682908,141.5260467529297,136682908,141.5260467529297
136.68293000,136682930,141.5260467529297,136682930,141.5260467529297
136.68366200,136683662,141.5260467529297,136683662,141.5260467529297
136.68368300,136683683,141.5260467529297,136683683,141.5260467529297
136.68441300,136684413,141.5260467529297,136684413,141.5260467529297
136.68443500,136684435,141.5260467529297,136684435,141.5260467529297
136.68516100,136685161,141.5260467529297,136685161,141.5260467529297
136.68518400,136685184,141.5260467529297,136685184,141.5260467529297
136.68612200,136686122,141.5260467529297,136686122,141.5260467529297
136.68614600,136686146,141.5260467529297,136686146,141.5260467529297
136.68666700,136686667,141.5260467529297,136686667,141.5260467529297
136.68669000,136686690,141.5260467529297,136686690,141.5260467529297
136.68741600,136687416,141.5260467529297,136687416,141.5260467529297
136.68743800,136687438,141.5260467529297,136687438,141.5260467529297
136.68817200,136688172,141.5260467529297,136688172,141.5260467529297
136.68819500,136688195,141.5260467529297,136688195,141.5260467529297
136.68892600,136688926,141.5260467529297,136688926,141.5260467529297
136.68894900,136688949,141.5260467529297,136688949,141.5260467529297
136.68967700,136689677,141.5260467529297,136689677,141.5260467529297
136.68969900,136689699,141.5260467529297,136689699,141.5260467529297
136.69042800,136690428,141.5260467529297,136690428,141.5260467529297
136.69045100,136690451,141.5260467529297,136690451,141.5260467529297
136.69118300,136691183,141.5260467529297,136691183,141.5260467529297
136.69120500,136691205,141.5260467529297,136691205,141.5260467529297
136.69193200,136691932,141.5260467529297,136691932,141.5260467529297
136.69195400,136691954,141.5260467529297,136691954,141.5260467529297
136.69268000,136692680,141.5260467529297,136692680,141.5260467529297
136.69270400,136692704,141.5260467529297,136692704,141.5260467529297
136.69344400,136693444,141.5260467529297,136693444,141.5260467529297
136.69346800,136693468,141.5260467529297,136693468,141.5260467529297
136.69419600,136694196,141.5260467529297,136694196,141.5260467529297
136.69421800,136694218,141.5260467529297,136694218,141.5260467529297
136.69494300,136694943,141.5260467529297,136694943,141.5260467529297
136.69496500,136694965,141.5260467529297,136694965,141.5260467529297
136.69575600,136695756,141.5260467529297,136695756,141.5260467529297
136.69578000,136695780,141.5260467529297,136695780,141.5260467529297
136.69650600,136696506,141.5260467529297,136696506,141.5260467529297
136.69653300,136696533,141.5260467529297,136696533,141.5260467529297
136.69725600,136697256,141.5260467529297,136697256,141.5260467529297
136.69727800,136697278,141.5260467529297,136697278,141.5260467529297
136.69800200,136698002,141.5260467529297,136698002,141.5260467529297
136.69802400,136698024,141.5260467529297,136698024,141.5260467529297
136.69875900,136698759,141.5260467529297,136698759,141.5260467529297
136.69878100,136698781,141.5260467529297,136698781,141.5260467529297
136.69950800,136699508,141.5260467529297,136699508,141.5260467529297
136.69953600,136699536,141.5260467529297,136699536,141.5260467529297
136.70026100,136700261,141.5260467529297,136700261,141.5260467529297
136.70028500,136700285,141.5260467529297,136700285,141.5260467529297
136.70101500,136701015,141.5260467529297,136701015,141.5260467529297
136.70103700,136701037,141.5260467529297,136701037,141.5260467529297
136.70176800,136701768,141.5260467529297,136701768,141.5260467529297
136.70179000,136701790,141.5260467529297,136701790,141.5260467529297
136.70251800,136702518,141.5260467529297,136702518,141.5260467529297
136.70254500,136702545,141.5260467529297,136702545,141.5260467529297
136.70330000,136703300,141.5260467529297,136703300,141.5260467529297
136.70332200,136703322,141.5260467529297,136703322,141.5260467529297
136.70404600,136704046,141.5260467529297,136704046,141.5260467529297
136.70406800,136704068,141.5260467529297,136704068,141.5260467529297
136.70479100,136704791,141.5260467529297,136704791,141.5260467529297
136.70481500,136704815,141.5260467529297,136704815,141.5260467529297
136.70554400,136705544,141.5260467529297,136705544,141.5260467529297
136.70556600,136705566,141.5260467529297,136705566,141.5260467529297
136.70629500,136706295,141.5260467529297,136706295,141.5260467529297
136.70631700,136706317,141.5260467529297,136706317,141.5260467529297
136.70703900,136707039,141.5260467529297,136707039,141.5260467529297
136.70706100,136707061,141.5260467529297,136707061,141.5260467529297
136.70779300,136707793,141.5260467529297,136707793,141.5260467529297
136.70781600,136707816,141.5260467529297,136707816,141.5260467529297
136.70855300,136708553,141.5260467529297,136708553,141.5260467529297
136.70857600,136708576,141.5260467529297,136708576,141.5260467529297
136.70929800,136709298,141.5260467529297,136709298,141.5260467529297
136.70932000,136709320,141.5260467529297,136709320,141.5260467529297
136.71004500,136710045,141.5260467529297,136710045,141.5260467529297
136.71006800,136710068,141.5260467529297,136710068,141.5260467529297
136.71080600,136710806,141.5260467529297,136710806,141.5260467529297
136.71083000,136710830,141.5260467529297,136710830,141.5260467529297
136.71156100,136711561,141.5260467529297,136711561,141.5260467529297
136.71158300,136711583,141.5260467529297,136711583,141.5260467529297
136.71230700,136712307,141.5260467529297,136712307,141.5260467529297
136.71233000,136712330,141.5260467529297,136712330,141.5260467529297
136.71305600,136713056,141.5260467529297,136713056,141.5260467529297
136.71307800,136713078,141.5260467529297,136713078,141.5260467529297
136.71381200,136713812,141.5260467529297,136713812,141.5260467529297
136.71383400,136713834,141.5260467529297,136713834,141.5260467529297
136.71456700,136714567,141.5260467529297,136714567,141.5260467529297
136.71458900,136714589,141.5260467529297,136714589,141.5260467529297
136.71531000,136715310,141.5260467529297,136715310,141.5260467529297
136.71533500,136715335,141.5260467529297,136715335,141.5260467529297
136.71607200,136716072,141.5260467529297,136716072,141.5260467529297
136.71609400,136716094,141.5260467529297,136716094,141.5260467529297
136.71682000,136716820,141.5260467529297,136716820,141.5260467529297
136.71684200,136716842,141.5260467529297,136716842,141.5260467529297
136.71757100,136717571,141.5260467529297,136717571,141.5260467529297
136.71759300,136717593,141.5260467529297,136717593,141.5260467529297
136.71832600,136718326,141.5260467529297,136718326,141.5260467529297
136.71834800,136718348,141.5260467529297,136718348,141.5260467529297
136.71908200,136719082,141.5260467529297,136719082,141.5260467529297
136.71910600,136719106,141.5260467529297,136719106,141.5260467529297
136.71982700,136719827,141.5260467529297,136719827,141.5260467529297
136.71984900,136719849,141.5260467529297,136719849,141.5260467529297
136.72057900,136720579,141.5260467529297,136720579,141.5260467529297
136.72066400,136720664,141.5260467529297,136720664,141.5260467529297
136.72133000,136721330,141.5260467529297,136721330,141.5260467529297
136.72135300,136721353,141.5260467529297,136721353,141.5260467529297
136.72208200,136722082,141.5260467529297,136722082,141.5260467529297
136.72210600,136722106,141.5260467529297,136722106,141.5260467529297
136.72283700,136722837,141.5260467529297,136722837,141.5260467529297
136.72285900,136722859,141.5260467529297,136722859,141.5260467529297
136.72360000,136723600,141.5260467529297,136723600,141.5260467529297
136.72362200,136723622,141.5260467529297,136723622,141.5260467529297
136.72435000,136724350,141.5260467529297,136724350,141.5260467529297
136.72437200,136724372,141.5260467529297,136724372,141.5260467529297
136.72509500,136725095,141.5260467529297,136725095,141.5260467529297
136.72511700,136725117,141.5260467529297,136725117,141.5260467529297
136.72585300,136725853,141.5260467529297,136725853,141.5260467529297
136.72587800,136725878,141.5260467529297,136725878,141.5260467529297
136.72660500,136726605,141.5260467529297,136726605,141.5260467529297
136.72662900,136726629,141.5260467529297,136726629,141.5260467529297
136.72735400,136727354,141.5260467529297,136727354,141.5260467529297
136.72737600,136727376,141.5260467529297,136727376,141.5260467529297
136.72815800,136728158,141.5260467529297,136728158,141.5260467529297
136.72818600,136728186,141.5260467529297,136728186,141.5260467529297
136.72885500,136728855,141.5260467529297,136728855,141.5260467529297
136.72887700,136728877,141.5260467529297,136728877,141.5260467529297
136.72961000,136729610,141.5260467529297,136729610,141.5260467529297
136.72963200,136729632,141.5260467529297,136729632,141.5260467529297
136.73035700,136730357,141.5260467529297,136730357,141.5260467529297
136.73037900,136730379,141.5260467529297,136730379,141.5260467529297
136.73111500,136731115,141.5260467529297,136731115,141.5260467529297
136.73113800,136731138,141.5260467529297,136731138,141.5260467529297
136.73186500,136731865,141.5260467529297,136731865,141.5260467529297
136.73188700,136731887,141.5260467529297,136731887,141.5260467529297
136.73262200,136732622,141.5260467529297,136732622,141.5260467529297
136.73264400,136732644,141.5260467529297,136732644,141.5260467529297
136.73337200,136733372,141.5260467529297,136733372,141.5260467529297
136.73339700,136733397,141.5260467529297,136733397,141.5260467529297
136.73412400,136734124,141.5260467529297,136734124,141.5260467529297
136.73414800,136734148,141.5260467529297,136734148,141.5260467529297
136.73487200,136734872,141.5260467529297,136734872,141.5260467529297
136.73489500,136734895,141.5260467529297,136734895,141.5260467529297
136.73566700,136735667,141.5260467529297,136735667,141.5260467529297
136.73568900,136735689,141.5260467529297,136735689,141.5260467529297
136.73641800,136736418,141.5260467529297,136736418,141.5260467529297
136.73644100,136736441,141.5260467529297,136736441,141.5260467529297
136.73717100,136737171,141.5260467529297,136737171,141.5260467529297
136.73719300,136737193,141.5260467529297,136737193,141.5260467529297
136.73791700,136737917,141.5260467529297,136737917,141.5260467529297
136.73793900,136737939,141.5260467529297,136737939,141.5260467529297
136.73867300,136738673,141.5260467529297,136738673,141.5260467529297
136.73869500,136738695,141.5260467529297,136738695,141.5260467529297
136.73942600,136739426,141.5260467529297,136739426,141.5260467529297
136.73944800,136739448,141.5260467529297,136739448,141.5260467529297
136.74018200,136740182,141.5260467529297,136740182,141.5260467529297
136.74020400,136740204,141.5260467529297,136740204,141.5260467529297
136.74093800,136740938,141.5260467529297,136740938,141.5260467529297
136.74096100,136740961,141.5260467529297,136740961,141.5260467529297
136.74168800,136741688,141.5260467529297,136741688,141.5260467529297
136.74171100,136741711,141.5260467529297,136741711,141.5260467529297
136.74244400,136742444,141.5260467529297,136742444,141.5260467529297
136.74246700,136742467,141.5260467529297,136742467,141.5260467529297
136.74325800,136743258,141.5260467529297,136743258,141.5260467529297
136.74328100,136743281,141.5260467529297,136743281,141.5260467529297
136.74400700,136744007,141.5260467529297,136744007,141.5260467529297
136.74403000,136744030,141.5260467529297,136744030,141.5260467529297
136.74475900,136744759,141.5260467529297,136744759,141.5260467529297
136.74478100,136744781,141.5260467529297,136744781,141.5260467529297
136.74550500,136745505,141.5260467529297,136745505,141.5260467529297
136.74552700,136745527,141.5260467529297,136745527,141.5260467529297
136.74626200,136746262,141.5260467529297,136746262,141.5260467529297
136.74628600,136746286,141.5260467529297,136746286,141.5260467529297
136.74701300,136747013,141.5260467529297,136747013,141.5260467529297
136.74703600,136747036,141.5260467529297,136747036,141.5260467529297
136.74776400,136747764,141.5260467529297,136747764,141.5260467529297
136.74778700,136747787,141.5260467529297,136747787,141.5260467529297
136.74852100,136748521,141.5260467529297,136748521,141.5260467529297
136.74854500,136748545,141.5260467529297,136748545,141.5260467529297
136.74927000,136749270,141.5260467529297,136749270,141.5260467529297
136.74929400,136749294,141.5260467529297,136749294,141.5260467529297
136.75001900,136750019,141.5260467529297,136750019,141.5260467529297
136.75004100,136750041,141.5260467529297,136750041,141.5260467529297
136.75079800,136750798,141.5260467529297,136750798,141.5260467529297
136.75082100,136750821,141.5260467529297,136750821,141.5260467529297
136.75154600,136751546,141.5260467529297,136751546,141.5260467529297
136.75157100,136751571,141.5260467529297,136751571,141.5260467529297
136.75229700,136752297,141.5260467529297,136752297,141.5260467529297
136.75231900,136752319,141.5260467529297,136752319,141.5260467529297
136.75304200,136753042,141.5260467529297,136753042,141.5260467529297
136.75306500,136753065,141.5260467529297,136753065,141.5260467529297
136.75380100,136753801,141.5260467529297,136753801,141.5260467529297
136.75382300,136753823,141.5260467529297,136753823,141.5260467529297
136.75454700,136754547,141.5260467529297,136754547,141.5260467529297
136.75456900,136754569,141.5260467529297,136754569,141.5260467529297
136.75530100,136755301,141.5260467529297,136755301,141.5260467529297
136.75532300,136755323,141.5260467529297,136755323,141.5260467529297
136.75605200,136756052,141.5260467529297,136756052,141.5260467529297
136.75607400,136756074,141.5260467529297,136756074,141.5260467529297
136.75680300,136756803,141.5260467529297,136756803,141.5260467529297
136.75682600,136756826,141.5260467529297,136756826,141.5260467529297
136.75755300,136757553,141.5260467529297,136757553,141.5260467529297
136.75757500,136757575,141.5260467529297,136757575,141.5260467529297
136.75831000,136758310,141.5260467529297,136758310,141.5260467529297
136.75833400,136758334,141.5260467529297,136758334,141.5260467529297
136.75905800,136759058,141.5260467529297,136759058,141.5260467529297
136.75908100,136759081,141.5260467529297,136759081,141.5260467529297
136.75980700,136759807,141.5260467529297,136759807,141.5260467529297
136.75983100,136759831,141.5260467529297,136759831,141.5260467529297
136.76055400,136760554,141.5260467529297,136760554,141.5260467529297
136.76057600,136760576,141.5260467529297,136760576,141.5260467529297
136.76131400,136761314,141.5260467529297,136761314,141.5260467529297
136.76133600,136761336,141.5260467529297,136761336,141.5260467529297
136.76205800,136762058,141.5260467529297,136762058,141.5260467529297
136.76208000,136762080,141.5260467529297,136762080,141.5260467529297
136.76280900,136762809,141.5260467529297,136762809,141.5260467529297
136.76283200,136762832,141.5260467529297,136762832,141.5260467529297
136.76356500,136763565,141.5260467529297,136763565,141.5260467529297
136.76358700,136763587,141.5260467529297,136763587,141.5260467529297
136.76431200,136764312,141.5260467529297,136764312,141.5260467529297
136.76433600,136764336,141.5260467529297,136764336,141.5260467529297
136.76506400,136765064,141.5260467529297,136765064,141.5260467529297
136.76508600,136765086,141.5260467529297,136765086,141.5260467529297
136.76582500,136765825,141.5260467529297,136765825,141.5260467529297
136.76584700,136765847,141.5260467529297,136765847,141.5260467529297
136.76657100,136766571,141.5260467529297,136766571,141.5260467529297
136.76659300,136766593,141.5260467529297,136766593,141.5260467529297
136.76732000,136767320,141.5260467529297,136767320,141.5260467529297
136.76734300,136767343,141.5260467529297,136767343,141.5260467529297
136.76806400,136768064,141.5260467529297,136768064,141.5260467529297
136.76814800,136768148,141.5260467529297,136768148,141.5260467529297
136.76882300,136768823,141.5260467529297,136768823,141.5260467529297
136.76884500,136768845,141.5260467529297,136768845,141.5260467529297
136.76956900,136769569,141.5260467529297,136769569,141.5260467529297
136.76959000,136769590,141.5260467529297,136769590,141.5260467529297
136.77032000,136770320,141.5260467529297,136770320,141.5260467529297
136.77034100,136770341,141.5260467529297,136770341,141.5260467529297
136.77107500,136771075,141.5260467529297,136771075,141.5260467529297
136.77109800,136771098,141.5260467529297,136771098,141.5260467529297
136.77182300,136771823,141.5260467529297,136771823,141.5260467529297
136.77184400,136771844,141.5260467529297,136771844,141.5260467529297
136.77257500,136772575,141.5260467529297,136772575,141.5260467529297
136.77259900,136772599,141.5260467529297,136772599,141.5260467529297
136.77333400,136773334,141.5260467529297,136773334,141.5260467529297
136.77335600,136773356,141.5260467529297,136773356,141.5260467529297
136.77409100,136774091,141.5260467529297,136774091,141.5260467529297
136.77411400,136774114,141.5260467529297,136774114,141.5260467529297
136.77483500,136774835,141.5260467529297,136774835,141.5260467529297
136.77485800,136774858,141.5260467529297,136774858,141.5260467529297
136.77565000,136775650,141.5260467529297,136775650,141.5260467529297
136.77567400,136775674,141.5260467529297,136775674,141.5260467529297
136.77634400,136776344,141.5260467529297,136776344,141.5260467529297
136.77636600,136776366,141.5260467529297,136776366,141.5260467529297
136.77708900,136777089,141.5260467529297,136777089,141.5260467529297
136.77711500,136777115,141.5260467529297,136777115,141.5260467529297
136.77784900,136777849,141.5260467529297,136777849,141.5260467529297
136.77787100,136777871,141.5260467529297,136777871,141.5260467529297
136.77860800,136778608,141.5260467529297,136778608,141.5260467529297
136.77863000,136778630,141.5260467529297,136778630,141.5260467529297
136.77935700,136779357,141.5260467529297,136779357,141.5260467529297
136.77937900,136779379,141.5260467529297,136779379,141.5260467529297
136.78010500,136780105,141.5260467529297,136780105,141.5260467529297
136.78012700,136780127,141.5260467529297,136780127,141.5260467529297
136.78086600,136780866,141.5260467529297,136780866,141.5260467529297
136.78088800,136780888,141.5260467529297,136780888,141.5260467529297
136.78162400,136781624,141.5260467529297,136781624,141.5260467529297
136.78164800,136781648,141.5260467529297,136781648,141.5260467529297
136.78237100,136782371,141.5260467529297,136782371,141.5260467529297
136.78239500,136782395,141.5260467529297,136782395,141.5260467529297
136.78316800,136783168,141.5260467529297,136783168,141.5260467529297
136.78319200,136783192,141.5260467529297,136783192,141.5260467529297
136.78391900,136783919,141.5260467529297,136783919,141.5260467529297
136.78394400,136783944,141.5260467529297,136783944,141.5260467529297
136.78467200,136784672,141.5260467529297,136784672,141.5260467529297
136.78469400,136784694,141.5260467529297,136784694,141.5260467529297
136.78542100,136785421,141.5260467529297,136785421,141.5260467529297
136.78544300,136785443,141.5260467529297,136785443,141.5260467529297
136.78617500,136786175,141.5260467529297,136786175,141.5260467529297
136.78619700,136786197,141.5260467529297,136786197,141.5260467529297
136.78692800,136786928,141.5260467529297,136786928,141.5260467529297
136.78695000,136786950,141.5260467529297,136786950,141.5260467529297
136.78768500,136787685,141.5260467529297,136787685,141.5260467529297
136.78770700,136787707,141.5260467529297,136787707,141.5260467529297
136.78865100,136788651,141.5260467529297,136788651,141.5260467529297
136.78867600,136788676,141.5260467529297,136788676,141.5260467529297
136.78919500,136789195,141.5260467529297,136789195,141.5260467529297
136.78921700,136789217,141.5260467529297,136789217,141.5260467529297
136.78994400,136789944,141.5260467529297,136789944,141.5260467529297
136.78996600,136789966,141.5260467529297,136789966,141.5260467529297
136.79075400,136790754,141.5260467529297,136790754,141.5260467529297
136.79078300,136790783,141.5260467529297,136790783,141.5260467529297
136.79150700,136791507,141.5260467529297,136791507,141.5260467529297
136.79152900,136791529,141.5260467529297,136791529,141.5260467529297
136.79225700,136792257,141.5260467529297,136792257,141.5260467529297
136.79228000,136792280,141.5260467529297,136792280,141.5260467529297
136.79300100,136793001,141.5260467529297,136793001,141.5260467529297
136.79302200,136793022,141.5260467529297,136793022,141.5260467529297
136.79375900,136793759,141.5260467529297,136793759,141.5260467529297
136.79378200,136793782,141.5260467529297,136793782,141.5260467529297
136.79450500,136794505,141.5260467529297,136794505,141.5260467529297
136.79452700,136794527,141.5260467529297,136794527,141.5260467529297
136.79525800,136795258,141.5260467529297,136795258,141.5260467529297
136.79528000,136795280,141.5260467529297,136795280,141.5260467529297
136.79601300,136796013,141.5260467529297,136796013,141.5260467529297
136.79603500,136796035,141.5260467529297,136796035,141.5260467529297
136.79677200,136796772,141.5260467529297,136796772,141.5260467529297
136.79679800,136796798,141.5260467529297,136796798,141.5260467529297
136.79752000,136797520,141.5260467529297,136797520,141.5260467529297
136.79754500,136797545,141.5260467529297,136797545,141.5260467529297
136.79829800,136798298,141.5260467529297,136798298,141.5260467529297
136.79832000,136798320,141.5260467529297,136798320,141.5260467529297
136.79904600,136799046,141.5260467529297,136799046,141.5260467529297
136.79906800,136799068,141.5260467529297,136799068,141.5260467529297
136.79979600,136799796,141.5260467529297,136799796,141.5260467529297
136.79982300,136799823,141.5260467529297,136799823,141.5260467529297
136.80054300,136800543,141.5260467529297,136800543,141.5260467529297
136.80056700,136800567,141.5260467529297,136800567,141.5260467529297
136.80130300,136801303,141.5260467529297,136801303,141.5260467529297
136.80132500,136801325,141.5260467529297,136801325,141.5260467529297
136.80204600,136802046,141.5260467529297,136802046,141.5260467529297
136.80207000,136802070,141.5260467529297,136802070,141.5260467529297
136.80280000,136802800,141.5260467529297,136802800,141.5260467529297
136.80282700,136802827,141.5260467529297,136802827,141.5260467529297
136.80355600,136803556,141.5260467529297,136803556,141.5260467529297
136.80357800,136803578,141.5260467529297,136803578,141.5260467529297
136.80430400,136804304,141.5260467529297,136804304,141.5260467529297
136.80432700,136804327,141.5260467529297,136804327,141.5260467529297
136.80505100,136805051,141.5260467529297,136805051,141.5260467529297
136.80507400,136805074,141.5260467529297,136805074,141.5260467529297
136.80580700,136805807,141.5260467529297,136805807,141.5260467529297
136.80583500,136805835,141.5260467529297,136805835,141.5260467529297
136.80655800,136806558,141.5260467529297,136806558,141.5260467529297
136.80658000,136806580,141.5260467529297,136806580,141.5260467529297
136.80730700,136807307,141.5260467529297,136807307,141.5260467529297
136.80733000,136807330,141.5260467529297,136807330,141.5260467529297
136.80805500,136808055,141.5260467529297,136808055,141.5260467529297
136.80807700,136808077,141.5260467529297,136808077,141.5260467529297
136.80881100,136808811,141.5260467529297,136808811,141.5260467529297
136.80884000,136808840,141.5260467529297,136808840,141.5260467529297
136.80955700,136809557,141.5260467529297,136809557,141.5260467529297
136.80957900,136809579,141.5260467529297,136809579,141.5260467529297
136.81031200,136810312,141.5260467529297,136810312,141.5260467529297
136.81033400,136810334,141.5260467529297,136810334,141.5260467529297
136.81106800,136811068,141.5260467529297,136811068,141.5260467529297
136.81109000,136811090,141.5260467529297,136811090,141.5260467529297
136.81181600,136811816,141.5260467529297,136811816,141.5260467529297
136.81184300,136811843,141.5260467529297,136811843,141.5260467529297
136.81256600,136812566,141.5260467529297,136812566,141.5260467529297
136.81258800,136812588,141.5260467529297,136812588,141.5260467529297
136.81332400,136813324,141.5260467529297,136813324,141.5260467529297
136.81334900,136813349,141.5260467529297,136813349,141.5260467529297
136.81407500,136814075,141.5260467529297,136814075,141.5260467529297
136.81409700,136814097,141.5260467529297,136814097,141.5260467529297
136.81482800,136814828,141.5260467529297,136814828,141.5260467529297
136.81485400,136814854,141.5260467529297,136814854,141.5260467529297
136.81557500,136815575,141.5260467529297,136815575,141.5260467529297
136.81565700,136815657,141.5260467529297,136815657,141.5260467529297
136.81633200,136816332,141.5260467529297,136816332,141.5260467529297
136.81635400,136816354,141.5260467529297,136816354,141.5260467529297
136.81707800,136817078,141.5260467529297,136817078,141.5260467529297
136.81709900,136817099,141.5260467529297,136817099,141.5260467529297
136.81783700,136817837,141.5260467529297,136817837,141.5260467529297
136.81786300,136817863,141.5260467529297,136817863,141.5260467529297
136.81859300,136818593,141.5260467529297,136818593,141.5260467529297
136.81861600,136818616,141.5260467529297,136818616,141.5260467529297
136.81934200,136819342,141.5260467529297,136819342,141.5260467529297
136.81936400,136819364,141.5260467529297,136819364,141.5260467529297
136.82009200,136820092,141.5260467529297,136820092,141.5260467529297
136.82011600,136820116,141.5260467529297,136820116,141.5260467529297
136.82085200,136820852,141.5260467529297,136820852,141.5260467529297
136.82087800,136820878,141.5260467529297,136820878,141.5260467529297
136.82160500,136821605,141.5260467529297,136821605,141.5260467529297
136.82162800,136821628,141.5260467529297,136821628,141.5260467529297
136.82235000,136822350,141.5260467529297,136822350,141.5260467529297
136.82237200,136822372,141.5260467529297,136822372,141.5260467529297
136.82316000,136823160,141.5260467529297,136823160,141.5260467529297
136.82318400,136823184,141.5260467529297,136823184,141.5260467529297
136.82385600,136823856,141.5260467529297,136823856,141.5260467529297
136.82388200,136823882,141.5260467529297,136823882,141.5260467529297
136.82460200,136824602,141.5260467529297,136824602,141.5260467529297
136.82462600,136824626,141.5260467529297,136824626,141.5260467529297
136.82535700,136825357,141.5260467529297,136825357,141.5260467529297
136.82537900,136825379,141.5260467529297,136825379,141.5260467529297
136.82631600,136826316,141.5260467529297,136826316,141.5260467529297
136.82634000,136826340,141.5260467529297,136826340,141.5260467529297
136.82685900,136826859,141.5260467529297,136826859,141.5260467529297
136.82688500,136826885,141.5260467529297,136826885,141.5260467529297
136.82761100,136827611,141.5260467529297,136827611,141.5260467529297
136.82763300,136827633,141.5260467529297,136827633,141.5260467529297
136.82837100,136828371,141.5260467529297,136828371,141.5260467529297
136.82839300,136828393,141.5260467529297,136828393,141.5260467529297
136.82912000,136829120,141.5260467529297,136829120,141.5260467529297
136.82914500,136829145,141.5260467529297,136829145,141.5260467529297
136.82986800,136829868,141.5260467529297,136829868,141.5260467529297
136.82989400,136829894,141.5260467529297,136829894,141.5260467529297
136.83066600,136830666,141.5260467529297,136830666,141.5260467529297
136.83068800,136830688,141.5260467529297,136830688,141.5260467529297
136.83141900,136831419,141.5260467529297,136831419,141.5260467529297
136.83144200,136831442,141.5260467529297,136831442,141.5260467529297
136.83217200,136832172,141.5260467529297,136832172,141.5260467529297
136.83219400,136832194,141.5260467529297,136832194,141.5260467529297
136.83291800,136832918,141.5260467529297,136832918,141.5260467529297
136.83294200,136832942,141.5260467529297,136832942,141.5260467529297
136.83367600,136833676,141.5260467529297,136833676,141.5260467529297
136.83369800,136833698,141.5260467529297,136833698,141.5260467529297
136.83443000,136834430,141.5260467529297,136834430,141.5260467529297
136.83445300,136834453,141.5260467529297,136834453,141.5260467529297
136.83517600,136835176,141.5260467529297,136835176,141.5260467529297
136.83519900,136835199,141.5260467529297,136835199,141.5260467529297
136.83613800,136836138,141.5260467529297,136836138,141.5260467529297
136.83616400,136836164,141.5260467529297,136836164,141.5260467529297
136.83668100,136836681,141.5260467529297,136836681,141.5260467529297
136.83670300,136836703,141.5260467529297,136836703,141.5260467529297
136.83743400,136837434,141.5260467529297,136837434,141.5260467529297
136.83745600,136837456,141.5260467529297,136837456,141.5260467529297
136.83818900,136838189,141.5260467529297,136838189,141.5260467529297
136.83821100,136838211,141.5260467529297,136838211,141.5260467529297
136.83894000,136838940,141.5260467529297,136838940,141.5260467529297
136.83896100,136838961,141.5260467529297,136838961,141.5260467529297
136.83969400,136839694,141.5260467529297,136839694,141.5260467529297
136.83971700,136839717,141.5260467529297,136839717,141.5260467529297
136.84043900,136840439,141.5260467529297,136840439,141.5260467529297
136.84046100,136840461,141.5260467529297,136840461,141.5260467529297
136.84119700,136841197,141.5260467529297,136841197,141.5260467529297
136.84121900,136841219,141.5260467529297,136841219,141.5260467529297
136.84194500,136841945,141.5260467529297,136841945,141.5260467529297
136.84196700,136841967,141.5260467529297,136841967,141.5260467529297
136.84269500,136842695,141.5260467529297,136842695,141.5260467529297
136.84271700,136842717,141.5260467529297,136842717,141.5260467529297
136.84344800,136843448,141.5260467529297,136843448,141.5260467529297
136.84347000,136843470,141.5260467529297,136843470,141.5260467529297
136.84419700,136844197,141.5260467529297,136844197,141.5260467529297
136.84422000,136844220,141.5260467529297,136844220,141.5260467529297
136.84494400,136844944,141.5260467529297,136844944,141.5260467529297
136.84496700,136844967,141.5260467529297,136844967,141.5260467529297
136.84575600,136845756,141.5260467529297,136845756,141.5260467529297
136.84577900,136845779,141.5260467529297,136845779,141.5260467529297
136.84650600,136846506,141.5260467529297,136846506,141.5260467529297
136.84652900,136846529,141.5260467529297,136846529,141.5260467529297
136.84726100,136847261,141.5260467529297,136847261,141.5260467529297
136.84728400,136847284,141.5260467529297,136847284,141.5260467529297
136.84800600,136848006,141.5260467529297,136848006,141.5260467529297
136.84802900,136848029,141.5260467529297,136848029,141.5260467529297
136.84876400,136848764,141.5260467529297,136848764,141.5260467529297
136.84878600,136848786,141.5260467529297,136848786,141.5260467529297
136.84951200,136849512,141.5260467529297,136849512,141.5260467529297
136.84953400,136849534,141.5260467529297,136849534,141.5260467529297
136.85026700,136850267,141.5260467529297,136850267,141.5260467529297
136.85029000,136850290,141.5260467529297,136850290,141.5260467529297
136.85122300,136851223,141.5260467529297,136851223,141.5260467529297
136.85124700,136851247,141.5260467529297,136851247,141.5260467529297
136.85177100,136851771,141.5260467529297,136851771,141.5260467529297
136.85179300,136851793,141.5260467529297,136851793,141.5260467529297
136.85252300,136852523,141.5260467529297,136852523,141.5260467529297
136.85254700,136852547,141.5260467529297,136852547,141.5260467529297
136.85330400,136853304,141.5260467529297,136853304,141.5260467529297
136.85332700,136853327,141.5260467529297,136853327,141.5260467529297
136.85405700,136854057,141.5260467529297,136854057,141.5260467529297
136.85408100,136854081,141.5260467529297,136854081,141.5260467529297
136.85480500,136854805,141.5260467529297,136854805,141.5260467529297
136.85482700,136854827,141.5260467529297,136854827,141.5260467529297
136.85555400,136855554,141.5260467529297,136855554,141.5260467529297
136.85557700,136855577,141.5260467529297,136855577,141.5260467529297
136.85631300,136856313,141.5260467529297,136856313,141.5260467529297
136.85633500,136856335,141.5260467529297,136856335,141.5260467529297
136.85706500,136857065,141.5260467529297,136857065,141.5260467529297
136.85708700,136857087,141.5260467529297,136857087,141.5260467529297
136.85781300,136857813,141.5260467529297,136857813,141.5260467529297
136.85783700,136857837,141.5260467529297,136857837,141.5260467529297
136.85857100,136858571,141.5260467529297,136858571,141.5260467529297
136.85859300,136858593,141.5260467529297,136858593,141.5260467529297
136.85932300,136859323,141.5260467529297,136859323,141.5260467529297
136.85934500,136859345,141.5260467529297,136859345,141.5260467529297
136.86007100,136860071,141.5260467529297,136860071,141.5260467529297
136.86009300,136860093,141.5260467529297,136860093,141.5260467529297
136.86083400,136860834,141.5260467529297,136860834,141.5260467529297
136.86085900,136860859,141.5260467529297,136860859,141.5260467529297
136.86158200,136861582,141.5260467529297,136861582,141.5260467529297
136.86160300,136861603,141.5260467529297,136861603,141.5260467529297
136.86233400,136862334,141.5260467529297,136862334,141.5260467529297
136.86235800,136862358,141.5260467529297,136862358,141.5260467529297
136.86307900,136863079,141.5260467529297,136863079,141.5260467529297
136.86316600,136863166,141.5260467529297,136863166,141.5260467529297
136.86383600,136863836,141.5260467529297,136863836,141.5260467529297
136.86385900,136863859,141.5260467529297,136863859,141.5260467529297
136.86458700,136864587,141.5260467529297,136864587,141.5260467529297
136.86460900,136864609,141.5260467529297,136864609,141.5260467529297
136.86533100,136865331,141.5260467529297,136865331,141.5260467529297
136.86535300,136865353,141.5260467529297,136865353,141.5260467529297
136.86629500,136866295,141.5260467529297,136866295,141.5260467529297
136.86631900,136866319,141.5260467529297,136866319,141.5260467529297
136.86683800,136866838,141.5260467529297,136866838,141.5260467529297
136.86686000,136866860,141.5260467529297,136866860,141.5260467529297
136.86759100,136867591,141.5260467529297,136867591,141.5260467529297
136.86761400,136867614,141.5260467529297,136867614,141.5260467529297
136.86836000,136868360,141.5260467529297,136868360,141.5260467529297
136.86838200,136868382,141.5260467529297,136868382,141.5260467529297
136.86911400,136869114,141.5260467529297,136869114,141.5260467529297
136.86913700,136869137,141.5260467529297,136869137,141.5260467529297
136.86986200,136869862,141.5260467529297,136869862,141.5260467529297
136.86988400,136869884,141.5260467529297,136869884,141.5260467529297
136.87067200,136870672,141.5260467529297,136870672,141.5260467529297
136.87069400,136870694,141.5260467529297,136870694,141.5260467529297
136.87142200,136871422,141.5260467529297,136871422,141.5260467529297
136.87144500,136871445,141.5260467529297,136871445,141.5260467529297
136.87217700,136872177,141.5260467529297,136872177,141.5260467529297
136.87220000,136872200,141.5260467529297,136872200,141.5260467529297
136.87292500,136872925,141.5260467529297,136872925,141.5260467529297
136.87294700,136872947,141.5260467529297,136872947,141.5260467529297
136.87368000,136873680,141.5260467529297,136873680,141.5260467529297
136.87370200,136873702,141.5260467529297,136873702,141.5260467529297
136.87443400,136874434,141.5260467529297,136874434,141.5260467529297
136.87445600,136874456,141.5260467529297,136874456,141.5260467529297
136.87518300,136875183,141.5260467529297,136875183,141.5260467529297
136.87520600,136875206,141.5260467529297,136875206,141.5260467529297
136.87594600,136875946,141.5260467529297,136875946,141.5260467529297
136.87596800,136875968,141.5260467529297,136875968,141.5260467529297
136.87669400,136876694,141.5260467529297,136876694,141.5260467529297
136.87671600,136876716,141.5260467529297,136876716,141.5260467529297
136.87745000,136877450,141.5260467529297,136877450,141.5260467529297
136.87747200,136877472,141.5260467529297,136877472,141.5260467529297
136.87825500,136878255,141.5260467529297,136878255,141.5260467529297
136.87827700,136878277,141.5260467529297,136878277,141.5260467529297
136.87900700,136879007,141.5260467529297,136879007,141.5260467529297
136.87902900,136879029,141.5260467529297,136879029,141.5260467529297
136.87976200,136879762,141.5260467529297,136879762,141.5260467529297
136.87978500,136879785,141.5260467529297,136879785,141.5260467529297
136.88050900,136880509,141.5260467529297,136880509,141.5260467529297
136.88053100,136880531,141.5260467529297,136880531,141.5260467529297
136.88126400,136881264,141.5260467529297,136881264,141.5260467529297
136.88128600,136881286,141.5260467529297,136881286,141.5260467529297
136.88201400,136882014,141.5260467529297,136882014,141.5260467529297
136.88203600,136882036,141.5260467529297,136882036,141.5260467529297
136.88276400,136882764,141.5260467529297,136882764,141.5260467529297
136.88278800,136882788,141.5260467529297,136882788,141.5260467529297
136.88352000,136883520,141.5260467529297,136883520,141.5260467529297
136.88354200,136883542,141.5260467529297,136883542,141.5260467529297
136.88427200,136884272,141.5260467529297,136884272,141.5260467529297
136.88429600,136884296,141.5260467529297,136884296,141.5260467529297
136.88502400,136885024,141.5260467529297,136885024,141.5260467529297
136.88504600,136885046,141.5260467529297,136885046,141.5260467529297
136.88579500,136885795,141.5260467529297,136885795,141.5260467529297
136.88582000,136885820,141.5260467529297,136885820,141.5260467529297
136.88654800,136886548,141.5260467529297,136886548,141.5260467529297
136.88657000,136886570,141.5260467529297,136886570,141.5260467529297
136.88729800,136887298,141.5260467529297,136887298,141.5260467529297
136.88732000,136887320,141.5260467529297,136887320,141.5260467529297
136.88804400,136888044,141.5260467529297,136888044,141.5260467529297
136.88806500,136888065,141.5260467529297,136888065,141.5260467529297
136.88880100,136888801,141.5260467529297,136888801,141.5260467529297
136.88882300,136888823,141.5260467529297,136888823,141.5260467529297
136.88954900,136889549,141.5260467529297,136889549,141.5260467529297
136.88957100,136889571,141.5260467529297,136889571,141.5260467529297
136.89029900,136890299,141.5260467529297,136890299,141.5260467529297
136.89032200,136890322,141.5260467529297,136890322,141.5260467529297
136.89105500,136891055,141.5260467529297,136891055,141.5260467529297
136.89107700,136891077,141.5260467529297,136891077,141.5260467529297
136.89180500,136891805,141.5260467529297,136891805,141.5260467529297
136.89182700,136891827,141.5260467529297,136891827,141.5260467529297
136.89255500,136892555,141.5260467529297,136892555,141.5260467529297
136.89257900,136892579,141.5260467529297,136892579,141.5260467529297
136.89331600,136893316,141.5260467529297,136893316,141.5260467529297
136.89333800,136893338,141.5260467529297,136893338,141.5260467529297
136.89407000,136894070,141.5260467529297,136894070,141.5260467529297
136.89409200,136894092,141.5260467529297,136894092,141.5260467529297
136.89481700,136894817,141.5260467529297,136894817,141.5260467529297
136.89484000,136894840,141.5260467529297,136894840,141.5260467529297
136.89556600,136895566,141.5260467529297,136895566,141.5260467529297
136.89565200,136895652,141.5260467529297,136895652,141.5260467529297
136.89632500,136896325,141.5260467529297,136896325,141.5260467529297
136.89634700,136896347,141.5260467529297,136896347,141.5260467529297
136.89707400,136897074,141.5260467529297,136897074,141.5260467529297
136.89709800,136897098,141.5260467529297,136897098,141.5260467529297
136.89782600,136897826,141.5260467529297,136897826,141.5260467529297
136.89784800,136897848,141.5260467529297,136897848,141.5260467529297
136.89858400,136898584,141.5260467529297,136898584,141.5260467529297
136.89860600,136898606,141.5260467529297,136898606,141.5260467529297
136.89932900,136899329,141.5260467529297,136899329,141.5260467529297
136.89935100,136899351,141.5260467529297,136899351,141.5260467529297
136.90008200,136900082,141.5260467529297,136900082,141.5260467529297
136.90010500,136900105,141.5260467529297,136900105,141.5260467529297
136.90084100,136900841,141.5260467529297,136900841,141.5260467529297
136.90086300,136900863,141.5260467529297,136900863,141.5260467529297
136.90159300,136901593,141.5260467529297,136901593,141.5260467529297
136.90161500,136901615,141.5260467529297,136901615,141.5260467529297
136.90234700,136902347,141.5260467529297,136902347,141.5260467529297
136.90236900,136902369,141.5260467529297,136902369,141.5260467529297
136.90316100,136903161,141.5260467529297,136903161,141.5260467529297
136.90318500,136903185,141.5260467529297,136903185,141.5260467529297
136.90384900,136903849,141.5260467529297,136903849,141.5260467529297
136.90387300,136903873,141.5260467529297,136903873,141.5260467529297
136.90460100,136904601,141.5260467529297,136904601,141.5260467529297
136.90462300,136904623,141.5260467529297,136904623,141.5260467529297
136.90534900,136905349,141.5260467529297,136905349,141.5260467529297
136.90537100,136905371,141.5260467529297,136905371,141.5260467529297
136.90610500,136906105,141.5260467529297,136906105,141.5260467529297
136.90612700,136906127,141.5260467529297,136906127,141.5260467529297
136.90685500,136906855,141.5260467529297,136906855,141.5260467529297
136.90687700,136906877,141.5260467529297,136906877,141.5260467529297
136.90760300,136907603,141.5260467529297,136907603,141.5260467529297
136.90762500,136907625,141.5260467529297,136907625,141.5260467529297
136.90836400,136908364,141.5260467529297,136908364,141.5260467529297
136.90838900,136908389,141.5260467529297,136908389,141.5260467529297
136.90911400,136909114,141.5260467529297,136909114,141.5260467529297
136.90913700,136909137,141.5260467529297,136909137,141.5260467529297
136.90986300,136909863,141.5260467529297,136909863,141.5260467529297
136.90988500,136909885,141.5260467529297,136909885,141.5260467529297
136.91067100,136910671,141.5260467529297,136910671,141.5260467529297
136.91069700,136910697,141.5260467529297,136910697,141.5260467529297
136.91136300,136911363,141.5260467529297,136911363,141.5260467529297
136.91138600,136911386,141.5260467529297,136911386,141.5260467529297
136.91211300,136912113,141.5260467529297,136912113,141.5260467529297
136.91213500,136912135,141.5260467529297,136912135,141.5260467529297
136.91286600,136912866,141.5260467529297,136912866,141.5260467529297
136.91288800,136912888,141.5260467529297,136912888,141.5260467529297
136.91362400,136913624,141.5260467529297,136913624,141.5260467529297
136.91364600,136913646,141.5260467529297,136913646,141.5260467529297
136.91437400,136914374,141.5260467529297,136914374,141.5260467529297
136.91439600,136914396,141.5260467529297,136914396,141.5260467529297
136.91512700,136915127,141.5260467529297,136915127,141.5260467529297
136.91515100,136915151,141.5260467529297,136915151,141.5260467529297
136.91588300,136915883,141.5260467529297,136915883,141.5260467529297
136.91590600,136915906,141.5260467529297,136915906,141.5260467529297
136.91663400,136916634,141.5260467529297,136916634,141.5260467529297
136.91665800,136916658,141.5260467529297,136916658,141.5260467529297
136.91738300,136917383,141.5260467529297,136917383,141.5260467529297
136.91740600,136917406,141.5260467529297,136917406,141.5260467529297
136.91817100,136918171,141.5260467529297,136918171,141.5260467529297
136.91819500,136918195,141.5260467529297,136918195,141.5260467529297
136.91891900,136918919,141.5260467529297,136918919,141.5260467529297
136.91894200,136918942,141.5260467529297,136918942,141.5260467529297
136.91966800,136919668,141.5260467529297,136919668,141.5260467529297
136.91969000,136919690,141.5260467529297,136919690,141.5260467529297
136.92041400,136920414,141.5260467529297,136920414,141.5260467529297
136.92043600,136920436,141.5260467529297,136920436,141.5260467529297
136.92117100,136921171,141.5260467529297,136921171,141.5260467529297
136.92119400,136921194,141.5260467529297,136921194,141.5260467529297
136.92192100,136921921,141.5260467529297,136921921,141.5260467529297
136.92194400,136921944,141.5260467529297,136921944,141.5260467529297
136.92267300,136922673,141.5260467529297,136922673,141.5260467529297
136.92269500,136922695,141.5260467529297,136922695,141.5260467529297
136.92343400,136923434,141.5260467529297,136923434,141.5260467529297
136.92345600,136923456,141.5260467529297,136923456,141.5260467529297
136.92418500,136924185,141.5260467529297,136924185,141.5260467529297
136.92420700,136924207,141.5260467529297,136924207,141.5260467529297
136.92493300,136924933,141.5260467529297,136924933,141.5260467529297
136.92495600,136924956,141.5260467529297,136924956,141.5260467529297
136.92574300,136925743,141.5260467529297,136925743,141.5260467529297
136.92576900,136925769,141.5260467529297,136925769,141.5260467529297
136.92648900,136926489,141.5260467529297,136926489,141.5260467529297
136.92651300,136926513,141.5260467529297,136926513,141.5260467529297
136.92724400,136927244,141.5260467529297,136927244,141.5260467529297
136.92726600,136927266,141.5260467529297,136927266,141.5260467529297
136.92799300,136927993,141.5260467529297,136927993,141.5260467529297
136.92801500,136928015,141.5260467529297,136928015,141.5260467529297
136.92874900,136928749,141.5260467529297,136928749,141.5260467529297
136.92877200,136928772,141.5260467529297,136928772,141.5260467529297
136.92949600,136929496,141.5260467529297,136929496,141.5260467529297
136.92951800,136929518,141.5260467529297,136929518,141.5260467529297
136.93025300,136930253,141.5260467529297,136930253,141.5260467529297
136.93027500,136930275,141.5260467529297,136930275,141.5260467529297
136.93100900,136931009,141.5260467529297,136931009,141.5260467529297
136.93103100,136931031,141.5260467529297,136931031,141.5260467529297
136.93176300,136931763,141.5260467529297,136931763,141.5260467529297
136.93178700,136931787,141.5260467529297,136931787,141.5260467529297
136.93251100,136932511,141.5260467529297,136932511,141.5260467529297
136.93253300,136932533,141.5260467529297,136932533,141.5260467529297
136.93329500,136933295,141.5260467529297,136933295,141.5260467529297
136.93331800,136933318,141.5260467529297,136933318,141.5260467529297
136.93404500,136934045,141.5260467529297,136934045,141.5260467529297
136.93406700,136934067,141.5260467529297,136934067,141.5260467529297
136.93479300,136934793,141.5260467529297,136934793,141.5260467529297
136.93481700,136934817,141.5260467529297,136934817,141.5260467529297
136.93554300,136935543,141.5260467529297,136935543,141.5260467529297
136.93556400,136935564,141.5260467529297,136935564,141.5260467529297
136.93630600,136936306,141.5260467529297,136936306,141.5260467529297
136.93632900,136936329,141.5260467529297,136936329,141.5260467529297
136.93704800,136937048,141.5260467529297,136937048,141.5260467529297
136.93707000,136937070,141.5260467529297,136937070,141.5260467529297
136.93780300,136937803,141.5260467529297,136937803,141.5260467529297
136.93782500,136937825,141.5260467529297,136937825,141.5260467529297
136.93856200,136938562,141.5260467529297,136938562,141.5260467529297
136.93858400,136938584,141.5260467529297,136938584,141.5260467529297
136.93931500,136939315,141.5260467529297,136939315,141.5260467529297
136.93933700,136939337,141.5260467529297,136939337,141.5260467529297
136.94006200,136940062,141.5260467529297,136940062,141.5260467529297
136.94008400,136940084,141.5260467529297,136940084,141.5260467529297
136.94081900,136940819,141.5260467529297,136940819,141.5260467529297
136.94084100,136940841,141.5260467529297,136940841,141.5260467529297
136.94156700,136941567,141.5260467529297,136941567,141.5260467529297
136.94159100,136941591,141.5260467529297,136941591,141.5260467529297
136.94231900,136942319,141.5260467529297,136942319,141.5260467529297
136.94234100,136942341,141.5260467529297,136942341,141.5260467529297
136.94306700,136943067,141.5260467529297,136943067,141.5260467529297
136.94315300,136943153,141.5260467529297,136943153,141.5260467529297
136.94382500,136943825,141.5260467529297,136943825,141.5260467529297
136.94384800,136943848,141.5260467529297,136943848,141.5260467529297
136.94457300,136944573,141.5260467529297,136944573,141.5260467529297
136.94459500,136944595,141.5260467529297,136944595,141.5260467529297
136.94532700,136945327,141.5260467529297,136945327,141.5260467529297
136.94535000,136945350,141.5260467529297,136945350,141.5260467529297
136.94608300,136946083,141.5260467529297,136946083,141.5260467529297
136.94610700,136946107,141.5260467529297,136946107,141.5260467529297
136.94683200,136946832,141.5260467529297,136946832,141.5260467529297
136.94685400,136946854,141.5260467529297,136946854,141.5260467529297
136.94758300,136947583,141.5260467529297,136947583,141.5260467529297
136.94760500,136947605,141.5260467529297,136947605,141.5260467529297
136.94834200,136948342,141.5260467529297,136948342,141.5260467529297
136.94836500,136948365,141.5260467529297,136948365,141.5260467529297
136.94910100,136949101,141.5260467529297,136949101,141.5260467529297
136.94912300,136949123,141.5260467529297,136949123,141.5260467529297
136.94984600,136949846,141.5260467529297,136949846,141.5260467529297
136.94986800,136949868,141.5260467529297,136949868,141.5260467529297
136.95064900,136950649,141.5260467529297,136950649,141.5260467529297
136.95067200,136950672,141.5260467529297,136950672,141.5260467529297
136.95135000,136951350,141.5260467529297,136951350,141.5260467529297
136.95137200,136951372,141.5260467529297,136951372,141.5260467529297
136.95209800,136952098,141.5260467529297,136952098,141.5260467529297
136.95212300,136952123,141.5260467529297,136952123,141.5260467529297
136.95284700,136952847,141.5260467529297,136952847,141.5260467529297
136.95287000,136952870,141.5260467529297,136952870,141.5260467529297
136.95360500,136953605,141.5260467529297,136953605,141.5260467529297
136.95362700,136953627,141.5260467529297,136953627,141.5260467529297
136.95435700,136954357,141.5260467529297,136954357,141.5260467529297
136.95437900,136954379,141.5260467529297,136954379,141.5260467529297
136.95510600,136955106,141.5260467529297,136955106,141.5260467529297
136.95512800,136955128,141.5260467529297,136955128,141.5260467529297
136.95586400,136955864,141.5260467529297,136955864,141.5260467529297
136.95588700,136955887,141.5260467529297,136955887,141.5260467529297
136.95661600,136956616,141.5260467529297,136956616,141.5260467529297
136.95664000,136956640,141.5260467529297,136956640,141.5260467529297
136.95736300,136957363,141.5260467529297,136957363,141.5260467529297
136.95738700,136957387,141.5260467529297,136957387,141.5260467529297
136.95816700,136958167,141.5260467529297,136958167,141.5260467529297
136.95818900,136958189,141.5260467529297,136958189,141.5260467529297
136.95891900,136958919,141.5260467529297,136958919,141.5260467529297
136.95894200,136958942,141.5260467529297,136958942,141.5260467529297
136.95967000,136959670,141.5260467529297,136959670,141.5260467529297
136.95969300,136959693,141.5260467529297,136959693,141.5260467529297
136.96041800,136960418,141.5260467529297,136960418,141.5260467529297
136.96044000,136960440,141.5260467529297,136960440,141.5260467529297
136.96117500,136961175,141.5260467529297,136961175,141.5260467529297
136.96119900,136961199,141.5260467529297,136961199,141.5260467529297
136.96192500,136961925,141.5260467529297,136961925,141.5260467529297
136.96194700,136961947,141.5260467529297,136961947,141.5260467529297
136.96267700,136962677,141.5260467529297,136962677,141.5260467529297
136.96269900,136962699,141.5260467529297,136962699,141.5260467529297
136.96343800,136963438,141.5260467529297,136963438,141.5260467529297
136.96346000,136963460,141.5260467529297,136963460,141.5260467529297
136.96419000,136964190,141.5260467529297,136964190,141.5260467529297
136.96421400,136964214,141.5260467529297,136964214,141.5260467529297
136.96493700,136964937,141.5260467529297,136964937,141.5260467529297
136.96495900,136964959,141.5260467529297,136964959,141.5260467529297
136.96575200,136965752,141.5260467529297,136965752,141.5260467529297
136.96577300,136965773,141.5260467529297,136965773,141.5260467529297
136.96650200,136966502,141.5260467529297,136966502,141.5260467529297
136.96652400,136966524,141.5260467529297,136966524,141.5260467529297
136.96726400,136967264,141.5260467529297,136967264,141.5260467529297
136.96728600,136967286,141.5260467529297,136967286,141.5260467529297
136.96800700,136968007,141.5260467529297,136968007,141.5260467529297
136.96803000,136968030,141.5260467529297,136968030,141.5260467529297
136.96876300,136968763,141.5260467529297,136968763,141.5260467529297
136.96878500,136968785,141.5260467529297,136968785,141.5260467529297
136.96951200,136969512,141.5260467529297,136969512,141.5260467529297
136.96953400,136969534,141.5260467529297,136969534,141.5260467529297
136.97026100,136970261,141.5260467529297,136970261,141.5260467529297
136.97028700,136970287,141.5260467529297,136970287,141.5260467529297
136.97101500,136971015,141.5260467529297,136971015,141.5260467529297
136.97103700,136971037,141.5260467529297,136971037,141.5260467529297
136.97176800,136971768,141.5260467529297,136971768,141.5260467529297
136.97179000,136971790,141.5260467529297,136971790,141.5260467529297
136.97251600,136972516,141.5260467529297,136972516,141.5260467529297
136.97254100,136972541,141.5260467529297,136972541,141.5260467529297
136.97330400,136973304,141.5260467529297,136973304,141.5260467529297
136.97332700,136973327,141.5260467529297,136973327,141.5260467529297
136.97405100,136974051,141.5260467529297,136974051,141.5260467529297
136.97407300,136974073,141.5260467529297,136974073,141.5260467529297
136.97480000,136974800,141.5260467529297,136974800,141.5260467529297
136.97482300,136974823,141.5260467529297,136974823,141.5260467529297
136.97554700,136975547,141.5260467529297,136975547,141.5260467529297
136.97556900,136975569,141.5260467529297,136975569,141.5260467529297
136.97630600,136976306,141.5260467529297,136976306,141.5260467529297
136.97632800,136976328,141.5260467529297,136976328,141.5260467529297
136.97704700,136977047,141.5260467529297,136977047,141.5260467529297
136.97706900,136977069,141.5260467529297,136977069,141.5260467529297
136.97780100,136977801,141.5260467529297,136977801,141.5260467529297
136.97782500,136977825,141.5260467529297,136977825,141.5260467529297
136.97876000,136978760,141.5260467529297,136978760,141.5260467529297
136.97878500,136978785,141.5260467529297,136978785,141.5260467529297
136.97931200,136979312,141.5260467529297,136979312,141.5260467529297
136.97933300,136979333,141.5260467529297,136979333,141.5260467529297
136.98005600,136980056,141.5260467529297,136980056,141.5260467529297
136.98007700,136980077,141.5260467529297,136980077,141.5260467529297
136.98081400,136980814,141.5260467529297,136980814,141.5260467529297
136.98083600,136980836,141.5260467529297,136980836,141.5260467529297
136.98156500,136981565,141.5260467529297,136981565,141.5260467529297
136.98158700,136981587,141.5260467529297,136981587,141.5260467529297
136.98231600,136982316,141.5260467529297,136982316,141.5260467529297
136.98234000,136982340,141.5260467529297,136982340,141.5260467529297
136.98306200,136983062,141.5260467529297,136983062,141.5260467529297
136.98314500,136983145,141.5260467529297,136983145,141.5260467529297
136.98382000,136983820,141.5260467529297,136983820,141.5260467529297
136.98384200,136983842,141.5260467529297,136983842,141.5260467529297
136.98456300,136984563,141.5260467529297,136984563,141.5260467529297
136.98458500,136984585,141.5260467529297,136984585,141.5260467529297
136.98532500,136985325,141.5260467529297,136985325,141.5260467529297
136.98534700,136985347,141.5260467529297,136985347,141.5260467529297
136.98607800,136986078,141.5260467529297,136986078,141.5260467529297
136.98610100,136986101,141.5260467529297,136986101,141.5260467529297
136.98682700,136986827,141.5260467529297,136986827,141.5260467529297
136.98684800,136986848,141.5260467529297,136986848,141.5260467529297
136.98757500,136987575,141.5260467529297,136987575,141.5260467529297
136.98759700,136987597,141.5260467529297,136987597,141.5260467529297
136.98834000,136988340,141.5260467529297,136988340,141.5260467529297
136.98836200,136988362,141.5260467529297,136988362,141.5260467529297
136.98909300,136989093,141.5260467529297,136989093,141.5260467529297
136.98911700,136989117,141.5260467529297,136989117,141.5260467529297
136.98983800,136989838,141.5260467529297,136989838,141.5260467529297
136.98986000,136989860,141.5260467529297,136989860,141.5260467529297
136.99064300,136990643,141.5260467529297,136990643,141.5260467529297
136.99067000,136990670,141.5260467529297,136990670,141.5260467529297
136.99135000,136991350,141.5260467529297,136991350,141.5260467529297
136.99137200,136991372,141.5260467529297,136991372,141.5260467529297
136.99209100,136992091,141.5260467529297,136992091,141.5260467529297
136.99211500,136992115,141.5260467529297,136992115,141.5260467529297
136.99284300,136992843,141.5260467529297,136992843,141.5260467529297
136.99286500,136992865,141.5260467529297,136992865,141.5260467529297
136.99359900,136993599,141.5260467529297,136993599,141.5260467529297
136.99362300,136993623,141.5260467529297,136993623,141.5260467529297
136.99435600,136994356,141.5260467529297,136994356,141.5260467529297
136.99437800,136994378,141.5260467529297,136994378,141.5260467529297
136.99509800,136995098,141.5260467529297,136995098,141.5260467529297
136.99512200,136995122,141.5260467529297,136995122,141.5260467529297
136.99585400,136995854,141.5260467529297,136995854,141.5260467529297
136.99587600,136995876,141.5260467529297,136995876,141.5260467529297
136.99660300,136996603,141.5260467529297,136996603,141.5260467529297
136.99662600,136996626,141.5260467529297,136996626,141.5260467529297
136.99734800,136997348,141.5260467529297,136997348,141.5260467529297
136.99737400,136997374,141.5260467529297,136997374,141.5260467529297
136.99816000,136998160,141.5260467529297,136998160,141.5260467529297
136.99818200,136998182,141.5260467529297,136998182,141.5260467529297
136.99885000,136998850,141.5260467529297,136998850,141.5260467529297
136.99887200,136998872,141.5260467529297,136998872,141.5260467529297
