timestamp,TimeUS,I,GyrX,GyrY,GyrZ,AccX,AccY,AccZ,EG,EA,T,GH,AH,GHz,AHz
136.20114500,136201145,0,0.00020091627084184438,-0.0011221771128475666,0.001197747653350234,-0.19127056002616882,0.7117776274681091,-9.838125228881836,0,0,46.67399978637695,1,1,1840,1843
136.20354600,136203546,0,0.00026962501578964293,-0.0011511112097650766,0.0008705032523721457,-0.19155487418174744,0.7144748568534851,-9.837772369384766,0,0,46.67399978637695,1,1,1840,1843
136.20595200,136205952,0,0.00013848683738615364,-0.0010024496586993337,0.0007472300785593688,-0.19287893176078796,0.7149076461791992,-9.839212417602539,0,0,46.67399978637695,1,1,1840,1843
136.20854300,136208543,0,0.00010678399848984554,-0.0008421572274528444,0.0006910429219715297,-0.1941135823726654,0.7147907018661499,-9.841897010803223,0,0,46.67399978637695,1,1,1840,1843
136.21099200,136210992,0,-8.150010216922965e-06,-0.0007544871186837554,0.0006869598291814327,-0.19426541030406952,0.7135825157165527,-9.842463493347168,0,0,46.67399978637695,1,1,1840,1843
136.21370700,136213707,0,-0.00024044199381023645,-0.0008485681610181928,0.000885818968527019,-0.19183343648910522,0.7096432447433472,-9.841825485229492,0,0,46.67399978637695,1,1,1840,1843
136.21605000,136216050,0,-0.0004903129301965237,-0.0008169831125997007,0.001024136203341186,-0.19018347561359406,0.7078639268875122,-9.841836929321289,0,0,46.67399978637695,1,1,1840,1843
136.21850100,136218501,0,-0.0007048216066323221,-0.0007214963552542031,0.0012390759075060487,-0.18917027115821838,0.7084269523620605,-9.841833114624023,0,0,46.67399978637695,1,1,1840,1843
136.22104700,136221047,0,-0.0007839668542146683,-0.0006250406731851399,0.0013606768334284425,-0.18973886966705322,0.709813117980957,-9.841959953308105,0,0,46.67399978637695,1,1,1840,1843
136.22359300,136223593,0,-0.0008807126432657242,-0.0002196259010815993,0.0016412419499829412,-0.1892079859972,0.7114119529724121,-9.843350410461426,0,0,46.67399978637695,1,1,1840,1843
136.22605200,136226052,0,-0.0009008931228891015,0.0001444485824322328,0.0017294941935688257,-0.18626224994659424,0.7115775942802429,-9.843788146972656,0,0,46.67399978637695,1,1,1840,1843
136.22862700,136228627,0,-0.0007399162859655917,0.0004353090771473944,0.0016405738424509764,-0.18121877312660217,0.7120959162712097,-9.842635154724121,0,0,46.67399978637695,1,1,1840,1843
136.23105000,136231050,0,-0.0007339227013289928,0.0005847112042829394,0.0015243891393765807,-0.1803826093673706,0.7130221128463745,-9.84283447265625,0,0,46.67399978637695,1,1,1840,1843
136.23351200,136233512,0,-0.0008144949097186327,0.0008449321612715721,0.0015182852512225509,-0.1796528846025467,0.7132242918014526,-9.843366622924805,0,0,46.67399978637695,1,1,1840,1843
136.23598300,136235983,0,-0.0010454549919813871,0.0011214647674933076,0.0015192317077890038,-0.17786704003810883,0.7115177512168884,-9.84339714050293,0,0,46.67399978637695,1,1,1840,1843
136.23863800,136238638,0,-0.0012447242625057697,0.0012575039872899652,0.001431868295185268,-0.17773659527301788,0.7097401022911072,-9.842286109924316,0,0,46.67399978637695,1,1,1840,1843
136.24118700,136241187,0,-0.001211601309478283,0.0013930470449849963,0.0011699465103447437,-0.17832957208156586,0.7071020007133484,-9.84049129486084,0,0,46.67399978637695,1,1,1840,1843
136.24355000,136243550,0,-0.0010170047171413898,0.001518238801509142,0.0012062725145369768,-0.17912279069423676,0.7059226632118225,-9.84082317352295,0,0,46.67399978637695,1,1,1840,1843
136.24594200,136245942,0,-0.0005983466980978847,0.0016213130438700318,0.0011649028165265918,-0.18270182609558105,0.7046655416488647,-9.842069625854492,0,0,46.67399978637695,1,1,1840,1843
136.24853500,136248535,0,-0.0004474242450669408,0.0016062152571976185,0.0011424089316278696,-0.18602889776229858,0.7050766348838806,-9.842721939086914,0,0,46.67399978637695,1,1,1840,1843
136.25098600,136250986,0,-0.00048744314699433744,0.0017034077318385243,0.0012390069896355271,-0.19026878476142883,0.7056565880775452,-9.842228889465332,0,0,46.652000427246094,1,1,1840,1843
136.25353900,136253539,0,-0.0005759567720815539,0.0016153247561305761,0.001160828280262649,-0.19284960627555847,0.7072316408157349,-9.839713096618652,0,0,46.652000427246094,1,1,1840,1843
136.25618600,136256186,0,-0.0006001990404911339,0.0014845398254692554,0.0011126126628369093,-0.19315756857395172,0.7101712822914124,-9.838957786560059,0,0,46.652000427246094,1,1,1840,1843
136.25856100,136258561,0,-0.0005872637266293168,0.0011327124666422606,0.0010698088444769382,-0.19341042637825012,0.7138824462890625,-9.840349197387695,0,0,46.652000427246094,1,1,1840,1843
136.26104500,136261045,0,-0.000497710716444999,0.000922220351640135,0.0011384703684598207,-0.1950247883796692,0.7156137824058533,-9.841646194458008,0,0,46.652000427246094,1,1,1840,1843
136.26345600,136263456,0,-0.00027673685690388083,0.0006163502694107592,0.0011804451933130622,-0.19812360405921936,0.7207664847373962,-9.843581199645996,0,0,46.652000427246094,1,1,1840,1843
136.26603700,136266037,0,-6.41201268081204e-06,0.0003343572898302227,0.0010485058883205056,-0.1992785632610321,0.7242841124534607,-9.843263626098633,0,0,46.652000427246094,1,1,1840,1843
136.26865200,136268652,0,0.0002388662687735632,6.124969513621181e-05,0.000727054663002491,-0.19918183982372284,0.7271602749824524,-9.83961009979248,0,0,46.652000427246094,1,1,1840,1843
136.27103500,136271035,0,0.0003795758238993585,-0.0002368100977037102,0.00038541961112059653,-0.20030085742473602,0.7297430038452148,-9.835836410522461,0,0,46.652000427246094,1,1,1840,1843
136.27345400,136273454,0,0.00039903310243971646,-0.00040173993329517543,0.00015866561443544924,-0.20254656672477722,0.7301631569862366,-9.834819793701172,0,0,46.652000427246094,1,1,1840,1843
136.27610900,136276109,0,0.00044043283560313284,-0.0005352218868210912,5.708202297682874e-05,-0.20485909283161163,0.7303740382194519,-9.839142799377441,0,0,46.652000427246094,1,1,1840,1843
136.27853100,136278531,0,0.00035830066190101206,-0.0006056715501472354,3.6166202335152775e-05,-0.2060169130563736,0.7287836670875549,-9.845579147338867,0,0,46.652000427246094,1,1,1840,1843
136.28128500,136281285,0,0.0002161978918593377,-0.0008395119220949709,-6.05117529630661e-05,-0.20594444870948792,0.7241688966751099,-9.853874206542969,0,0,46.652000427246094,1,1,1840,1843
136.28353800,136283538,0,0.00011828636343125254,-0.0008751135901547968,-0.0001552802132209763,-0.20501159131526947,0.7219286561012268,-9.85629940032959,0,0,46.652000427246094,1,1,1840,1843
136.28594900,136285949,0,-0.0001189151153084822,-0.0006744320853613317,-0.00016844100900925696,-0.20155657827854156,0.7164870500564575,-9.86018180847168,0,0,46.652000427246094,1,1,1840,1843
136.28854300,136288543,0,-0.00025153710157610476,-0.0004868670366704464,-0.0002187673089792952,-0.1975710690021515,0.710899293422699,-9.862117767333984,0,0,46.652000427246094,1,1,1840,1843
136.29094400,136290944,0,-0.0005087021272629499,-0.00010568442667135969,-0.00034983159275725484,-0.1915464699268341,0.7031442523002625,-9.864123344421387,0,0,46.652000427246094,1,1,1840,1843
136.29353400,136293534,0,-0.0006771672051399946,5.599635187536478e-05,-0.00032970821484923363,-0.1887146532535553,0.7003427743911743,-9.863532066345215,0,0,46.652000427246094,1,1,1840,1843
136.29610200,136296102,0,-0.0009745334391482174,0.00015494557737838477,-0.00017191538063343614,-0.18321429193019867,0.6977976560592651,-9.859901428222656,0,0,46.652000427246094,1,1,1840,1843
136.29856900,136298569,0,-0.0010535643668845296,0.00016377693100366741,9.80017921392573e-06,-0.18073473870754242,0.6958720088005066,-9.858199119567871,0,0,46.652000427246094,1,1,1840,1843
136.30099500,136300995,0,-0.0010881280759349465,0.0001048188642016612,0.00011149500642204657,-0.18028272688388824,0.6934779286384583,-9.856257438659668,0,0,46.652000427246094,1,1,1840,1843
136.30349700,136303497,0,-0.0010804877383634448,0.00033457251265645027,0.00029668858041986823,-0.18081670999526978,0.6927840709686279,-9.853885650634766,0,0,46.652000427246094,1,1,1840,1843
136.30601900,136306019,0,-0.0011084947036579251,0.0003434095124248415,0.0005437178770080209,-0.18118886649608612,0.6946221590042114,-9.851885795593262,0,0,46.652000427246094,1,1,1840,1843
136.30846300,136308463,0,-0.001186685054562986,0.0003357416426297277,0.0008547283359803259,-0.18003518879413605,0.6997587084770203,-9.85085391998291,0,0,46.652000427246094,1,1,1840,1843
136.31132100,136311321,0,-0.0010749474167823792,0.00035228070919401944,0.0010971355950459838,-0.17817845940589905,0.7054161429405212,-9.84997272491455,0,0,46.652000427246094,1,1,1840,1843
136.31345100,136313451,0,-0.000831842829938978,0.00028769581695087254,0.0013055872404947877,-0.17664210498332977,0.7094587683677673,-9.849678993225098,0,0,46.652000427246094,1,1,1840,1843
136.31602300,136316023,0,-0.0005813686293549836,0.0002839138905983418,0.001318141701631248,-0.17561715841293335,0.7160342335700989,-9.850131034851074,0,0,46.652000427246094,1,1,1840,1843
136.31848200,136318482,0,-0.0004350353847257793,0.00046740693505853415,0.0013658555690199137,-0.17390578985214233,0.722044050693512,-9.851677894592285,0,0,46.652000427246094,1,1,1840,1843
136.32102700,136321027,0,-0.000430430838605389,0.0005493747303262353,0.0012788585154339671,-0.17301134765148163,0.7243927717208862,-9.853111267089844,0,0,46.652000427246094,1,1,1840,1843
136.32363200,136323632,0,-0.0005440872046165168,0.000601783103775233,0.0012363092973828316,-0.1732122153043747,0.7245036959648132,-9.854658126831055,0,0,46.65800094604492,1,1,1840,1843
136.32618700,136326187,0,-0.0005897078081034124,0.0005743910442106426,0.0012719436781480908,-0.1723669022321701,0.7248117327690125,-9.858268737792969,0,0,46.65800094604492,1,1,1840,1843
136.32852400,136328524,0,-0.0005612785462290049,0.00045452709309756756,0.001187958987429738,-0.17248107492923737,0.7249987721443176,-9.859814643859863,0,0,46.65800094604492,1,1,1840,1843
136.33094400,136330944,0,-0.00043075811117887497,0.0002879468956962228,0.001080970629118383,-0.17563468217849731,0.7251816391944885,-9.858158111572266,0,0,46.65800094604492,1,1,1840,1843
136.33353500,136333535,0,-0.00040709905442781746,0.00018407120660413057,0.0009171449928544462,-0.17847314476966858,0.7265549302101135,-9.856797218322754,0,0,46.65800094604492,1,1,1840,1843
136.33598300,136335983,0,-0.0004917019978165627,-7.758917490718886e-05,0.0006044447654858232,-0.18459272384643555,0.7286646366119385,-9.855679512023926,0,0,46.65800094604492,1,1,1840,1843
136.33882600,136338826,0,0.751235842704773,0.7516010403633118,0.7522934079170227,4.558077812194824,5.44647216796875,-4.785116672515869,0,0,46.65800094604492,1,1,1840,1843
136.34099500,136340995,0,5.327895641326904,5.328774452209473,5.329550266265869,31.94511604309082,32.661415100097656,24.474210739135742,0,0,46.65800094604492,1,1,1840,1843
136.34347900,136343479,0,11.702919960021973,11.704666137695312,11.705580711364746,67.00792694091797,67.49820709228516,61.92988967895508,0,0,46.65800094604492,1,1,1840,1843
136.34621200,136346212,0,17.186447143554688,17.188989639282227,17.19003677368164,94.36984252929688,94.68207550048828,91.15787506103516,0,0,46.65800094604492,1,1,1840,1843
136.34850200,136348502,0,22.72121238708496,22.724586486816406,22.725772857666016,115.93321228027344,116.10417175292969,114.19120025634766,0,0,46.65800094604492,1,1,1840,1843
136.35096400,136350964,0,26.948257446289062,26.952274322509766,26.95356559753418,134.80885314941406,134.8551483154297,134.3529052734375,0,0,46.65800094604492,1,1,1840,1843
136.35370900,136353709,0,29.509199142456055,29.51360321044922,29.514965057373047,142.6210479736328,142.61537170410156,142.69711303710938,0,0,46.65800094604492,1,1,1840,1843
136.35640600,136356406,0,31.20897674560547,31.213645935058594,31.21508026123047,146.45826721191406,146.4267120361328,146.79550170898438,0,0,46.65800094604492,1,1,1840,1843
136.35846500,136358465,0,32.4283447265625,32.43321228027344,32.4347038269043,147.64686584472656,147.60704040527344,148.0647430419922,0,0,46.65800094604492,1,1,1840,1843
136.36121200,136361212,0,32.785255432128906,32.79021453857422,32.79172134399414,146.95867919921875,146.92323303222656,147.32937622070312,0,0,46.65800094604492,1,1,1840,1843
136.36351000,136363510,0,32.837318420410156,32.84230041503906,32.843814849853516,145.7397003173828,145.71202087402344,146.02706909179688,0,0,46.65800094604492,1,1,1840,1843
136.36595400,136365954,0,32.642147064208984,32.6471061706543,32.648597717285156,144.03933715820312,144.02281188964844,144.21084594726562,0,0,46.65800094604492,1,1,1840,1843
136.36882600,136368826,0,32.41047668457031,32.41543960571289,32.4168815612793,142.99130249023438,142.98159790039062,143.09133911132812,0,0,46.65800094604492,1,1,1840,1843
136.37101000,136371010,0,32.16892623901367,32.173912048339844,32.1753044128418,142.21954345703125,142.21469116210938,142.26683044433594,0,0,46.65800094604492,1,1,1840,1843
136.37345100,136373451,0,31.885251998901367,31.890230178833008,31.891576766967773,141.59466552734375,141.59373474121094,141.5992431640625,0,0,46.65800094604492,1,1,1840,1843
136.37620400,136376204,0,31.7193603515625,31.724306106567383,31.72564697265625,141.36351013183594,141.36424255371094,141.35250854492188,0,0,46.65800094604492,1,1,1840,1843
136.37855300,136378553,0,31.5965518951416,31.601469039916992,31.602807998657227,141.2705535888672,141.2719268798828,141.2532501220703,0,0,46.65800094604492,1,1,1840,1843
136.38094300,136380943,0,31.492435455322266,31.49734115600586,31.49869155883789,141.27261352539062,141.27392578125,141.25552368164062,0,0,46.65800094604492,1,1,1840,1843
136.38370900,136383709,0,31.449932098388672,31.454845428466797,31.456207275390625,141.3186798095703,141.31993103027344,141.30484008789062,0,0,46.65800094604492,1,1,1840,1843
136.38603800,136386038,0,31.429443359375,31.434362411499023,31.43571662902832,141.3751983642578,141.37612915039062,141.36529541015625,0,0,46.65800094604492,1,1,1840,1843
136.38845900,136388459,0,31.424482345581055,31.429363250732422,31.430702209472656,141.44361877441406,141.4440460205078,141.43836975097656,0,0,46.65800094604492,1,1,1840,1843
136.39121500,136391215,0,31.430343627929688,31.43516731262207,31.436546325683594,141.4822235107422,141.48251342773438,141.4796142578125,0,0,46.65800094604492,1,1,1840,1843
136.39355500,136393555,0,31.43990135192871,31.44468116760254,31.446086883544922,141.5088653564453,141.5089874267578,141.50808715820312,0,0,46.65800094604492,1,1,1840,1843
136.39594100,136395941,0,31.45387077331543,31.458627700805664,31.460033416748047,141.52859497070312,141.52865600585938,141.529052734375,0,0,46.65800094604492,1,1,1840,1843
136.39868300,136398683,0,31.463294982910156,31.468080520629883,31.469446182250977,141.5348358154297,141.53477478027344,141.53565979003906,0,0,46.65800094604492,1,1,1840,1843
136.40104700,136401047,0,31.471012115478516,31.4758243560791,31.47718048095703,141.53643798828125,141.53627014160156,141.5373992919922,0,0,46.68000030517578,1,1,1840,1843
136.40352900,136403529,0,31.476835250854492,31.481687545776367,31.4830265045166,141.5353240966797,141.5352783203125,141.5363006591797,0,0,46.68000030517578,1,1,1840,1843
136.40613700,136406137,0,31.481891632080078,31.486778259277344,31.488126754760742,141.53213500976562,141.5323028564453,141.53294372558594,0,0,46.68000030517578,1,1,1840,1843
136.40850900,136408509,0,31.484050750732422,31.488941192626953,31.490299224853516,141.52980041503906,141.5299072265625,141.5303497314453,0,0,46.68000030517578,1,1,1840,1843
136.41101300,136411013,0,31.48517608642578,31.49006462097168,31.491416931152344,141.52784729003906,141.52792358398438,141.52821350097656,0,0,46.68000030517578,1,1,1840,1843
136.41365000,136413650,0,31.485595703125,31.49048614501953,31.491838455200195,141.52603149414062,141.52603149414062,141.52622985839844,0,0,46.68000030517578,1,1,1840,1843
136.41604500,136416045,0,31.48543357849121,31.490324020385742,31.491682052612305,141.52516174316406,141.52505493164062,141.52517700195312,0,0,46.68000030517578,1,1,1840,1843
136.41858300,136418583,0,31.485055923461914,31.489946365356445,31.491304397583008,141.52467346191406,141.52450561523438,141.52456665039062,0,0,46.68000030517578,1,1,1840,1843
136.42111100,136421111,0,31.48444366455078,31.48933219909668,31.490692138671875,141.5244140625,141.5243682861328,141.52435302734375,0,0,46.68000030517578,1,1,1840,1843
136.42368700,136423687,0,31.48400115966797,31.488889694213867,31.490249633789062,141.52439880371094,141.52447509765625,141.5244598388672,0,0,46.68000030517578,1,1,1840,1843
136.42604200,136426042,0,31.48361587524414,31.488506317138672,31.489864349365234,141.5243682861328,141.52455139160156,141.5245361328125,0,0,46.68000030517578,1,1,1840,1843
136.42876400,136428764,0,31.483266830444336,31.488157272338867,31.489469528198242,141.5243682861328,141.5245361328125,141.52455139160156,0,0,46.68000030517578,1,1,1840,1843
136.43097000,136430970,0,31.48308753967285,31.48797607421875,31.489261627197266,141.5243682861328,141.5246124267578,141.5245819091797,0,0,46.68000030517578,1,1,1840,1843
136.43356500,136433565,0,31.48296356201172,31.48785400390625,31.489120483398438,141.52439880371094,141.5245361328125,141.52455139160156,0,0,46.68000030517578,1,1,1840,1843
136.43597900,136435979,0,31.482892990112305,31.487781524658203,31.489042282104492,141.52439880371094,141.52462768554688,141.5246124267578,0,0,46.68000030517578,1,1,1840,1843
136.43877000,136438770,0,31.482864379882812,31.48775291442871,31.489028930664062,141.52439880371094,141.52452087402344,141.52452087402344,0,0,46.68000030517578,1,1,1840,1843
136.44104500,136441045,0,31.48287010192871,31.487760543823242,31.48902702331543,141.5243682861328,141.5246124267578,141.52462768554688,0,0,46.68000030517578,1,1,1840,1843
136.44350300,136443503,0,31.482868194580078,31.48775863647461,31.489028930664062,141.5243682861328,141.52452087402344,141.52452087402344,0,0,46.68000030517578,1,1,1840,1843
136.44632600,136446326,0,31.482868194580078,31.48775863647461,31.489028930664062,141.5243682861328,141.5245819091797,141.5246124267578,0,0,46.68000030517578,1,1,1840,1843
136.44854300,136448543,0,31.48286247253418,31.48775291442871,31.48902702331543,141.52439880371094,141.52455139160156,141.5245361328125,0,0,46.68000030517578,1,1,1840,1843
136.45101500,136451015,0,31.482864379882812,31.48775291442871,31.489028930664062,141.52439880371094,141.5245819091797,141.5246124267578,0,0,46.68000030517578,1,1,1840,1843
136.45363200,136453632,0,31.482864379882812,31.48775291442871,31.489028930664062,141.52439880371094,141.5246124267578,141.5245819091797,0,0,46.68000030517578,1,1,1840,1843
136.45605400,136456054,0,31.48287010192871,31.487760543823242,31.48902702331543,141.5243682861328,141.5245361328125,141.52455139160156,0,0,46.68000030517578,1,1,1840,1843
136.45854400,136458544,0,31.482868194580078,31.48775863647461,31.489028930664062,141.5243682861328,141.5246124267578,141.5245819091797,0,0,46.68000030517578,1,1,1840,1843
136.46114100,136461141,0,31.482868194580078,31.48775863647461,31.489028930664062,141.5243682861328,141.52452087402344,141.52452087402344,0,0,46.68000030517578,1,1,1840,1843
136.46348600,136463486,0,31.48286247253418,31.48775291442871,31.48902702331543,141.52439880371094,141.5246124267578,141.52462768554688,0,0,46.68000030517578,1,1,1840,1843
136.46604200,136466042,0,31.482864379882812,31.48775291442871,31.489028930664062,141.52439880371094,141.52452087402344,141.52452087402344,0,0,46.68000030517578,1,1,1840,1843
136.46861400,136468614,0,31.482864379882812,31.48775291442871,31.489028930664062,141.52439880371094,141.5245819091797,141.5246124267578,0,0,46.68000030517578,1,1,1840,1843
136.47098700,136470987,0,31.48287010192871,31.487760543823242,31.48902702331543,141.5243682861328,141.52455139160156,141.5245361328125,0,0,46.68000030517578,1,1,1840,1843
136.47354200,136473542,0,31.482868194580078,31.48775863647461,31.489028930664062,141.5243682861328,141.5245819091797,141.5246124267578,0,0,46.68000030517578,1,1,1840,1843
136.47612900,136476129,0,31.482868194580078,31.48775863647461,31.489028930664062,141.5243682861328,141.5246124267578,141.5245819091797,0,0,46.68000030517578,1,1,1840,1843
136.47850900,136478509,0,31.48286247253418,31.48775291442871,31.48902702331543,141.52439880371094,141.5245361328125,141.52455139160156,0,0,46.68000030517578,1,1,1840,1843
136.48105200,136481052,0,31.482864379882812,31.48775291442871,31.489028930664062,141.52439880371094,141.5246124267578,141.5245819091797,0,0,46.68000030517578,1,1,1840,1843
136.48348400,136483484,0,31.482868194580078,31.48775863647461,31.489028930664062,141.5243682861328,141.52452087402344,141.5245361328125,0,0,46.68000030517578,1,1,1840,1843
136.48620600,136486206,0,31.48287010192871,31.487760543823242,31.48902702331543,141.5243682861328,141.5246124267578,141.52462768554688,0,0,46.68000030517578,1,1,1840,1843
136.48855500,136488555,0,31.482868194580078,31.48775863647461,31.489028930664062,141.5243682861328,141.52452087402344,141.52452087402344,0,0,46.68000030517578,1,1,1840,1843
136.49099100,136490991,0,31.482864379882812,31.487754821777344,31.489028930664062,141.52439880371094,141.5246124267578,141.52462768554688,0,0,46.68000030517578,1,1,1840,1843
136.49365100,136493651,0,31.48286247253418,31.48775291442871,31.48902702331543,141.52439880371094,141.52455139160156,141.5245361328125,0,0,46.68000030517578,1,1,1840,1843
136.49604200,136496042,0,31.482864379882812,31.48775291442871,31.489028930664062,141.52439880371094,141.5245819091797,141.5246124267578,0,0,46.68000030517578,1,1,1840,1843
136.49853500,136498535,0,31.48287010192871,31.487760543823242,31.48902702331543,141.5243682861328,141.52455139160156,141.5245361328125,0,0,46.68000030517578,1,1,1840,1843
136.50122100,136501221,0,31.48287010192871,31.487760543823242,31.48902702331543,141.5243682861328,141.5245361328125,141.52455139160156,0,0,46.68000030517578,1,1,1840,1843
136.50355400,136503554,0,31.482868194580078,31.48775863647461,31.489028930664062,141.5243682861328,141.5246124267578,141.5245819091797,0,0,46.68000030517578,1,1,1840,1843
136.50602400,136506024,0,31.48286247253418,31.48775291442871,31.48902702331543,141.52439880371094,141.5245361328125,141.52455139160156,0,0,46.68000030517578,1,1,1840,1843
136.50863900,136508639,0,31.48286247253418,31.48775291442871,31.48902702331543,141.52439880371094,141.5246124267578,141.52462768554688,0,0,46.68000030517578,1,1,1840,1843
136.51098400,136510984,0,31.482864379882812,31.48775291442871,31.489028930664062,141.52439880371094,141.52452087402344,141.52452087402344,0,0,46.68000030517578,1,1,1840,1841
136.51355100,136513551,0,31.48287010192871,31.487760543823242,31.48902702331543,141.5243682861328,141.5246124267578,141.52462768554688,0,0,46.68000030517578,1,1,1839,1841
136.51610300,136516103,0,31.48287010192871,31.487760543823242,31.48902702331543,141.5243682861328,141.52455139160156,141.5245361328125,0,0,46.68000030517578,1,1,1839,1841
136.51858200,136518582,0,31.482868194580078,31.48775863647461,31.489028930664062,141.5243682861328,141.5245819091797,141.5246124267578,0,0,46.68000030517578,1,1,1839,1841
136.52104400,136521044,0,31.48286247253418,31.48775291442871,31.48902702331543,141.52439880371094,141.52455139160156,141.5245361328125,0,0,46.68000030517578,1,1,1839,1841
136.52385600,136523856,0,31.48286247253418,31.48775291442871,31.48902702331543,141.52439880371094,141.5245361328125,141.52455139160156,0,0,46.68000030517578,1,1,1839,1841
136.52594900,136525949,0,31.482864379882812,31.48775291442871,31.489028930664062,141.52439880371094,141.5246124267578,141.5245819091797,0,0,46.68000030517578,1,1,1839,1841
136.52854700,136528547,0,31.48287010192871,31.487760543823242,31.48902702331543,141.5243682861328,141.5245361328125,141.52455139160156,0,0,46.68000030517578,1,1,1839,1841
136.53098500,136530985,0,31.482868194580078,31.48775863647461,31.48902702331543,141.5243682861328,141.5246124267578,141.5245819091797,0,0,46.68000030517578,1,1,1839,1841
136.53372000,136533720,0,31.482868194580078,31.48775863647461,31.489028930664062,141.5243682861328,141.52452087402344,141.52452087402344,0,0,46.68000030517578,1,1,1839,1841
136.53603700,136536037,0,31.48286247253418,31.48775291442871,31.48902702331543,141.52439880371094,141.5246124267578,141.52462768554688,0,0,46.68000030517578,1,1,1839,1841
136.53862600,136538626,0,31.48286247253418,31.48775291442871,31.48902702331543,141.52439880371094,141.52452087402344,141.52452087402344,0,0,46.68000030517578,1,1,1839,1841
136.54132500,136541325,0,31.482864379882812,31.48775291442871,31.489028930664062,141.52439880371094,141.5245819091797,141.5246124267578,0,0,46.68000030517578,1,1,1839,1841
136.54356700,136543567,0,31.48287010192871,31.487760543823242,31.48902702331543,141.5243682861328,141.52455139160156,141.5245361328125,0,0,46.68000030517578,1,1,1839,1841
136.54600800,136546008,0,31.482868194580078,31.48775863647461,31.489028930664062,141.5243682861328,141.5245819091797,141.5246124267578,0,0,46.68000030517578,1,1,1839,1841
136.54871500,136548715,0,31.482868194580078,31.48775863647461,31.489028930664062,141.5243682861328,141.5246124267578,141.5245819091797,0,0,46.68000030517578,1,1,1839,1841
136.55099500,136550995,0,31.48286247253418,31.48775291442871,31.48902702331543,141.52439880371094,141.5245361328125,141.52455139160156,0,0,46.68000030517578,1,1,1839,1841
136.55352400,136553524,0,31.482864379882812,31.48775291442871,31.489028930664062,141.52439880371094,141.5246124267578,141.5245819091797,0,0,46.68000030517578,1,1,1839,1841
136.55610100,136556101,0,31.482864379882812,31.48775291442871,31.489028930664062,141.52439880371094,141.52452087402344,141.52452087402344,0,0,46.68000030517578,1,1,1839,1841
136.55859300,136558593,0,31.48287010192871,31.487760543823242,31.48902702331543,141.5243682861328,141.5246124267578,141.52462768554688,0,0,46.68000030517578,1,1,1839,1841
136.56104600,136561046,0,31.482868194580078,31.48775863647461,31.489028930664062,141.5243682861328,141.52452087402344,141.52452087402344,0,0,46.68000030517578,1,1,1839,1841
136.56362800,136563628,0,31.482868194580078,31.48775863647461,31.489028930664062,141.5243682861328,141.5245819091797,141.5246124267578,0,0,46.68000030517578,1,1,1839,1841
136.56598600,136565986,0,31.48286247253418,31.48775291442871,31.48902702331543,141.52439880371094,141.52455139160156,141.5245361328125,0,0,46.68000030517578,1,1,1839,1841
136.56855100,136568551,0,31.482864379882812,31.48775291442871,31.489028930664062,141.52439880371094,141.5245819091797,141.5246124267578,0,0,46.68000030517578,1,1,1839,1841
136.57126300,136571263,0,31.482864379882812,31.48775291442871,31.489028930664062,141.52439880371094,141.5246124267578,141.5245819091797,0,0,46.68000030517578,1,1,1839,1841
136.57348500,136573485,0,31.48287010192871,31.487760543823242,31.48902702331543,141.5243682861328,141.5245361328125,141.52455139160156,0,0,46.68000030517578,1,1,1839,1841
136.57604800,136576048,0,31.482868194580078,31.48775863647461,31.489028930664062,141.5243682861328,141.5246124267578,141.5245819091797,0,0,46.68000030517578,1,1,1839,1841
136.57851000,136578510,0,31.482864379882812,31.487754821777344,31.489028930664062,141.52439880371094,141.52452087402344,141.5245361328125,0,0,46.68000030517578,1,1,1839,1841
136.58120700,136581207,0,31.48286247253418,31.48775291442871,31.48902702331543,141.52439880371094,141.5246124267578,141.52462768554688,0,0,46.68000030517578,1,1,1839,1841
136.58355800,136583558,0,31.482864379882812,31.48775291442871,31.489028930664062,141.52439880371094,141.52452087402344,141.52452087402344,0,0,46.68000030517578,1,1,1839,1841
136.58600600,136586006,0,31.48287010192871,31.487760543823242,31.48902702331543,141.5243682861328,141.5246124267578,141.52462768554688,0,0,46.68000030517578,1,1,1839,1841
136.58871000,136588710,0,31.48287010192871,31.487760543823242,31.48902702331543,141.5243682861328,141.52455139160156,141.5245361328125,0,0,46.68000030517578,1,1,1839,1841
136.59104600,136591046,0,31.482868194580078,31.48775863647461,31.489028930664062,141.5243682861328,141.5245819091797,141.5246124267578,0,0,46.68000030517578,1,1,1839,1841
136.59351400,136593514,0,31.48286247253418,31.48775291442871,31.48902702331543,141.52439880371094,141.52455139160156,141.5245361328125,0,0,46.68000030517578,1,1,1839,1841
136.59614000,136596140,0,31.48286247253418,31.48775291442871,31.48902702331543,141.52439880371094,141.5245361328125,141.52455139160156,0,0,46.68000030517578,1,1,1839,1841
136.59857600,136598576,0,31.482864379882812,31.48775291442871,31.489028930664062,141.52439880371094,141.5246124267578,141.5245819091797,0,0,46.68000030517578,1,1,1839,1841
136.60103400,136601034,0,31.48287010192871,31.487760543823242,31.48902702331543,141.5243682861328,141.5245361328125,141.52455139160156,0,0,46.68000030517578,1,1,1839,1841
136.60364400,136603644,0,31.48287010192871,31.487760543823242,31.48902702331543,141.5243682861328,141.5246124267578,141.52462768554688,0,0,46.68000030517578,1,1,1839,1841
136.60598400,136605984,0,31.482868194580078,31.48775863647461,31.489028930664062,141.5243682861328,141.52452087402344,141.52452087402344,0,0,46.68000030517578,1,1,1839,1841
136.60885700,136608857,0,31.48286247253418,31.48775291442871,31.48902702331543,141.52439880371094,141.5246124267578,141.52462768554688,0,0,46.68000030517578,1,1,1839,1841
136.61125800,136611258,0,31.48286247253418,31.48775291442871,31.48902702331543,141.52439880371094,141.52455139160156,141.5245361328125,0,0,46.68000030517578,1,1,1839,1841
136.61348700,136613487,0,31.482864379882812,31.48775291442871,31.489028930664062,141.52439880371094,141.5245819091797,141.5246124267578,0,0,46.68000030517578,1,1,1839,1841
136.61605100,136616051,0,31.48287010192871,31.487760543823242,31.48902702331543,141.5243682861328,141.52455139160156,141.5245361328125,0,0,46.68000030517578,1,1,1839,1841
136.61866200,136618662,0,31.48287010192871,31.487760543823242,31.48902702331543,141.5243682861328,141.5245361328125,141.52455139160156,0,0,46.68000030517578,1,1,1839,1841
136.62096400,136620964,0,31.482868194580078,31.48775863647461,31.489028930664062,141.5243682861328,141.5246124267578,141.5245819091797,0,0,46.68000030517578,1,1,1839,1841
136.62367600,136623676,0,31.48286247253418,31.48775291442871,31.48902702331543,141.52439880371094,141.5245361328125,141.52455139160156,0,0,46.68000030517578,1,1,1839,1841
136.62598000,136625980,0,31.48286247253418,31.48775291442871,31.48902702331543,141.52439880371094,141.52462768554688,141.5246124267578,0,0,46.68000030517578,1,1,1839,1841
136.62871000,136628710,0,31.482864379882812,31.48775291442871,31.489028930664062,141.52439880371094,141.52452087402344,141.52452087402344,0,0,46.68000030517578,1,1,1839,1841
136.63104100,136631041,0,31.48287010192871,31.487760543823242,31.48902702331543,141.5243682861328,141.5246124267578,141.52462768554688,0,0,46.68000030517578,1,1,1839,1841
136.63351500,136633515,0,31.482868194580078,31.48775863647461,31.48902702331543,141.5243682861328,141.52452087402344,141.52452087402344,0,0,46.68000030517578,1,1,1839,1841
136.63618800,136636188,0,31.482868194580078,31.48775863647461,31.489028930664062,141.5243682861328,141.5245819091797,141.5246124267578,0,0,46.68000030517578,1,1,1839,1841
136.63869600,136638696,0,31.48286247253418,31.48775291442871,31.48902702331543,141.52439880371094,141.52455139160156,141.5245361328125,0,0,46.68000030517578,1,1,1839,1841
136.64100100,136641001,0,31.482864379882812,31.48775291442871,31.489028930664062,141.52439880371094,141.5245819091797,141.5246124267578,0,0,46.68000030517578,1,1,1839,1841
136.64384400,136643844,0,31.482864379882812,31.48775291442871,31.489028930664062,141.52439880371094,141.5246124267578,141.5245819091797,0,0,46.68000030517578,1,1,1839,1841
136.64599500,136645995,0,31.48287010192871,31.487760543823242,31.48902702331543,141.5243682861328,141.5245361328125,141.52455139160156,0,0,46.68000030517578,1,1,1839,1841
136.64854100,136648541,0,31.482868194580078,31.48775863647461,31.489028930664062,141.5243682861328,141.5246124267578,141.5245819091797,0,0,46.68000030517578,1,1,1839,1841
136.65109100,136651091,0,31.482868194580078,31.48775863647461,31.489028930664062,141.5243682861328,141.52452087402344,141.52452087402344,0,0,46.68000030517578,1,1,1839,1841
136.65349500,136653495,0,31.48286247253418,31.48775291442871,31.48902702331543,141.52439880371094,141.5246124267578,141.52462768554688,0,0,46.68000030517578,1,1,1839,1841
136.65603600,136656036,0,31.482864379882812,31.48775291442871,31.489028930664062,141.52439880371094,141.52452087402344,141.52452087402344,0,0,46.68000030517578,1,1,1839,1841
136.65865000,136658650,0,31.482864379882812,31.48775291442871,31.489028930664062,141.52439880371094,141.5245819091797,141.5246124267578,0,0,46.68000030517578,1,1,1839,1841
136.66098100,136660981,0,31.48287010192871,31.487760543823242,31.48902702331543,141.5243682861328,141.52455139160156,141.5245361328125,0,0,46.68000030517578,1,1,1839,1841
136.66355600,136663556,0,31.482868194580078,31.48775863647461,31.489028930664062,141.5243682861328,141.5245819091797,141.5246124267578,0,0,46.68000030517578,1,1,1839,1841
136.66598000,136665980,0,31.482864379882812,31.487754821777344,31.489028930664062,141.52439880371094,141.5245819091797,141.52455139160156,0,0,46.68000030517578,1,1,1839,1841
136.66871000,136668710,0,31.48286247253418,31.48775291442871,31.48902702331543,141.52439880371094,141.5245361328125,141.52455139160156,0,0,46.68000030517578,1,1,1839,1841
136.67103500,136671035,0,31.482864379882812,31.48775291442871,31.489028930664062,141.52439880371094,141.5246124267578,141.5245819091797,0,0,46.68000030517578,1,1,1839,1841
136.67351300,136673513,0,31.482868194580078,31.48775863647461,31.489028930664062,141.5243682861328,141.5245361328125,141.52455139160156,0,0,46.68000030517578,1,1,1839,1841
136.67619800,136676198,0,31.48287010192871,31.487760543823242,31.48902702331543,141.5243682861328,141.5246124267578,141.52462768554688,0,0,46.68000030517578,1,1,1839,1841
136.67858500,136678585,0,31.482868194580078,31.48775863647461,31.489028930664062,141.5243682861328,141.52452087402344,141.52452087402344,0,0,46.68000030517578,1,1,1839,1841
136.68100300,136681003,0,31.48286247253418,31.48775291442871,31.48902702331543,141.52439880371094,141.5246124267578,141.52462768554688,0,0,46.68000030517578,1,1,1839,1841
136.68372300,136683723,0,31.48286247253418,31.48775291442871,31.48902702331543,141.52439880371094,141.52455139160156,141.5245361328125,0,0,46.68000030517578,1,1,1839,1841
136.68600500,136686005,0,31.482864379882812,31.48775291442871,31.489028930664062,141.52439880371094,141.5245819091797,141.5246124267578,0,0,46.68000030517578,1,1,1839,1841
136.68886100,136688861,0,31.48287010192871,31.487760543823242,31.48902702331543,141.5243682861328,141.52455139160156,141.5245361328125,0,0,46.68000030517578,1,1,1839,1841
136.69114600,136691146,0,31.48287010192871,31.487760543823242,31.48902702331543,141.5243682861328,141.5245361328125,141.52455139160156,0,0,46.68000030517578,1,1,1839,1841
136.69354600,136693546,0,31.482868194580078,31.48775863647461,31.489028930664062,141.5243682861328,141.5246124267578,141.5245819091797,0,0,46.68000030517578,1,1,1839,1841
136.69603000,136696030,0,31.48286247253418,31.48775291442871,31.48902702331543,141.52439880371094,141.5245361328125,141.52455139160156,0,0,46.68000030517578,1,1,1839,1841
136.69866800,136698668,0,31.48286247253418,31.48775291442871,31.48902702331543,141.52439880371094,141.5246124267578,141.52462768554688,0,0,46.68000030517578,1,1,1839,1841
136.70098400,136700984,0,31.482864379882812,31.48775291442871,31.489028930664062,141.52439880371094,141.52452087402344,141.52452087402344,0,0,46.68000030517578,1,1,1839,1841
136.70356100,136703561,0,31.48287010192871,31.487760543823242,31.48902702331543,141.5243682861328,141.5246124267578,141.52462768554688,0,0,46.68000030517578,1,1,1839,1841
136.70610900,136706109,0,31.48287010192871,31.487760543823242,31.48902702331543,141.5243682861328,141.52455139160156,141.5245361328125,0,0,46.68000030517578,1,1,1839,1841
136.70848000,136708480,0,31.482868194580078,31.48775863647461,31.489028930664062,141.5243682861328,141.5245819091797,141.5246124267578,0,0,46.68000030517578,1,1,1839,1841
136.71104500,136711045,0,31.48286247253418,31.48775291442871,31.48902702331543,141.52439880371094,141.52455139160156,141.5245361328125,0,0,46.68000030517578,1,1,1839,1841
136.71374100,136713741,0,31.48286247253418,31.48775291442871,31.48902702331543,141.52439880371094,141.5245361328125,141.52455139160156,0,0,46.68000030517578,1,1,1839,1841
136.71599000,136715990,0,31.482864379882812,31.48775291442871,31.489028930664062,141.52439880371094,141.5246124267578,141.5245819091797,0,0,46.68000030517578,1,1,1839,1841
136.71857400,136718574,0,31.48287010192871,31.487760543823242,31.48902702331543,141.5243682861328,141.5245361328125,141.52455139160156,0,0,46.68000030517578,1,1,1839,1841
136.72098600,136720986,0,31.482868194580078,31.48775863647461,31.48902702331543,141.52435302734375,141.52462768554688,141.5246124267578,0,0,46.68000030517578,1,1,1839,1841
136.72383100,136723831,0,31.482868194580078,31.48775863647461,31.489028930664062,141.5243682861328,141.52452087402344,141.52452087402344,0,0,46.68000030517578,1,1,1839,1841
136.72609800,136726098,0,31.48286247253418,31.48775291442871,31.48902702331543,141.52439880371094,141.5246124267578,141.52462768554688,0,0,46.68000030517578,1,1,1839,1841
136.72851000,136728510,0,31.482864379882812,31.48775291442871,31.489028930664062,141.52439880371094,141.52452087402344,141.52452087402344,0,0,46.68000030517578,1,1,1839,1841
136.73120600,136731206,0,31.482864379882812,31.48775291442871,31.489028930664062,141.52439880371094,141.5245819091797,141.5246124267578,0,0,46.68000030517578,1,1,1839,1841
136.73355100,136733551,0,31.48287010192871,31.487760543823242,31.48902702331543,141.5243682861328,141.52455139160156,141.5245361328125,0,0,46.68000030517578,1,1,1839,1841
136.73600000,136736000,0,31.482868194580078,31.48775863647461,31.489028930664062,141.5243682861328,141.5245819091797,141.5246124267578,0,0,46.68000030517578,1,1,1839,1841
136.73881600,136738816,0,31.482868194580078,31.48775863647461,31.489028930664062,141.5243682861328,141.5246124267578,141.5245819091797,0,0,46.68000030517578,1,1,1839,1841
136.74103800,136741038,0,31.48286247253418,31.48775291442871,31.48902702331543,141.52439880371094,141.5245361328125,141.52455139160156,0,0,46.68000030517578,1,1,1839,1841
136.74353800,136743538,0,31.482864379882812,31.48775291442871,31.489028930664062,141.52439880371094,141.5246124267578,141.5245819091797,0,0,46.68000030517578,1,1,1839,1841
136.74622900,136746229,0,31.482864379882812,31.48775291442871,31.489028930664062,141.52439880371094,141.52452087402344,141.52452087402344,0,0,46.68000030517578,1,1,1839,1841
136.74848700,136748487,0,31.48287010192871,31.487760543823242,31.48902702331543,141.5243682861328,141.5246124267578,141.52462768554688,0,0,46.68000030517578,1,1,1839,1841
136.75104600,136751046,0,31.482868194580078,31.48775863647461,31.489028930664062,141.5243682861328,141.52452087402344,141.52452087402344,0,0,46.68000030517578,1,1,1839,1841
136.75360700,136753607,0,31.482868194580078,31.48775863647461,31.489028930664062,141.5243682861328,141.5245819091797,141.5246124267578,0,0,46.68000030517578,1,1,1839,1841
136.75598400,136755984,0,31.48286247253418,31.48775291442871,31.48902702331543,141.52439880371094,141.52455139160156,141.5245361328125,0,0,46.68000030517578,1,1,1839,1841
136.75857700,136758577,0,31.482864379882812,31.48775291442871,31.489028930664062,141.52439880371094,141.5245819091797,141.5246124267578,0,0,46.68000030517578,1,1,1839,1841
136.76111500,136761115,0,31.482864379882812,31.48775291442871,31.489028930664062,141.52439880371094,141.5246124267578,141.5245819091797,0,0,46.68000030517578,1,1,1839,1841
136.76349900,136763499,0,31.48287010192871,31.487760543823242,31.48902702331543,141.5243682861328,141.5245361328125,141.52455139160156,0,0,46.68000030517578,1,1,1839,1841
136.76604100,136766041,0,31.482868194580078,31.48775863647461,31.489028930664062,141.5243682861328,141.5246124267578,141.5245819091797,0,0,46.68000030517578,1,1,1839,1841
136.76863700,136768637,0,31.482868194580078,31.48775863647461,31.489028930664062,141.52439880371094,141.52452087402344,141.5245361328125,0,0,46.68000030517578,1,1,1839,1841
136.77097800,136770978,0,31.48286247253418,31.48775291442871,31.48902702331543,141.52439880371094,141.5246124267578,141.52462768554688,0,0,46.68000030517578,1,1,1839,1841
136.77355200,136773552,0,31.482864379882812,31.48775291442871,31.489028930664062,141.52439880371094,141.52452087402344,141.52452087402344,0,0,46.68000030517578,1,1,1839,1841
136.77598800,136775988,0,31.482868194580078,31.48775863647461,31.489028930664062,141.5243682861328,141.5246124267578,141.52462768554688,0,0,46.68000030517578,1,1,1839,1841
136.77873400,136778734,0,31.48287010192871,31.487760543823242,31.48902702331543,141.5243682861328,141.52455139160156,141.5245361328125,0,0,46.68000030517578,1,1,1839,1841
136.78104100,136781041,0,31.482868194580078,31.48775863647461,31.489028930664062,141.5243682861328,141.5245819091797,141.5246124267578,0,0,46.68000030517578,1,1,1839,1841
136.78351800,136783518,0,31.48286247253418,31.48775291442871,31.48902702331543,141.52439880371094,141.52455139160156,141.5245361328125,0,0,46.68000030517578,1,1,1839,1841
136.78613400,136786134,0,31.48286247253418,31.48775291442871,31.48902702331543,141.52439880371094,141.5245361328125,141.52455139160156,0,0,46.68000030517578,1,1,1839,1841
136.78850400,136788504,0,31.482864379882812,31.48775291442871,31.489028930664062,141.52439880371094,141.5246124267578,141.5245819091797,0,0,46.68000030517578,1,1,1839,1841
136.79102100,136791021,0,31.48287010192871,31.487760543823242,31.48902702331543,141.5243682861328,141.5245361328125,141.52455139160156,0,0,46.68000030517578,1,1,1839,1841
136.79360300,136793603,0,31.48287010192871,31.487760543823242,31.48902702331543,141.5243682861328,141.5246124267578,141.52462768554688,0,0,46.68000030517578,1,1,1839,1841
136.79598800,136795988,0,31.482868194580078,31.48775863647461,31.489028930664062,141.5243682861328,141.52452087402344,141.52452087402344,0,0,46.68000030517578,1,1,1839,1841
136.79856900,136798569,0,31.48286247253418,31.48775291442871,31.48902702331543,141.52439880371094,141.5246124267578,141.52462768554688,0,0,46.68000030517578,1,1,1839,1841
136.80111700,136801117,0,31.48286247253418,31.48775291442871,31.48902702331543,141.52439880371094,141.52455139160156,141.5245361328125,0,0,46.68000030517578,1,1,1839,1841
136.80348700,136803487,0,31.482864379882812,31.48775291442871,31.489028930664062,141.52439880371094,141.5245819091797,141.5246124267578,0,0,46.68000030517578,1,1,1839,1841
136.80605700,136806057,0,31.48287010192871,31.487760543823242,31.48902702331543,141.5243682861328,141.52455139160156,141.5245361328125,0,0,46.68000030517578,1,1,1839,1841
136.80861000,136808610,0,31.48287010192871,31.487760543823242,31.48902702331543,141.5243682861328,141.5245361328125,141.52455139160156,0,0,46.68000030517578,1,1,1839,1841
136.81099300,136810993,0,31.482868194580078,31.48775863647461,31.489028930664062,141.5243682861328,141.5246124267578,141.5245819091797,0,0,46.68000030517578,1,1,1839,1841
136.81354200,136813542,0,31.48286247253418,31.48775291442871,31.48902702331543,141.52439880371094,141.5245361328125,141.52455139160156,0,0,46.68000030517578,1,1,1839,1841
136.81614800,136816148,0,31.48286247253418,31.48775291442871,31.48902702331543,141.52439880371094,141.52462768554688,141.5246124267578,0,0,46.68000030517578,1,1,1839,1841
136.81851500,136818515,0,31.482864379882812,31.48775291442871,31.489028930664062,141.52439880371094,141.52452087402344,141.52452087402344,0,0,46.68000030517578,1,1,1839,1841
136.82104700,136821047,0,31.48287010192871,31.487760543823242,31.48902702331543,141.5243682861328,141.5246124267578,141.52462768554688,0,0,46.68000030517578,1,1,1839,1841
136.82363000,136823630,0,31.482868194580078,31.48775863647461,31.489028930664062,141.5243682861328,141.52452087402344,141.52452087402344,0,0,46.68000030517578,1,1,1839,1841
136.82616900,136826169,0,31.482868194580078,31.48775863647461,31.489028930664062,141.5243682861328,141.5245819091797,141.5246124267578,0,0,46.68000030517578,1,1,1839,1841
136.82855000,136828550,0,31.48286247253418,31.48775291442871,31.48902702331543,141.52439880371094,141.52455139160156,141.5245361328125,0,0,46.68000030517578,1,1,1839,1841
136.83101500,136831015,0,31.482864379882812,31.48775291442871,31.489028930664062,141.52439880371094,141.5245819091797,141.5246124267578,0,0,46.68000030517578,1,1,1839,1841
136.83363900,136833639,0,31.482864379882812,31.48775291442871,31.489028930664062,141.52439880371094,141.5246124267578,141.5245819091797,0,0,46.68000030517578,1,1,1839,1841
136.83600800,136836008,0,31.48287010192871,31.487760543823242,31.48902702331543,141.5243682861328,141.5245361328125,141.52455139160156,0,0,46.68000030517578,1,1,1839,1841
136.83861300,136838613,0,31.482868194580078,31.48775863647461,31.489028930664062,141.5243682861328,141.5246124267578,141.5245819091797,0,0,46.68000030517578,1,1,1839,1841
136.84128900,136841289,0,31.482868194580078,31.48775863647461,31.489028930664062,141.5243682861328,141.52452087402344,141.52452087402344,0,0,46.68000030517578,1,1,1839,1841
136.84354900,136843549,0,31.48286247253418,31.48775291442871,31.48902702331543,141.52439880371094,141.5246124267578,141.52462768554688,0,0,46.68000030517578,1,1,1839,1841
136.84602700,136846027,0,31.482864379882812,31.48775291442871,31.489028930664062,141.52439880371094,141.52452087402344,141.52452087402344,0,0,46.68000030517578,1,1,1839,1841
136.84860900,136848609,0,31.482864379882812,31.48775291442871,31.489028930664062,141.52439880371094,141.5245819091797,141.5246124267578,0,0,46.68000030517578,1,1,1839,1841
136.85099000,136850990,0,31.48287010192871,31.487760543823242,31.48902702331543,141.5243682861328,141.52455139160156,141.5245361328125,0,0,46.68000030517578,1,1,1839,1841
136.85354800,136853548,0,31.482868194580078,31.48775863647461,31.489028930664062,141.5243682861328,141.5245819091797,141.5246124267578,0,0,46.68000030517578,1,1,1839,1841
136.85625700,136856257,0,31.482868194580078,31.48775863647461,31.489028930664062,141.5243682861328,141.5246124267578,141.5245819091797,0,0,46.68000030517578,1,1,1839,1841
136.85852100,136858521,0,31.48286247253418,31.48775291442871,31.48902702331543,141.52439880371094,141.5245361328125,141.52455139160156,0,0,46.68000030517578,1,1,1839,1841
136.86104100,136861041,0,31.482864379882812,31.48775291442871,31.489028930664062,141.52439880371094,141.5246124267578,141.5245819091797,0,0,46.68000030517578,1,1,1839,1841
136.86349500,136863495,0,31.482868194580078,31.48775863647461,31.489028930664062,141.5243682861328,141.52452087402344,141.5245361328125,0,0,46.68000030517578,1,1,1839,1841
136.86615500,136866155,0,31.48287010192871,31.487760543823242,31.48902702331543,141.5243682861328,141.5246124267578,141.52462768554688,0,0,46.68000030517578,1,1,1839,1841
136.86855200,136868552,0,31.482868194580078,31.48775863647461,31.489028930664062,141.5243682861328,141.52452087402344,141.52452087402344,0,0,46.68000030517578,1,1,1839,1841
136.87100700,136871007,0,31.48286247253418,31.48775291442871,31.48902702331543,141.52439880371094,141.5246124267578,141.52462768554688,0,0,46.68000030517578,1,1,1839,1841
136.87364700,136873647,0,31.48286247253418,31.48775291442871,31.48902702331543,141.52439880371094,141.52455139160156,141.5245361328125,0,0,46.68000030517578,1,1,1839,1841
136.87604200,136876042,0,31.482864379882812,31.48775291442871,31.489028930664062,141.52439880371094,141.5245819091797,141.5246124267578,0,0,46.68000030517578,1,1,1839,1841
136.87855200,136878552,0,31.48287010192871,31.487760543823242,31.48902702331543,141.5243682861328,141.52455139160156,141.5245361328125,0,0,46.68000030517578,1,1,1839,1841
136.88110700,136881107,0,31.48287010192871,31.487760543823242,31.48902702331543,141.5243682861328,141.5245361328125,141.52455139160156,0,0,46.68000030517578,1,1,1839,1841
136.88349400,136883494,0,31.482868194580078,31.48775863647461,31.489028930664062,141.5243682861328,141.5246124267578,141.5245819091797,0,0,46.68000030517578,1,1,1839,1841
136.88604400,136886044,0,31.48286247253418,31.48775291442871,31.48902702331543,141.52439880371094,141.5245361328125,141.52455139160156,0,0,46.68000030517578,1,1,1839,1841
136.88862400,136888624,0,31.48286247253418,31.48775291442871,31.48902702331543,141.52439880371094,141.5246124267578,141.52462768554688,0,0,46.68000030517578,1,1,1839,1841
136.89098500,136890985,0,31.482864379882812,31.48775291442871,31.489028930664062,141.52439880371094,141.52452087402344,141.52452087402344,0,0,46.68000030517578,1,1,1839,1841
136.89355400,136893554,0,31.48287010192871,31.487760543823242,31.48902702331543,141.5243682861328,141.5246124267578,141.52462768554688,0,0,46.68000030517578,1,1,1839,1841
136.89611700,136896117,0,31.48287010192871,31.487760543823242,31.48902702331543,141.52435302734375,141.5245361328125,141.52452087402344,0,0,46.68000030517578,1,1,1839,1841
136.89852100,136898521,0,31.482868194580078,31.48775863647461,31.489028930664062,141.5243682861328,141.5245819091797,141.5246124267578,0,0,46.68000030517578,1,1,1839,1841
136.90104500,136901045,0,31.48286247253418,31.48775291442871,31.48902702331543,141.52439880371094,141.52455139160156,141.5245361328125,0,0,46.68000030517578,1,1,1839,1841
136.90350500,136903505,0,31.48286247253418,31.48775291442871,31.48902702331543,141.52439880371094,141.5245819091797,141.5246124267578,0,0,46.68000030517578,1,1,1839,1841
136.90619800,136906198,0,31.482864379882812,31.48775291442871,31.489028930664062,141.52439880371094,141.5246124267578,141.5245819091797,0,0,46.68000030517578,1,1,1839,1841
136.90854700,136908547,0,31.48287010192871,31.487760543823242,31.48902702331543,141.5243682861328,141.5245361328125,141.52455139160156,0,0,46.68000030517578,1,1,1839,1841
136.91100600,136911006,0,31.482868194580078,31.48775863647461,31.489028930664062,141.5243682861328,141.5246124267578,141.5245819091797,0,0,46.68000030517578,1,1,1839,1841
136.91371700,136913717,0,31.482868194580078,31.48775863647461,31.489028930664062,141.5243682861328,141.52452087402344,141.52452087402344,0,0,46.68000030517578,1,1,1839,1841
136.91604800,136916048,0,31.48286247253418,31.48775291442871,31.48902702331543,141.52439880371094,141.5246124267578,141.52462768554688,0,0,46.68000030517578,1,1,1839,1841
136.91854600,136918546,0,31.482864379882812,31.48775291442871,31.489028930664062,141.52439880371094,141.52452087402344,141.52452087402344,0,0,46.68000030517578,1,1,1839,1841
136.92121300,136921213,0,31.482864379882812,31.48775291442871,31.489028930664062,141.52439880371094,141.5245819091797,141.5246124267578,0,0,46.68000030517578,1,1,1839,1841
136.92368000,136923680,0,31.48287010192871,31.487760543823242,31.48902702331543,141.5243682861328,141.52455139160156,141.5245361328125,0,0,46.68000030517578,1,1,1839,1841
136.92602200,136926022,0,31.482868194580078,31.48775863647461,31.489028930664062,141.5243682861328,141.5245819091797,141.5246124267578,0,0,46.68000030517578,1,1,1839,1841
136.92863800,136928638,0,31.482868194580078,31.48775863647461,31.489028930664062,141.5243682861328,141.5246124267578,141.5245819091797,0,0,46.68000030517578,1,1,1839,1841
136.93104800,136931048,0,31.48286247253418,31.48775291442871,31.48902702331543,141.52439880371094,141.5245361328125,141.52455139160156,0,0,46.68000030517578,1,1,1839,1841
136.93354600,136933546,0,31.482864379882812,31.48775291442871,31.489028930664062,141.52439880371094,141.5246124267578,141.5245819091797,0,0,46.68000030517578,1,1,1839,1841
136.93610300,136936103,0,31.482864379882812,31.48775291442871,31.489028930664062,141.52439880371094,141.52452087402344,141.52452087402344,0,0,46.68000030517578,1,1,1839,1841
136.93865300,136938653,0,31.48287010192871,31.487760543823242,31.48902702331543,141.5243682861328,141.5246124267578,141.52462768554688,0,0,46.68000030517578,1,1,1839,1841
136.94105200,136941052,0,31.482868194580078,31.48775863647461,31.489028930664062,141.5243682861328,141.52452087402344,141.52452087402344,0,0,46.68000030517578,1,1,1839,1841
136.94365800,136943658,0,31.482868194580078,31.48775863647461,31.489028930664062,141.52439880371094,141.5246124267578,141.5246124267578,0,0,46.68000030517578,1,1,1839,1841
136.94597000,136945970,0,31.48286247253418,31.48775291442871,31.48902702331543,141.52439880371094,141.52455139160156,141.5245361328125,0,0,46.68000030517578,1,1,1839,1841
136.94854400,136948544,0,31.482864379882812,31.48775291442871,31.489028930664062,141.52439880371094,141.5245819091797,141.5246124267578,0,0,46.68000030517578,1,1,1839,1841
136.95098900,136950989,0,31.482868194580078,31.48775863647461,31.489028930664062,141.5243682861328,141.52455139160156,141.5245361328125,0,0,46.68000030517578,1,1,1839,1841
136.95370600,136953706,0,31.48287010192871,31.487760543823242,31.48902702331543,141.5243682861328,141.5245361328125,141.52455139160156,0,0,46.68000030517578,1,1,1839,1841
136.95604400,136956044,0,31.482868194580078,31.48775863647461,31.489028930664062,141.5243682861328,141.5246124267578,141.5245819091797,0,0,46.68000030517578,1,1,1839,1841
136.95853600,136958536,0,31.48286247253418,31.48775291442871,31.48902702331543,141.52439880371094,141.5245361328125,141.52455139160156,0,0,46.68000030517578,1,1,1839,1841
136.96114400,136961144,0,31.48286247253418,31.48775291442871,31.48902702331543,141.52439880371094,141.5246124267578,141.52462768554688,0,0,46.68000030517578,1,1,1839,1841
136.96354600,136963546,0,31.482864379882812,31.48775291442871,31.489028930664062,141.52439880371094,141.52452087402344,141.52452087402344,0,0,46.68000030517578,1,1,1839,1841
136.96601900,136966019,0,31.48287010192871,31.487760543823242,31.48902702331543,141.5243682861328,141.5246124267578,141.52462768554688,0,0,46.68000030517578,1,1,1839,1841
136.96862700,136968627,0,31.48287010192871,31.487760543823242,31.48902702331543,141.5243682861328,141.52455139160156,141.5245361328125,0,0,46.68000030517578,1,1,1839,1841
136.97097600,136970976,0,31.482868194580078,31.48775863647461,31.489028930664062,141.5243682861328,141.5245819091797,141.5246124267578,0,0,46.68000030517578,1,1,1839,1841
136.97355000,136973550,0,31.48286247253418,31.48775291442871,31.48902702331543,141.52439880371094,141.52455139160156,141.5245361328125,0,0,46.68000030517578,1,1,1839,1841
136.97610500,136976105,0,31.48286247253418,31.48775291442871,31.48902702331543,141.52439880371094,141.5245361328125,141.52455139160156,0,0,46.68000030517578,1,1,1839,1841
136.97852800,136978528,0,31.482864379882812,31.48775291442871,31.489028930664062,141.52439880371094,141.5246124267578,141.5245819091797,0,0,46.68000030517578,1,1,1839,1841
136.98103900,136981039,0,31.48287010192871,31.487760543823242,31.48902702331543,141.5243682861328,141.5245361328125,141.52455139160156,0,0,46.68000030517578,1,1,1839,1841
136.98364200,136983642,0,31.48287010192871,31.487760543823242,31.48902702331543,141.5243682861328,141.5246124267578,141.52462768554688,0,0,46.68000030517578,1,1,1839,1841
136.98596700,136985967,0,31.482868194580078,31.48775863647461,31.489028930664062,141.5243682861328,141.52452087402344,141.52452087402344,0,0,46.68000030517578,1,1,1839,1841
136.98856400,136988564,0,31.48286247253418,31.48775291442871,31.48902702331543,141.52439880371094,141.5246124267578,141.52462768554688,0,0,46.68000030517578,1,1,1839,1841
136.99098000,136990980,0,31.48286247253418,31.48775291442871,31.48902702331543,141.52439880371094,141.52452087402344,141.52452087402344,0,0,46.68000030517578,1,1,1839,1841
136.99371500,136993715,0,31.482864379882812,31.48775291442871,31.489028930664062,141.52439880371094,141.5245819091797,141.5246124267578,0,0,46.68000030517578,1,1,1839,1841
136.99604100,136996041,0,31.48287010192871,31.487760543823242,31.48902702331543,141.5243682861328,141.52455139160156,141.5245361328125,0,0,46.68000030517578,1,1,1839,1841
136.99854400,136998544,0,31.482868194580078,31.48775863647461,31.48902702331543,141.5243682861328,141.5245819091797,141.5246124267578,0,0,46.68000030517578,1,1,1839,1841
137.00124500,137001245,0,31.482868194580078,31.48775863647461,31.489028930664062,141.5243682861328,141.5246124267578,141.5245819091797,0,0,46.68000030517578,1,1,1839,1841
137.00357100,137003571,0,31.48286247253418,31.48775291442871,31.48902702331543,141.52439880371094,141.5245361328125,141.52455139160156,0,0,46.68000030517578,1,1,1839,1841
137.00600400,137006004,0,31.482864379882812,31.48775291442871,31.489028930664062,141.52439880371094,141.5246124267578,141.5245819091797,0,0,46.68000030517578,1,1,1839,1841
137.00868300,137008683,0,31.482864379882812,31.48775291442871,31.489028930664062,141.52439880371094,141.52452087402344,141.52452087402344,0,0,46.68000030517578,1,1,1839,1841
137.01103700,137011037,0,31.48287010192871,31.487760543823242,31.48902702331543,141.5243682861328,141.5246124267578,141.52462768554688,0,0,46.68000030517578,1,1,1839,1841
137.01352700,137013527,0,31.482868194580078,31.48775863647461,31.489028930664062,141.5243682861328,141.52452087402344,141.52452087402344,0,0,46.68000030517578,1,1,1839,1841
137.01609200,137016092,0,31.482868194580078,31.48775863647461,31.489028930664062,141.5243682861328,141.5245819091797,141.5246124267578,0,0,46.68000030517578,1,1,1839,1841
137.01859900,137018599,0,31.48286247253418,31.48775291442871,31.48902702331543,141.52439880371094,141.52455139160156,141.5245361328125,0,0,46.68000030517578,1,1,1839,1841
137.02104100,137021041,0,31.482864379882812,31.48775291442871,31.489028930664062,141.52439880371094,141.5245819091797,141.5246124267578,0,0,46.68000030517578,1,1,1839,1841
137.02397700,137023977,0,31.482864379882812,31.48775291442871,31.489028930664062,141.52439880371094,141.5246124267578,141.5245819091797,0,0,46.68000030517578,1,1,1839,1841
137.02620200,137026202,0,31.48287010192871,31.487760543823242,31.48902702331543,141.5243682861328,141.5245361328125,141.52455139160156,0,0,46.68000030517578,1,1,1839,1841
137.02855100,137028551,0,31.482868194580078,31.48775863647461,31.489028930664062,141.5243682861328,141.5246124267578,141.5245819091797,0,0,46.68000030517578,1,1,1839,1841
137.03112700,137031127,0,31.482868194580078,31.48775863647461,31.489028930664062,141.52439880371094,141.52452087402344,141.5245361328125,0,0,46.68000030517578,1,1,1839,1841
137.03349600,137033496,0,31.48286247253418,31.48775291442871,31.48902702331543,141.52439880371094,141.5246124267578,141.52462768554688,0,0,46.68000030517578,1,1,1839,1841
137.03604500,137036045,0,31.482864379882812,31.48775291442871,31.489028930664062,141.52439880371094,141.52452087402344,141.52452087402344,0,0,46.68000030517578,1,1,1839,1841
137.03858500,137038585,0,31.482868194580078,31.48775863647461,31.489028930664062,141.5243682861328,141.5246124267578,141.5246124267578,0,0,46.68000030517578,1,1,1839,1841
137.04119400,137041194,0,31.48287010192871,31.487760543823242,31.48902702331543,141.5243682861328,141.52455139160156,141.5245361328125,0,0,46.68000030517578,1,1,1839,1841
137.04356100,137043561,0,31.482868194580078,31.48775863647461,31.489028930664062,141.5243682861328,141.5245819091797,141.5246124267578,0,0,46.68000030517578,1,1,1839,1841
137.04600700,137046007,0,31.482864379882812,31.487754821777344,31.489028930664062,141.52439880371094,141.52455139160156,141.5245361328125,0,0,46.68000030517578,1,1,1839,1841
137.04871300,137048713,0,31.48286247253418,31.48775291442871,31.48902702331543,141.52439880371094,141.5245361328125,141.52455139160156,0,0,46.68000030517578,1,1,1839,1841
137.05104600,137051046,0,31.482864379882812,31.48775291442871,31.489028930664062,141.52439880371094,141.5246124267578,141.5245819091797,0,0,46.68000030517578,1,1,1839,1841
137.05351200,137053512,0,31.48287010192871,31.487760543823242,31.48902702331543,141.5243682861328,141.5245361328125,141.52455139160156,0,0,46.68000030517578,1,1,1839,1841
137.05614200,137056142,0,31.48287010192871,31.487760543823242,31.48902702331543,141.5243682861328,141.5246124267578,141.52462768554688,0,0,46.68000030517578,1,1,1839,1841
137.05897100,137058971,0,31.482868194580078,31.48775863647461,31.489028930664062,141.5243682861328,141.52452087402344,141.52452087402344,0,0,46.68000030517578,1,1,1839,1841
137.06101500,137061015,0,31.48286247253418,31.48775291442871,31.48902702331543,141.52439880371094,141.5246124267578,141.52462768554688,0,0,46.68000030517578,1,1,1839,1841
137.06345500,137063455,0,31.48286247253418,31.48775291442871,31.48902702331543,141.52439880371094,141.52455139160156,141.5245361328125,0,0,46.68000030517578,1,1,1839,1841
137.06628200,137066282,0,31.482864379882812,31.48775291442871,31.489028930664062,141.52439880371094,141.5245819091797,141.5246124267578,0,0,46.68000030517578,1,1,1839,1841
137.06854900,137068549,0,31.48287010192871,31.487760543823242,31.48902702331543,141.5243682861328,141.52455139160156,141.5245361328125,0,0,46.68000030517578,1,1,1839,1841
137.07094500,137070945,0,31.48287010192871,31.487760543823242,31.48902702331543,141.5243682861328,141.5245361328125,141.52455139160156,0,0,46.68000030517578,1,1,1839,1841
137.07370300,137073703,0,31.482868194580078,31.48775863647461,31.489028930664062,141.5243682861328,141.5246124267578,141.5245819091797,0,0,46.68000030517578,1,1,1839,1841
137.07604500,137076045,0,31.48286247253418,31.48775291442871,31.48902702331543,141.52439880371094,141.5245361328125,141.52455139160156,0,0,46.68000030517578,1,1,1839,1841
137.07848200,137078482,0,31.48286247253418,31.48775291442871,31.48902702331543,141.52439880371094,141.5246124267578,141.52462768554688,0,0,46.68000030517578,1,1,1839,1841
137.08120200,137081202,0,31.482864379882812,31.48775291442871,31.489028930664062,141.52439880371094,141.52452087402344,141.52452087402344,0,0,46.68000030517578,1,1,1839,1841
137.08355100,137083551,0,31.48287010192871,31.487760543823242,31.48902702331543,141.5243682861328,141.5246124267578,141.52462768554688,0,0,46.68000030517578,1,1,1839,1841
137.08596500,137085965,0,31.48287010192871,31.487760543823242,31.48902702331543,141.52435302734375,141.5245361328125,141.52452087402344,0,0,46.68000030517578,1,1,1839,1841
137.08867700,137088677,0,31.482868194580078,31.48775863647461,31.489028930664062,141.5243682861328,141.5245819091797,141.5246124267578,0,0,46.68000030517578,1,1,1839,1841
137.09103700,137091037,0,31.48286247253418,31.48775291442871,31.48902702331543,141.52439880371094,141.52455139160156,141.5245361328125,0,0,46.68000030517578,1,1,1839,1841
137.09350200,137093502,0,31.48286247253418,31.48775291442871,31.48902702331543,141.52439880371094,141.52455139160156,141.5245819091797,0,0,46.68000030517578,1,1,1839,1841
137.09615400,137096154,0,31.482864379882812,31.48775291442871,31.489028930664062,141.52439880371094,141.5246124267578,141.5245819091797,0,0,46.68000030517578,1,1,1839,1841
137.09858200,137098582,0,31.48287010192871,31.487760543823242,31.48902702331543,141.5243682861328,141.5245361328125,141.52455139160156,0,0,46.68000030517578,1,1,1839,1841
137.10104300,137101043,0,31.482868194580078,31.48775863647461,31.489028930664062,141.5243682861328,141.5246124267578,141.5245819091797,0,0,46.68000030517578,1,1,1839,1841
137.10367900,137103679,0,31.482868194580078,31.48775863647461,31.489028930664062,141.5243682861328,141.52452087402344,141.52452087402344,0,0,46.68000030517578,1,1,1839,1841
137.10607400,137106074,0,31.48286247253418,31.48775291442871,31.48902702331543,141.52439880371094,141.5246124267578,141.52462768554688,0,0,46.68000030517578,1,1,1839,1841
137.10884400,137108844,0,31.482864379882812,31.48775291442871,31.489028930664062,141.52439880371094,141.52452087402344,141.52452087402344,0,0,46.68000030517578,1,1,1839,1841
137.11127000,137111270,0,31.482864379882812,31.48775291442871,31.489028930664062,141.52439880371094,141.5245819091797,141.5246124267578,0,0,46.68000030517578,1,1,1839,1841
137.11348500,137113485,0,31.48287010192871,31.487760543823242,31.48902702331543,141.5243682861328,141.52455139160156,141.5245361328125,0,0,46.68000030517578,1,1,1839,1841
137.11604100,137116041,0,31.482868194580078,31.48775863647461,31.489028930664062,141.5243682861328,141.5245819091797,141.5246124267578,0,0,46.68000030517578,1,1,1839,1841
137.11866300,137118663,0,31.482868194580078,31.48775863647461,31.489028930664062,141.5243682861328,141.5246124267578,141.5245819091797,0,0,46.68000030517578,1,1,1839,1841
137.12098400,137120984,0,31.48286247253418,31.48775291442871,31.48902702331543,141.52439880371094,141.5245361328125,141.52455139160156,0,0,46.68000030517578,1,1,1839,1841
137.12368800,137123688,0,31.482864379882812,31.48775291442871,31.489028930664062,141.52439880371094,141.5246124267578,141.5245819091797,0,0,46.68000030517578,1,1,1839,1841
137.12597400,137125974,0,31.482868194580078,31.48775863647461,31.489028930664062,141.5243682861328,141.52452087402344,141.5245361328125,0,0,46.68000030517578,1,1,1839,1841
137.12890400,137128904,0,31.48287010192871,31.487760543823242,31.48902702331543,141.5243682861328,141.5246124267578,141.52462768554688,0,0,46.68000030517578,1,1,1839,1841
137.13104100,137131041,0,31.482868194580078,31.48775863647461,31.489028930664062,141.5243682861328,141.52452087402344,141.52452087402344,0,0,46.68000030517578,1,1,1839,1841
137.13349900,137133499,0,31.482864379882812,31.487754821777344,31.489028930664062,141.52439880371094,141.5246124267578,141.52462768554688,0,0,46.68000030517578,1,1,1839,1841
137.13619900,137136199,0,31.48286247253418,31.48775291442871,31.48902702331543,141.52439880371094,141.52455139160156,141.5245361328125,0,0,46.68000030517578,1,1,1839,1841
137.13865800,137138658,0,31.482864379882812,31.48775291442871,31.489028930664062,141.52439880371094,141.5245819091797,141.5246124267578,0,0,46.68000030517578,1,1,1839,1841
137.14100800,137141008,0,31.48287010192871,31.487760543823242,31.48902702331543,141.5243682861328,141.52455139160156,141.5245361328125,0,0,46.68000030517578,1,1,1839,1841
137.14390900,137143909,0,31.48287010192871,31.487760543823242,31.48902702331543,141.5243682861328,141.5245361328125,141.52455139160156,0,0,46.68000030517578,1,1,1839,1841
137.14600700,137146007,0,31.482868194580078,31.48775863647461,31.489028930664062,141.5243682861328,141.5246124267578,141.5245819091797,0,0,46.68000030517578,1,1,1839,1841
137.14850800,137148508,0,31.48286247253418,31.48775291442871,31.48902702331543,141.52439880371094,141.5245361328125,141.52455139160156,0,0,46.68000030517578,1,1,1839,1841
137.15114800,137151148,0,31.48286247253418,31.48775291442871,31.48902702331543,141.52439880371094,141.5246124267578,141.52462768554688,0,0,46.68000030517578,1,1,1839,1841
137.15360300,137153603,0,31.482864379882812,31.48775291442871,31.489028930664062,141.52439880371094,141.52452087402344,141.52452087402344,0,0,46.68000030517578,1,1,1839,1841
137.15605000,137156050,0,31.48287010192871,31.487760543823242,31.48902702331543,141.5243682861328,141.5246124267578,141.52462768554688,0,0,46.68000030517578,1,1,1839,1841
137.15866800,137158668,0,31.48287010192871,31.487760543823242,31.48902702331543,141.5243682861328,141.52455139160156,141.5245361328125,0,0,46.68000030517578,1,1,1839,1841
137.16098600,137160986,0,31.482868194580078,31.48775863647461,31.489028930664062,141.5243682861328,141.5245819091797,141.5246124267578,0,0,46.68000030517578,1,1,1839,1841
137.16354900,137163549,0,31.48286247253418,31.48775291442871,31.48902702331543,141.52439880371094,141.52455139160156,141.5245361328125,0,0,46.68000030517578,1,1,1839,1841
137.16610900,137166109,0,31.48286247253418,31.48775291442871,31.48902702331543,141.52439880371094,141.5245361328125,141.52455139160156,0,0,46.68000030517578,1,1,1839,1841
137.16848800,137168488,0,31.482864379882812,31.48775291442871,31.489028930664062,141.52439880371094,141.5246124267578,141.5245819091797,0,0,46.68000030517578,1,1,1839,1841
137.17105200,137171052,0,31.48287010192871,31.487760543823242,31.48902702331543,141.5243682861328,141.5245361328125,141.52455139160156,0,0,46.68000030517578,1,1,1839,1841
137.17362300,137173623,0,31.48287010192871,31.487760543823242,31.48902702331543,141.5243682861328,141.5246124267578,141.52462768554688,0,0,46.68000030517578,1,1,1839,1841
137.17599200,137175992,0,31.482868194580078,31.48775863647461,31.489028930664062,141.5243682861328,141.52452087402344,141.52452087402344,0,0,46.68000030517578,1,1,1839,1841
137.17856900,137178569,0,31.48286247253418,31.48775291442871,31.48902702331543,141.52439880371094,141.5246124267578,141.52462768554688,0,0,46.68000030517578,1,1,1839,1841
137.18098000,137180980,0,31.48286247253418,31.48775291442871,31.48902702331543,141.52439880371094,141.5245361328125,141.52452087402344,0,0,46.68000030517578,1,1,1839,1841
137.18370700,137183707,0,31.482864379882812,31.48775291442871,31.489028930664062,141.52439880371094,141.5245819091797,141.5246124267578,0,0,46.68000030517578,1,1,1839,1841
137.18605000,137186050,0,31.48287010192871,31.487760543823242,31.48902702331543,141.5243682861328,141.52455139160156,141.5245361328125,0,0,46.68000030517578,1,1,1839,1841
137.18850800,137188508,0,31.482868194580078,31.48775863647461,31.48902702331543,141.5243682861328,141.5245819091797,141.5246124267578,0,0,46.68000030517578,1,1,1839,1841
137.19117000,137191170,0,31.482868194580078,31.48775863647461,31.489028930664062,141.5243682861328,141.5246124267578,141.5245819091797,0,0,46.68000030517578,1,1,1839,1841
137.19354500,137193545,0,31.48286247253418,31.48775291442871,31.48902702331543,141.52439880371094,141.5245361328125,141.52455139160156,0,0,46.68000030517578,1,1,1839,1841
137.19601000,137196010,0,31.482864379882812,31.48775291442871,31.489028930664062,141.52439880371094,141.5246124267578,141.5245819091797,0,0,46.68000030517578,1,1,1839,1841
137.19873700,137198737,0,31.482864379882812,31.48775291442871,31.489028930664062,141.52439880371094,141.52452087402344,141.52452087402344,0,0,46.68000030517578,1,1,1839,1841
137.20100700,137201007,0,31.48287010192871,31.487760543823242,31.48902702331543,141.5243682861328,141.5246124267578,141.52462768554688,0,0,46.68000030517578,1,1,1839,1841
137.20353100,137203531,0,31.482868194580078,31.48775863647461,31.489028930664062,141.5243682861328,141.52452087402344,141.52452087402344,0,0,46.68000030517578,1,1,1839,1841
137.20610900,137206109,0,31.482868194580078,31.48775863647461,31.489028930664062,141.5243682861328,141.5245819091797,141.5246124267578,0,0,46.68000030517578,1,1,1839,1841
137.20849300,137208493,0,31.48286247253418,31.48775291442871,31.48902702331543,141.52439880371094,141.52455139160156,141.5245361328125,0,0,46.68000030517578,1,1,1839,1841
137.21104400,137211044,0,31.482864379882812,31.48775291442871,31.489028930664062,141.52439880371094,141.5245819091797,141.5246124267578,0,0,46.68000030517578,1,1,1839,1841
137.21373700,137213737,0,31.482864379882812,31.48775291442871,31.489028930664062,141.52439880371094,141.5246124267578,141.5245819091797,0,0,46.68000030517578,1,1,1839,1841
137.21597600,137215976,0,31.48287010192871,31.487760543823242,31.48902702331543,141.5243682861328,141.5245361328125,141.52455139160156,0,0,46.68000030517578,1,1,1839,1841
137.21858500,137218585,0,31.482868194580078,31.48775863647461,31.489028930664062,141.5243682861328,141.5246124267578,141.5245819091797,0,0,46.68000030517578,1,1,1839,1841
137.22097400,137220974,0,31.482864379882812,31.487754821777344,31.489028930664062,141.52439880371094,141.52452087402344,141.5245361328125,0,0,46.68000030517578,1,1,1839,1841
137.22384200,137223842,0,31.48286247253418,31.48775291442871,31.48902702331543,141.52439880371094,141.5246124267578,141.52462768554688,0,0,46.68000030517578,1,1,1839,1841
137.22604300,137226043,0,31.482864379882812,31.48775291442871,31.489028930664062,141.52439880371094,141.52452087402344,141.52452087402344,0,0,46.68000030517578,1,1,1839,1841
137.22850600,137228506,0,31.482868194580078,31.48775863647461,31.489028930664062,141.5243682861328,141.5246124267578,141.52462768554688,0,0,46.68000030517578,1,1,1839,1841
137.23120300,137231203,0,31.48287010192871,31.487760543823242,31.48902702331543,141.5243682861328,141.52455139160156,141.5245361328125,0,0,46.68000030517578,1,1,1839,1841
137.23355700,137233557,0,31.482868194580078,31.48775863647461,31.489028930664062,141.5243682861328,141.5245819091797,141.5246124267578,0,0,46.68000030517578,1,1,1839,1841
137.23601300,137236013,0,31.48286247253418,31.48775291442871,31.48902702331543,141.52439880371094,141.52455139160156,141.5245361328125,0,0,46.68000030517578,1,1,1839,1841
137.23881400,137238814,0,31.48286247253418,31.48775291442871,31.48902702331543,141.52439880371094,141.5245361328125,141.52455139160156,0,0,46.68000030517578,1,1,1839,1841
137.24104700,137241047,0,31.482864379882812,31.48775291442871,31.489028930664062,141.52439880371094,141.5246124267578,141.5245819091797,0,0,46.68000030517578,1,1,1839,1841
137.24352600,137243526,0,31.48287010192871,31.487760543823242,31.48902702331543,141.5243682861328,141.5245361328125,141.52455139160156,0,0,46.68000030517578,1,1,1839,1841
137.24640600,137246406,0,31.48287010192871,31.487760543823242,31.48902702331543,141.5243682861328,141.5246124267578,141.52462768554688,0,0,46.68000030517578,1,1,1839,1841
137.24861300,137248613,0,31.482868194580078,31.48775863647461,31.489028930664062,141.5243682861328,141.52452087402344,141.52452087402344,0,0,46.68000030517578,1,1,1839,1841
137.25104900,137251049,0,31.48286247253418,31.48775291442871,31.48902702331543,141.52439880371094,141.5246124267578,141.52462768554688,0,0,46.68000030517578,1,1,1839,1841
137.25360600,137253606,0,31.48286247253418,31.48775291442871,31.48902702331543,141.52439880371094,141.52455139160156,141.5245361328125,0,0,46.68000030517578,1,1,1839,1841
137.25598400,137255984,0,31.482864379882812,31.48775291442871,31.489028930664062,141.52439880371094,141.5245819091797,141.5246124267578,0,0,46.68000030517578,1,1,1839,1841
137.25857300,137258573,0,31.48287010192871,31.487760543823242,31.48902702331543,141.5243682861328,141.52455139160156,141.5245361328125,0,0,46.68000030517578,1,1,1839,1841
137.26112000,137261120,0,31.48287010192871,31.487760543823242,31.48902702331543,141.5243682861328,141.5245361328125,141.52455139160156,0,0,46.68000030517578,1,1,1839,1841
137.26348600,137263486,0,31.482868194580078,31.48775863647461,31.489028930664062,141.5243682861328,141.5246124267578,141.5245819091797,0,0,46.68000030517578,1,1,1839,1841
137.26604700,137266047,0,31.48286247253418,31.48775291442871,31.48902702331543,141.52439880371094,141.5245361328125,141.52455139160156,0,0,46.68000030517578,1,1,1839,1841
137.26863000,137268630,0,31.48286247253418,31.48775291442871,31.48902702331543,141.52439880371094,141.52462768554688,141.5246124267578,0,0,46.68000030517578,1,1,1839,1841
137.27099300,137270993,0,31.482864379882812,31.48775291442871,31.489028930664062,141.52439880371094,141.52452087402344,141.52452087402344,0,0,46.68000030517578,1,1,1839,1841
137.27354400,137273544,0,31.48287010192871,31.487760543823242,31.48902702331543,141.5243682861328,141.5246124267578,141.52462768554688,0,0,46.68000030517578,1,1,1839,1841
137.27598900,137275989,0,31.482868194580078,31.48775863647461,31.48902702331543,141.52435302734375,141.5245361328125,141.52452087402344,0,0,46.68000030517578,1,1,1839,1841
137.27873100,137278731,0,31.482868194580078,31.48775863647461,31.489028930664062,141.5243682861328,141.5245819091797,141.5246124267578,0,0,46.68000030517578,1,1,1839,1841
137.28104900,137281049,0,31.48286247253418,31.48775291442871,31.48902702331543,141.52439880371094,141.52455139160156,141.5245361328125,0,0,46.68000030517578,1,1,1839,1841
137.28351200,137283512,0,31.48286247253418,31.48775291442871,31.48902702331543,141.52439880371094,141.5245819091797,141.5246124267578,0,0,46.68000030517578,1,1,1839,1841
137.28616700,137286167,0,31.482864379882812,31.48775291442871,31.489028930664062,141.52439880371094,141.5246124267578,141.5245819091797,0,0,46.68000030517578,1,1,1839,1841
137.28855800,137288558,0,31.48287010192871,31.487760543823242,31.48902702331543,141.5243682861328,141.5245361328125,141.52455139160156,0,0,46.68000030517578,1,1,1839,1841
137.29100300,137291003,0,31.482868194580078,31.48775863647461,31.489028930664062,141.5243682861328,141.5246124267578,141.5245819091797,0,0,46.68000030517578,1,1,1839,1841
137.29371000,137293710,0,31.482868194580078,31.48775863647461,31.489028930664062,141.5243682861328,141.52452087402344,141.52452087402344,0,0,46.68000030517578,1,1,1839,1841
137.29604200,137296042,0,31.48286247253418,31.48775291442871,31.48902702331543,141.52439880371094,141.5246124267578,141.52462768554688,0,0,46.68000030517578,1,1,1839,1841
137.29856100,137298561,0,31.482864379882812,31.48775291442871,31.489028930664062,141.52439880371094,141.52452087402344,141.52452087402344,0,0,46.68000030517578,1,1,1839,1841
137.30110700,137301107,0,31.482864379882812,31.48775291442871,31.489028930664062,141.52439880371094,141.5245819091797,141.5246124267578,0,0,46.68000030517578,1,1,1839,1841
137.30349900,137303499,0,31.48287010192871,31.487760543823242,31.48902702331543,141.5243682861328,141.52455139160156,141.5245361328125,0,0,46.68000030517578,1,1,1839,1841
137.30603000,137306030,0,31.482868194580078,31.48775863647461,31.489028930664062,141.5243682861328,141.5245819091797,141.5246124267578,0,0,46.68000030517578,1,1,1839,1841
137.30863400,137308634,0,31.482868194580078,31.48775863647461,31.489028930664062,141.5243682861328,141.5246124267578,141.5245819091797,0,0,46.68000030517578,1,1,1839,1841
137.31098700,137310987,0,31.48286247253418,31.48775291442871,31.48902702331543,141.52439880371094,141.5245361328125,141.52455139160156,0,0,46.68000030517578,1,1,1839,1841
137.31355700,137313557,0,31.482864379882812,31.48775291442871,31.489028930664062,141.52439880371094,141.5246124267578,141.5245819091797,0,0,46.68000030517578,1,1,1839,1841
137.31611800,137316118,0,31.482864379882812,31.48775291442871,31.489028930664062,141.52439880371094,141.52452087402344,141.52452087402344,0,0,46.68000030517578,1,1,1839,1841
137.31852300,137318523,0,31.48287010192871,31.487760543823242,31.48902702331543,141.5243682861328,141.5246124267578,141.52462768554688,0,0,46.68000030517578,1,1,1839,1841
137.32110300,137321103,0,31.482868194580078,31.48775863647461,31.489028930664062,141.5243682861328,141.52452087402344,141.52452087402344,0,0,46.68000030517578,1,1,1839,1841
137.32365300,137323653,0,31.48286247253418,31.48775291442871,31.48902702331543,141.52439880371094,141.5246124267578,141.52462768554688,0,0,46.68000030517578,1,1,1839,1841
137.32614200,137326142,0,31.48286247253418,31.48775291442871,31.48902702331543,141.52439880371094,141.52455139160156,141.5245361328125,0,0,46.68000030517578,1,1,1839,1841
137.32855600,137328556,0,31.482864379882812,31.48775291442871,31.489028930664062,141.52439880371094,141.5245819091797,141.5246124267578,0,0,46.68000030517578,1,1,1839,1841
137.33101700,137331017,0,31.48287010192871,31.487760543823242,31.48902702331543,141.5243682861328,141.52455139160156,141.5245361328125,0,0,46.68000030517578,1,1,1839,1841
137.33365100,137333651,0,31.48287010192871,31.487760543823242,31.48902702331543,141.5243682861328,141.5245361328125,141.52455139160156,0,0,46.68000030517578,1,1,1839,1841
137.33597200,137335972,0,31.482868194580078,31.48775863647461,31.489028930664062,141.5243682861328,141.5246124267578,141.5245819091797,0,0,46.68000030517578,1,1,1839,1841
137.33865400,137338654,0,31.48286247253418,31.48775291442871,31.48902702331543,141.52439880371094,141.5245361328125,141.52455139160156,0,0,46.68000030517578,1,1,1839,1841
137.34139500,137341395,0,31.48286247253418,31.48775291442871,31.48902702331543,141.52439880371094,141.5246124267578,141.52462768554688,0,0,46.68000030517578,1,1,1839,1841
137.34349800,137343498,0,31.482864379882812,31.48775291442871,31.489028930664062,141.52439880371094,141.52452087402344,141.52452087402344,0,0,46.68000030517578,1,1,1839,1841
137.34603500,137346035,0,31.48287010192871,31.487760543823242,31.48902702331543,141.5243682861328,141.5246124267578,141.52462768554688,0,0,46.68000030517578,1,1,1839,1841
137.34863500,137348635,0,31.48287010192871,31.487760543823242,31.48902702331543,141.5243682861328,141.52455139160156,141.5245361328125,0,0,46.68000030517578,1,1,1839,1841
137.35097700,137350977,0,31.482868194580078,31.48775863647461,31.489028930664062,141.5243682861328,141.5245819091797,141.5246124267578,0,0,46.68000030517578,1,1,1839,1841
137.35354500,137353545,0,31.48286247253418,31.48775291442871,31.48902702331543,141.52439880371094,141.52455139160156,141.5245361328125,0,0,46.68000030517578,1,1,1839,1841
137.35631200,137356312,0,31.48286247253418,31.48775291442871,31.48902702331543,141.52439880371094,141.52455139160156,141.5245819091797,0,0,46.68000030517578,1,1,1839,1841
137.35882900,137358829,0,31.482864379882812,31.48775291442871,31.489028930664062,141.52439880371094,141.5246124267578,141.5245819091797,0,0,46.68000030517578,1,1,1839,1841
137.36105200,137361052,0,31.48287010192871,31.487760543823242,31.48902702331543,141.5243682861328,141.5245361328125,141.52455139160156,0,0,46.68000030517578,1,1,1839,1841
137.36351700,137363517,0,31.482868194580078,31.48775863647461,31.489028930664062,141.5243682861328,141.5246124267578,141.5245819091797,0,0,46.68000030517578,1,1,1839,1841
137.36620600,137366206,0,31.482868194580078,31.48775863647461,31.489028930664062,141.5243682861328,141.52452087402344,141.52452087402344,0,0,46.68000030517578,1,1,1839,1841
137.36854700,137368547,0,31.48286247253418,31.48775291442871,31.48902702331543,141.52439880371094,141.5246124267578,141.52462768554688,0,0,46.68000030517578,1,1,1839,1841
137.37102200,137371022,0,31.482864379882812,31.48775291442871,31.489028930664062,141.52439880371094,141.52452087402344,141.52452087402344,0,0,46.68000030517578,1,1,1839,1841
137.37360800,137373608,0,31.482864379882812,31.48775291442871,31.489028930664062,141.52439880371094,141.5245819091797,141.5246124267578,0,0,46.68000030517578,1,1,1839,1841
137.37597900,137375979,0,31.48287010192871,31.487760543823242,31.48902702331543,141.5243682861328,141.52455139160156,141.5245361328125,0,0,46.68000030517578,1,1,1839,1841
137.37857900,137378579,0,31.482868194580078,31.48775863647461,31.489028930664062,141.5243682861328,141.5245819091797,141.5246124267578,0,0,46.68000030517578,1,1,1839,1841
137.38111200,137381112,0,31.482868194580078,31.48775863647461,31.489028930664062,141.5243682861328,141.5246124267578,141.5245819091797,0,0,46.68000030517578,1,1,1839,1841
137.38349300,137383493,0,31.48286247253418,31.48775291442871,31.48902702331543,141.52439880371094,141.5245361328125,141.52455139160156,0,0,46.68000030517578,1,1,1839,1841
137.38604800,137386048,0,31.482864379882812,31.48775291442871,31.489028930664062,141.52439880371094,141.5246124267578,141.5245819091797,0,0,46.68000030517578,1,1,1839,1841
137.38864200,137388642,0,31.482864379882812,31.48775291442871,31.489028930664062,141.5243682861328,141.52452087402344,141.5245361328125,0,0,46.68000030517578,1,1,1839,1841
137.39098100,137390981,0,31.48287010192871,31.487760543823242,31.48902702331543,141.5243682861328,141.5246124267578,141.52462768554688,0,0,46.68000030517578,1,1,1839,1841
137.39354200,137393542,0,31.482868194580078,31.48775863647461,31.489028930664062,141.5243682861328,141.52452087402344,141.52452087402344,0,0,46.68000030517578,1,1,1839,1841
137.39614000,137396140,0,31.482868194580078,31.48775863647461,31.489028930664062,141.52439880371094,141.5246124267578,141.5246124267578,0,0,46.68000030517578,1,1,1839,1841
137.39851400,137398514,0,31.48286247253418,31.48775291442871,31.48902702331543,141.52439880371094,141.52455139160156,141.5245361328125,0,0,46.68000030517578,1,1,1839,1841
137.40105400,137401054,0,31.482864379882812,31.48775291442871,31.489028930664062,141.52439880371094,141.5245819091797,141.5246124267578,0,0,46.68000030517578,1,1,1839,1841
137.40350500,137403505,0,31.482868194580078,31.48775863647461,31.489028930664062,141.5243682861328,141.52455139160156,141.5245361328125,0,0,46.68000030517578,1,1,1839,1841
137.40620800,137406208,0,31.48287010192871,31.487760543823242,31.48902702331543,141.5243682861328,141.5245361328125,141.52455139160156,0,0,46.68000030517578,1,1,1839,1841
137.40855300,137408553,0,31.482868194580078,31.48775863647461,31.489028930664062,141.5243682861328,141.5246124267578,141.5245819091797,0,0,46.68000030517578,1,1,1839,1841
137.41100400,137411004,0,31.48286247253418,31.48775291442871,31.48902702331543,141.52439880371094,141.5245361328125,141.52455139160156,0,0,46.68000030517578,1,1,1839,1841
137.41367400,137413674,0,31.48286247253418,31.48775291442871,31.48902702331543,141.52439880371094,141.5246124267578,141.52462768554688,0,0,46.68000030517578,1,1,1839,1841
137.41603900,137416039,0,31.482864379882812,31.48775291442871,31.489028930664062,141.52439880371094,141.52452087402344,141.52452087402344,0,0,46.68000030517578,1,1,1839,1841
137.41857400,137418574,0,31.48287010192871,31.487760543823242,31.48902702331543,141.5243682861328,141.5246124267578,141.52462768554688,0,0,46.68000030517578,1,1,1839,1841
137.42110600,137421106,0,31.48287010192871,31.487760543823242,31.48902702331543,141.5243682861328,141.52455139160156,141.5245361328125,0,0,46.68000030517578,1,1,1839,1841
137.42369200,137423692,0,31.482868194580078,31.48775863647461,31.489028930664062,141.5243682861328,141.5245819091797,141.5246124267578,0,0,46.68000030517578,1,1,1839,1841
137.42603900,137426039,0,31.48286247253418,31.48775291442871,31.48902702331543,141.52439880371094,141.52455139160156,141.5245361328125,0,0,46.68000030517578,1,1,1839,1841
137.42862800,137428628,0,31.48286247253418,31.48775291442871,31.48902702331543,141.52439880371094,141.5245361328125,141.52455139160156,0,0,46.68000030517578,1,1,1839,1841
137.43097300,137430973,0,31.482864379882812,31.48775291442871,31.489028930664062,141.52439880371094,141.5246124267578,141.5245819091797,0,0,46.68000030517578,1,1,1839,1841
137.43356400,137433564,0,31.48287010192871,31.487760543823242,31.48902702331543,141.5243682861328,141.5245361328125,141.52455139160156,0,0,46.68000030517578,1,1,1839,1841
137.43610600,137436106,0,31.48287010192871,31.487760543823242,31.48902702331543,141.5243682861328,141.5246124267578,141.52462768554688,0,0,46.68000030517578,1,1,1839,1841
137.43861800,137438618,0,31.482868194580078,31.48775863647461,31.489028930664062,141.5243682861328,141.52452087402344,141.52452087402344,0,0,46.68000030517578,1,1,1839,1841
137.44104600,137441046,0,31.48286247253418,31.48775291442871,31.48902702331543,141.52439880371094,141.5246124267578,141.52462768554688,0,0,46.68000030517578,1,1,1839,1841
137.44349200,137443492,0,31.48286247253418,31.48775291442871,31.48902702331543,141.52439880371094,141.5245361328125,141.52452087402344,0,0,46.68000030517578,1,1,1839,1841
137.44639100,137446391,0,31.482864379882812,31.48775291442871,31.489028930664062,141.52439880371094,141.5245819091797,141.5246124267578,0,0,46.68000030517578,1,1,1839,1841
137.44856100,137448561,0,31.48287010192871,31.487760543823242,31.48902702331543,141.5243682861328,141.52455139160156,141.5245361328125,0,0,46.68000030517578,1,1,1839,1841
137.45098800,137450988,0,31.482868194580078,31.48775863647461,31.48902702331543,141.5243682861328,141.5245819091797,141.5246124267578,0,0,46.68000030517578,1,1,1839,1841
137.45366600,137453666,0,31.482868194580078,31.48775863647461,31.489028930664062,141.5243682861328,141.5246124267578,141.5245819091797,0,0,46.68000030517578,1,1,1839,1841
137.45604100,137456041,0,31.48286247253418,31.48775291442871,31.48902702331543,141.52439880371094,141.5245361328125,141.52455139160156,0,0,46.68000030517578,1,1,1839,1841
137.45854300,137458543,0,31.482864379882812,31.48775291442871,31.489028930664062,141.52439880371094,141.5246124267578,141.5245819091797,0,0,46.68000030517578,1,1,1839,1841
137.46114300,137461143,0,31.482864379882812,31.48775291442871,31.489028930664062,141.52439880371094,141.52452087402344,141.52452087402344,0,0,46.68000030517578,1,1,1839,1841
137.46350700,137463507,0,31.48287010192871,31.487760543823242,31.48902702331543,141.5243682861328,141.5246124267578,141.52462768554688,0,0,46.68000030517578,1,1,1839,1841
137.46601800,137466018,0,31.482868194580078,31.48775863647461,31.489028930664062,141.5243682861328,141.52452087402344,141.52452087402344,0,0,46.68000030517578,1,1,1839,1841
137.46862700,137468627,0,31.482868194580078,31.48775863647461,31.489028930664062,141.5243682861328,141.5245819091797,141.5246124267578,0,0,46.68000030517578,1,1,1839,1841
137.47098600,137470986,0,31.48286247253418,31.48775291442871,31.48902702331543,141.52439880371094,141.52455139160156,141.5245361328125,0,0,46.68000030517578,1,1,1839,1841
137.47354300,137473543,0,31.482864379882812,31.48775291442871,31.489028930664062,141.52439880371094,141.5245819091797,141.5246124267578,0,0,46.68000030517578,1,1,1839,1841
137.47611500,137476115,0,31.482864379882812,31.48775291442871,31.489028930664062,141.52439880371094,141.5246124267578,141.5245819091797,0,0,46.68000030517578,1,1,1839,1841
137.47851100,137478511,0,31.48287010192871,31.487760543823242,31.48902702331543,141.5243682861328,141.5245361328125,141.52455139160156,0,0,46.68000030517578,1,1,1839,1841
137.48104800,137481048,0,31.482868194580078,31.48775863647461,31.489028930664062,141.5243682861328,141.5246124267578,141.5245819091797,0,0,46.68000030517578,1,1,1839,1841
137.48363100,137483631,0,31.482868194580078,31.48775863647461,31.489028930664062,141.52439880371094,141.52452087402344,141.5245361328125,0,0,46.68000030517578,1,1,1839,1841
137.48599000,137485990,0,31.48286247253418,31.48775291442871,31.48902702331543,141.52439880371094,141.5246124267578,141.52462768554688,0,0,46.68000030517578,1,1,1839,1841
137.48854800,137488548,0,31.482864379882812,31.48775291442871,31.489028930664062,141.52439880371094,141.52452087402344,141.52452087402344,0,0,46.68000030517578,1,1,1839,1841
137.49099100,137490991,0,31.482868194580078,31.48775863647461,31.489028930664062,141.5243682861328,141.5246124267578,141.52462768554688,0,0,46.68000030517578,1,1,1839,1841
137.49365500,137493655,0,31.48287010192871,31.487760543823242,31.48902702331543,141.5243682861328,141.52455139160156,141.5245361328125,0,0,46.68000030517578,1,1,1839,1841
137.49605400,137496054,0,31.482868194580078,31.48775863647461,31.489028930664062,141.5243682861328,141.5245819091797,141.5246124267578,0,0,46.68000030517578,1,1,1839,1841
137.49853500,137498535,0,31.482864379882812,31.487754821777344,31.489028930664062,141.52439880371094,141.52455139160156,141.5245361328125,0,0,46.68000030517578,1,1,1839,1841
137.50130600,137501306,0,31.48286247253418,31.48775291442871,31.48902702331543,141.52439880371094,141.5245361328125,141.52455139160156,0,0,46.68000030517578,1,1,1839,1841
137.50354800,137503548,0,31.482864379882812,31.48775291442871,31.489028930664062,141.52439880371094,141.5246124267578,141.5245819091797,0,0,46.68000030517578,1,1,1839,1841
137.50601600,137506016,0,31.48287010192871,31.487760543823242,31.48902702331543,141.5243682861328,141.5245361328125,141.52455139160156,0,0,46.68000030517578,1,1,1839,1841
137.50864600,137508646,0,31.48287010192871,31.487760543823242,31.48902702331543,141.5243682861328,141.5246124267578,141.52462768554688,0,0,46.68000030517578,1,1,1839,1841
137.51104800,137511048,0,31.482868194580078,31.48775863647461,31.489028930664062,141.5243682861328,141.52452087402344,141.52452087402344,0,0,46.68000030517578,1,1,1839,1843
137.51352300,137513523,0,31.48286247253418,31.48775291442871,31.48902702331543,141.52439880371094,141.5246124267578,141.52462768554688,0,0,46.68000030517578,1,1,1841,1843
137.51614100,137516141,0,31.48286247253418,31.48775291442871,31.48902702331543,141.52439880371094,141.52455139160156,141.5245361328125,0,0,46.68000030517578,1,1,1841,1843
137.51852600,137518526,0,31.482864379882812,31.48775291442871,31.489028930664062,141.52439880371094,141.5245819091797,141.5246124267578,0,0,46.68000030517578,1,1,1841,1843
137.52104000,137521040,0,31.48287010192871,31.487760543823242,31.48902702331543,141.5243682861328,141.52455139160156,141.5245361328125,0,0,46.68000030517578,1,1,1841,1843
137.52385100,137523851,0,31.48287010192871,31.487760543823242,31.48902702331543,141.5243682861328,141.5245361328125,141.52455139160156,0,0,46.68000030517578,1,1,1841,1843
137.52597700,137525977,0,31.482868194580078,31.48775863647461,31.489028930664062,141.5243682861328,141.5246124267578,141.5245819091797,0,0,46.68000030517578,1,1,1841,1843
137.52855600,137528556,0,31.48286247253418,31.48775291442871,31.48902702331543,141.52439880371094,141.5245361328125,141.52455139160156,0,0,46.68000030517578,1,1,1841,1843
137.53111400,137531114,0,31.48286247253418,31.48775291442871,31.48902702331543,141.52439880371094,141.5246124267578,141.52462768554688,0,0,46.68000030517578,1,1,1841,1843
137.53349900,137533499,0,31.482864379882812,31.48775291442871,31.489028930664062,141.52439880371094,141.52452087402344,141.52452087402344,0,0,46.68000030517578,1,1,1841,1843
137.53604400,137536044,0,31.48287010192871,31.487760543823242,31.48902702331543,141.5243682861328,141.5246124267578,141.52462768554688,0,0,46.68000030517578,1,1,1841,1843
137.53877600,137538776,0,31.48287010192871,31.487760543823242,31.48902702331543,141.52435302734375,141.5245361328125,141.52452087402344,0,0,46.68000030517578,1,1,1841,1843
137.54096400,137540964,0,31.482868194580078,31.48775863647461,31.489028930664062,141.5243682861328,141.5245819091797,141.5246124267578,0,0,46.68000030517578,1,1,1841,1843
137.54355000,137543550,0,31.48286247253418,31.48775291442871,31.48902702331543,141.52439880371094,141.52455139160156,141.5245361328125,0,0,46.68000030517578,1,1,1841,1843
137.54598700,137545987,0,31.48286247253418,31.48775291442871,31.48902702331543,141.52439880371094,141.5245819091797,141.5246124267578,0,0,46.68000030517578,1,1,1841,1843
137.54890300,137548903,0,31.482864379882812,31.48775291442871,31.489028930664062,141.52439880371094,141.5246124267578,141.5245819091797,0,0,46.68000030517578,1,1,1841,1843
137.55104500,137551045,0,31.48287010192871,31.487760543823242,31.48902702331543,141.5243682861328,141.5245361328125,141.52455139160156,0,0,46.68000030517578,1,1,1841,1843
137.55352000,137553520,0,31.482868194580078,31.48775863647461,31.489028930664062,141.5243682861328,141.5246124267578,141.5245819091797,0,0,46.68000030517578,1,1,1841,1843
137.55612800,137556128,0,31.482868194580078,31.48775863647461,31.489028930664062,141.5243682861328,141.52452087402344,141.52452087402344,0,0,46.68000030517578,1,1,1841,1843
137.55858300,137558583,0,31.48286247253418,31.48775291442871,31.48902702331543,141.52439880371094,141.5246124267578,141.52462768554688,0,0,46.68000030517578,1,1,1841,1843
137.56101500,137561015,0,31.482864379882812,31.48775291442871,31.489028930664062,141.52439880371094,141.52452087402344,141.52452087402344,0,0,46.68000030517578,1,1,1841,1843
137.56366400,137563664,0,31.482864379882812,31.48775291442871,31.489028930664062,141.52439880371094,141.5245819091797,141.5246124267578,0,0,46.68000030517578,1,1,1841,1843
137.56599700,137565997,0,31.48287010192871,31.487760543823242,31.48902702331543,141.5243682861328,141.52455139160156,141.5245361328125,0,0,46.68000030517578,1,1,1841,1843
137.56854400,137568544,0,31.482868194580078,31.48775863647461,31.489028930664062,141.5243682861328,141.5245819091797,141.5246124267578,0,0,46.68000030517578,1,1,1841,1843
137.57110200,137571102,0,31.482868194580078,31.48775863647461,31.489028930664062,141.5243682861328,141.5246124267578,141.5245819091797,0,0,46.68000030517578,1,1,1841,1843
137.57347700,137573477,0,31.48286247253418,31.48775291442871,31.48902702331543,141.52439880371094,141.5245361328125,141.52455139160156,0,0,46.68000030517578,1,1,1841,1843
137.57604800,137576048,0,31.482864379882812,31.48775291442871,31.489028930664062,141.52439880371094,141.5246124267578,141.5245819091797,0,0,46.68000030517578,1,1,1841,1843
137.57849500,137578495,0,31.482868194580078,31.48775863647461,31.489028930664062,141.5243682861328,141.52452087402344,141.5245361328125,0,0,46.68000030517578,1,1,1841,1843
137.58120800,137581208,0,31.48287010192871,31.487760543823242,31.48902702331543,141.5243682861328,141.5246124267578,141.52462768554688,0,0,46.68000030517578,1,1,1841,1843
137.58354900,137583549,0,31.482868194580078,31.48775863647461,31.489028930664062,141.5243682861328,141.52452087402344,141.52452087402344,0,0,46.68000030517578,1,1,1841,1843
137.58600100,137586001,0,31.482864379882812,31.487754821777344,31.489028930664062,141.52439880371094,141.5246124267578,141.52462768554688,0,0,46.68000030517578,1,1,1841,1843
137.58866700,137588667,0,31.48286247253418,31.48775291442871,31.48902702331543,141.52439880371094,141.52455139160156,141.5245361328125,0,0,46.68000030517578,1,1,1841,1843
137.59105000,137591050,0,31.482864379882812,31.48775291442871,31.489028930664062,141.52439880371094,141.5245819091797,141.5246124267578,0,0,46.68000030517578,1,1,1841,1843
137.59351000,137593510,0,31.48287010192871,31.487760543823242,31.48902702331543,141.5243682861328,141.52455139160156,141.5245361328125,0,0,46.68000030517578,1,1,1841,1843
137.59614700,137596147,0,31.48287010192871,31.487760543823242,31.48902702331543,141.5243682861328,141.5245361328125,141.52455139160156,0,0,46.68000030517578,1,1,1841,1843
137.59852600,137598526,0,31.482868194580078,31.48775863647461,31.489028930664062,141.5243682861328,141.5246124267578,141.5245819091797,0,0,46.68000030517578,1,1,1841,1843
137.60103100,137601031,0,31.48286247253418,31.48775291442871,31.48902702331543,141.52439880371094,141.5245361328125,141.52455139160156,0,0,46.68000030517578,1,1,1841,1843
137.60363700,137603637,0,31.48286247253418,31.48775291442871,31.48902702331543,141.52439880371094,141.5246124267578,141.52462768554688,0,0,46.68000030517578,1,1,1841,1843
137.60604900,137606049,0,31.482864379882812,31.48775291442871,31.489028930664062,141.52439880371094,141.52452087402344,141.52452087402344,0,0,46.68000030517578,1,1,1841,1843
137.60885300,137608853,0,31.48287010192871,31.487760543823242,31.48902702331543,141.5243682861328,141.5246124267578,141.52462768554688,0,0,46.68000030517578,1,1,1841,1843
137.61126200,137611262,0,31.48287010192871,31.487760543823242,31.48902702331543,141.5243682861328,141.52455139160156,141.5245361328125,0,0,46.68000030517578,1,1,1841,1843
137.61348100,137613481,0,31.482868194580078,31.48775863647461,31.489028930664062,141.5243682861328,141.5245819091797,141.5246124267578,0,0,46.68000030517578,1,1,1841,1843
137.61605200,137616052,0,31.48286247253418,31.48775291442871,31.48902702331543,141.52439880371094,141.52455139160156,141.5245361328125,0,0,46.68000030517578,1,1,1841,1843
137.61866200,137618662,0,31.48286247253418,31.48775291442871,31.48902702331543,141.52439880371094,141.5245361328125,141.52455139160156,0,0,46.68000030517578,1,1,1841,1843
137.62096500,137620965,0,31.482864379882812,31.48775291442871,31.489028930664062,141.52439880371094,141.5246124267578,141.5245819091797,0,0,46.68000030517578,1,1,1841,1843
137.62367400,137623674,0,31.48287010192871,31.487760543823242,31.48902702331543,141.5243682861328,141.5245361328125,141.52455139160156,0,0,46.68000030517578,1,1,1841,1843
137.62598000,137625980,0,31.482868194580078,31.48775863647461,31.48902702331543,141.52435302734375,141.52462768554688,141.5246124267578,0,0,46.68000030517578,1,1,1841,1843
137.62866800,137628668,0,31.482868194580078,31.48775863647461,31.489028930664062,141.5243682861328,141.52452087402344,141.52452087402344,0,0,46.68000030517578,1,1,1841,1843
137.63104500,137631045,0,31.48286247253418,31.48775291442871,31.48902702331543,141.52439880371094,141.5246124267578,141.52462768554688,0,0,46.68000030517578,1,1,1841,1843
137.63352000,137633520,0,31.482864379882812,31.48775291442871,31.489028930664062,141.52439880371094,141.52452087402344,141.52452087402344,0,0,46.68000030517578,1,1,1841,1843
137.63613800,137636138,0,31.482864379882812,31.48775291442871,31.489028930664062,141.52439880371094,141.5245819091797,141.5246124267578,0,0,46.68000030517578,1,1,1841,1843
137.63869300,137638693,0,31.48287010192871,31.487760543823242,31.48902702331543,141.5243682861328,141.52455139160156,141.5245361328125,0,0,46.68000030517578,1,1,1841,1843
137.64102500,137641025,0,31.482868194580078,31.48775863647461,31.489028930664062,141.5243682861328,141.5245819091797,141.5246124267578,0,0,46.68000030517578,1,1,1841,1843
137.64399400,137643994,0,31.482868194580078,31.48775863647461,31.489028930664062,141.5243682861328,141.5246124267578,141.5245819091797,0,0,46.68000030517578,1,1,1841,1843
137.64596200,137645962,0,31.48286247253418,31.48775291442871,31.48902702331543,141.52439880371094,141.5245361328125,141.52455139160156,0,0,46.68000030517578,1,1,1841,1843
137.64855600,137648556,0,31.482864379882812,31.48775291442871,31.489028930664062,141.52439880371094,141.5246124267578,141.5245819091797,0,0,46.68000030517578,1,1,1841,1843
137.65109200,137651092,0,31.482864379882812,31.48775291442871,31.489028930664062,141.52439880371094,141.52452087402344,141.52452087402344,0,0,46.68000030517578,1,1,1841,1843
137.65349500,137653495,0,31.48287010192871,31.487760543823242,31.48902702331543,141.5243682861328,141.5246124267578,141.52462768554688,0,0,46.68000030517578,1,1,1841,1843
137.65603500,137656035,0,31.482868194580078,31.48775863647461,31.489028930664062,141.5243682861328,141.52452087402344,141.52452087402344,0,0,46.68000030517578,1,1,1841,1843
137.65865500,137658655,0,31.482868194580078,31.48775863647461,31.489028930664062,141.5243682861328,141.5245819091797,141.5246124267578,0,0,46.68000030517578,1,1,1841,1843
137.66097600,137660976,0,31.48286247253418,31.48775291442871,31.48902702331543,141.52439880371094,141.52455139160156,141.5245361328125,0,0,46.68000030517578,1,1,1841,1843
137.66355200,137663552,0,31.482864379882812,31.48775291442871,31.489028930664062,141.52439880371094,141.5245819091797,141.5246124267578,0,0,46.68000030517578,1,1,1841,1843
137.66597100,137665971,0,31.482868194580078,31.48775863647461,31.489028930664062,141.5243682861328,141.5245819091797,141.52455139160156,0,0,46.68000030517578,1,1,1841,1843
137.66871200,137668712,0,31.48287010192871,31.487760543823242,31.48902702331543,141.5243682861328,141.5245361328125,141.52455139160156,0,0,46.68000030517578,1,1,1841,1843
137.67103600,137671036,0,31.482868194580078,31.48775863647461,31.489028930664062,141.5243682861328,141.5246124267578,141.5245819091797,0,0,46.68000030517578,1,1,1841,1843
137.67350200,137673502,0,31.482864379882812,31.487754821777344,31.489028930664062,141.52439880371094,141.5245361328125,141.52455139160156,0,0,46.68000030517578,1,1,1841,1843
137.67620000,137676200,0,31.48286247253418,31.48775291442871,31.48902702331543,141.52439880371094,141.5246124267578,141.52462768554688,0,0,46.68000030517578,1,1,1841,1843
137.67858100,137678581,0,31.482864379882812,31.48775291442871,31.489028930664062,141.52439880371094,141.52452087402344,141.52452087402344,0,0,46.68000030517578,1,1,1841,1843
137.68099700,137680997,0,31.48287010192871,31.487760543823242,31.48902702331543,141.5243682861328,141.5246124267578,141.52462768554688,0,0,46.68000030517578,1,1,1841,1843
137.68371800,137683718,0,31.48287010192871,31.487760543823242,31.48902702331543,141.5243682861328,141.52455139160156,141.5245361328125,0,0,46.68000030517578,1,1,1841,1843
137.68604500,137686045,0,31.482868194580078,31.48775863647461,31.489028930664062,141.5243682861328,141.5245819091797,141.5246124267578,0,0,46.68000030517578,1,1,1841,1843
137.68883100,137688831,0,31.48286247253418,31.48775291442871,31.48902702331543,141.52439880371094,141.52455139160156,141.5245361328125,0,0,46.68000030517578,1,1,1841,1843
137.69113900,137691139,0,31.48286247253418,31.48775291442871,31.48902702331543,141.52439880371094,141.5245361328125,141.52455139160156,0,0,46.68000030517578,1,1,1841,1843
137.69350600,137693506,0,31.482864379882812,31.48775291442871,31.489028930664062,141.52439880371094,141.5246124267578,141.5245819091797,0,0,46.68000030517578,1,1,1841,1843
137.69604800,137696048,0,31.48287010192871,31.487760543823242,31.48902702331543,141.5243682861328,141.5245361328125,141.52455139160156,0,0,46.68000030517578,1,1,1841,1843
137.69864400,137698644,0,31.48287010192871,31.487760543823242,31.48902702331543,141.5243682861328,141.5246124267578,141.52462768554688,0,0,46.68000030517578,1,1,1841,1843
137.70098900,137700989,0,31.482868194580078,31.48775863647461,31.489028930664062,141.5243682861328,141.52452087402344,141.52452087402344,0,0,46.68000030517578,1,1,1841,1843
137.70355200,137703552,0,31.48286247253418,31.48775291442871,31.48902702331543,141.52439880371094,141.5246124267578,141.52462768554688,0,0,46.68000030517578,1,1,1841,1843
137.70613900,137706139,0,31.48286247253418,31.48775291442871,31.48902702331543,141.52439880371094,141.5245361328125,141.52452087402344,0,0,46.68000030517578,1,1,1841,1843
137.70849000,137708490,0,31.482864379882812,31.48775291442871,31.489028930664062,141.52439880371094,141.5245819091797,141.5246124267578,0,0,46.68000030517578,1,1,1841,1843
137.71104200,137711042,0,31.48287010192871,31.487760543823242,31.48902702331543,141.5243682861328,141.52455139160156,141.5245361328125,0,0,46.68000030517578,1,1,1841,1843
137.71347800,137713478,0,31.482868194580078,31.48775863647461,31.48902702331543,141.52435302734375,141.52455139160156,141.5245819091797,0,0,46.68000030517578,1,1,1841,1843
137.71616200,137716162,0,31.482868194580078,31.48775863647461,31.489028930664062,141.5243682861328,141.5246124267578,141.5245819091797,0,0,46.68000030517578,1,1,1841,1843
137.71857900,137718579,0,31.48286247253418,31.48775291442871,31.48902702331543,141.52439880371094,141.5245361328125,141.52455139160156,0,0,46.68000030517578,1,1,1841,1843
137.72099800,137720998,0,31.48286247253418,31.48775291442871,31.48902702331543,141.52439880371094,141.5246124267578,141.5245819091797,0,0,46.68000030517578,1,1,1841,1843
137.72387600,137723876,0,31.482864379882812,31.48775291442871,31.489028930664062,141.52439880371094,141.52452087402344,141.52452087402344,0,0,46.68000030517578,1,1,1841,1843
137.72604700,137726047,0,31.48287010192871,31.487760543823242,31.48902702331543,141.5243682861328,141.5246124267578,141.52462768554688,0,0,46.68000030517578,1,1,1841,1843
137.72851800,137728518,0,31.482868194580078,31.48775863647461,31.489028930664062,141.5243682861328,141.52452087402344,141.52452087402344,0,0,46.68000030517578,1,1,1841,1843
137.73114700,137731147,0,31.482868194580078,31.48775863647461,31.489028930664062,141.5243682861328,141.5245819091797,141.5246124267578,0,0,46.68000030517578,1,1,1841,1843
137.73355500,137733555,0,31.48286247253418,31.48775291442871,31.48902702331543,141.52439880371094,141.52455139160156,141.5245361328125,0,0,46.68000030517578,1,1,1841,1843
137.73600200,137736002,0,31.482864379882812,31.48775291442871,31.489028930664062,141.52439880371094,141.5245819091797,141.5246124267578,0,0,46.68000030517578,1,1,1841,1843
137.73882100,137738821,0,31.482864379882812,31.48775291442871,31.489028930664062,141.52439880371094,141.5246124267578,141.5245819091797,0,0,46.68000030517578,1,1,1841,1843
137.74103300,137741033,0,31.48287010192871,31.487760543823242,31.48902702331543,141.5243682861328,141.5245361328125,141.52455139160156,0,0,46.68000030517578,1,1,1841,1843
137.74354600,137743546,0,31.482868194580078,31.48775863647461,31.489028930664062,141.5243682861328,141.5246124267578,141.5245819091797,0,0,46.68000030517578,1,1,1841,1843
137.74634300,137746343,0,31.482868194580078,31.48775863647461,31.489028930664062,141.5243682861328,141.52452087402344,141.52452087402344,0,0,46.68000030517578,1,1,1841,1843
137.74849000,137748490,0,31.48286247253418,31.48775291442871,31.48902702331543,141.52439880371094,141.5246124267578,141.52462768554688,0,0,46.68000030517578,1,1,1841,1843
137.75104000,137751040,0,31.482864379882812,31.48775291442871,31.489028930664062,141.52439880371094,141.52452087402344,141.52452087402344,0,0,46.68000030517578,1,1,1841,1843
137.75362200,137753622,0,31.482864379882812,31.48775291442871,31.489028930664062,141.52439880371094,141.5245819091797,141.5246124267578,0,0,46.68000030517578,1,1,1841,1843
137.75593800,137755938,0,31.48287010192871,31.487760543823242,31.48902702331543,141.5243682861328,141.52455139160156,141.5245361328125,0,0,46.68000030517578,1,1,1841,1843
137.75859100,137758591,0,31.482868194580078,31.48775863647461,31.489028930664062,141.5243682861328,141.5245819091797,141.5246124267578,0,0,46.68000030517578,1,1,1841,1843
137.76098700,137760987,0,31.48286247253418,31.48775291442871,31.48902702331543,141.52439880371094,141.52455139160156,141.5245361328125,0,0,46.68000030517578,1,1,1841,1843
137.76367100,137763671,0,31.48286247253418,31.48775291442871,31.48902702331543,141.52439880371094,141.5245361328125,141.52455139160156,0,0,46.68000030517578,1,1,1841,1843
137.76598800,137765988,0,31.482864379882812,31.48775291442871,31.489028930664062,141.52439880371094,141.5246124267578,141.5245819091797,0,0,46.68000030517578,1,1,1841,1843
137.76853700,137768537,0,31.48287010192871,31.487760543823242,31.48902702331543,141.5243682861328,141.5245361328125,141.52455139160156,0,0,46.68000030517578,1,1,1841,1843
137.77109400,137771094,0,31.48287010192871,31.487760543823242,31.48902702331543,141.5243682861328,141.5246124267578,141.52462768554688,0,0,46.68000030517578,1,1,1841,1843
137.77350900,137773509,0,31.482868194580078,31.48775863647461,31.489028930664062,141.5243682861328,141.52452087402344,141.52452087402344,0,0,46.68000030517578,1,1,1841,1843
137.77603900,137776039,0,31.48286247253418,31.48775291442871,31.48902702331543,141.52439880371094,141.5246124267578,141.52462768554688,0,0,46.68000030517578,1,1,1841,1843
137.77866600,137778666,0,31.48286247253418,31.48775291442871,31.48902702331543,141.52439880371094,141.52455139160156,141.5245361328125,0,0,46.68000030517578,1,1,1841,1843
137.78097700,137780977,0,31.482864379882812,31.48775291442871,31.489028930664062,141.52439880371094,141.5245819091797,141.5246124267578,0,0,46.68000030517578,1,1,1841,1843
137.78355900,137783559,0,31.48287010192871,31.487760543823242,31.48902702331543,141.5243682861328,141.52455139160156,141.5245361328125,0,0,46.68000030517578,1,1,1841,1843
137.78624000,137786240,0,31.48287010192871,31.487760543823242,31.48902702331543,141.5243682861328,141.5245361328125,141.52455139160156,0,0,46.68000030517578,1,1,1841,1843
137.78850100,137788501,0,31.482868194580078,31.48775863647461,31.489028930664062,141.5243682861328,141.5246124267578,141.5245819091797,0,0,46.68000030517578,1,1,1841,1843
137.79104200,137791042,0,31.48286247253418,31.48775291442871,31.48902702331543,141.52439880371094,141.5245361328125,141.52455139160156,0,0,46.68000030517578,1,1,1841,1843
137.79364000,137793640,0,31.48286247253418,31.48775291442871,31.48902702331543,141.52439880371094,141.52462768554688,141.5246124267578,0,0,46.68000030517578,1,1,1841,1843
137.79596500,137795965,0,31.482864379882812,31.48775291442871,31.489028930664062,141.52439880371094,141.52452087402344,141.52452087402344,0,0,46.68000030517578,1,1,1841,1843
137.79857800,137798578,0,31.48287010192871,31.487760543823242,31.48902702331543,141.5243682861328,141.5246124267578,141.52462768554688,0,0,46.68000030517578,1,1,1841,1843
137.80098700,137800987,0,31.482868194580078,31.48775863647461,31.48902702331543,141.5243682861328,141.52452087402344,141.52452087402344,0,0,46.68000030517578,1,1,1841,1843
137.80367800,137803678,0,31.482868194580078,31.48775863647461,31.489028930664062,141.5243682861328,141.5245819091797,141.5246124267578,0,0,46.68000030517578,1,1,1841,1843
137.80605200,137806052,0,31.48286247253418,31.48775291442871,31.48902702331543,141.52439880371094,141.52455139160156,141.5245361328125,0,0,46.68000030517578,1,1,1841,1843
137.80851300,137808513,0,31.482864379882812,31.48775291442871,31.489028930664062,141.52439880371094,141.5245819091797,141.5246124267578,0,0,46.68000030517578,1,1,1841,1843
137.81114200,137811142,0,31.482864379882812,31.48775291442871,31.489028930664062,141.52439880371094,141.5246124267578,141.5245819091797,0,0,46.68000030517578,1,1,1841,1843
137.81354100,137813541,0,31.48287010192871,31.487760543823242,31.48902702331543,141.5243682861328,141.5245361328125,141.52455139160156,0,0,46.68000030517578,1,1,1841,1843
137.81602800,137816028,0,31.482868194580078,31.48775863647461,31.489028930664062,141.5243682861328,141.5246124267578,141.5245819091797,0,0,46.68000030517578,1,1,1841,1843
137.81868300,137818683,0,31.482868194580078,31.48775863647461,31.489028930664062,141.5243682861328,141.52452087402344,141.52452087402344,0,0,46.68000030517578,1,1,1841,1843
137.82098900,137820989,0,31.48286247253418,31.48775291442871,31.48902702331543,141.52439880371094,141.5246124267578,141.52462768554688,0,0,46.68000030517578,1,1,1841,1843
137.82367600,137823676,0,31.482864379882812,31.48775291442871,31.489028930664062,141.52439880371094,141.52452087402344,141.52452087402344,0,0,46.68000030517578,1,1,1841,1843
137.82612000,137826120,0,31.482864379882812,31.48775291442871,31.489028930664062,141.52439880371094,141.5245819091797,141.5246124267578,0,0,46.68000030517578,1,1,1841,1843
137.82848800,137828488,0,31.48287010192871,31.487760543823242,31.48902702331543,141.5243682861328,141.52455139160156,141.5245361328125,0,0,46.68000030517578,1,1,1841,1843
137.83104500,137831045,0,31.482868194580078,31.48775863647461,31.489028930664062,141.5243682861328,141.5245819091797,141.5246124267578,0,0,46.68000030517578,1,1,1841,1843
137.83363300,137833633,0,31.482868194580078,31.48775863647461,31.489028930664062,141.52439880371094,141.5245819091797,141.52455139160156,0,0,46.68000030517578,1,1,1841,1843
137.83599100,137835991,0,31.48286247253418,31.48775291442871,31.48902702331543,141.52439880371094,141.5245361328125,141.52455139160156,0,0,46.68000030517578,1,1,1841,1843
137.83863900,137838639,0,31.482864379882812,31.48775291442871,31.489028930664062,141.52439880371094,141.5246124267578,141.5245819091797,0,0,46.68000030517578,1,1,1841,1843
137.84099300,137840993,0,31.482868194580078,31.48775863647461,31.489028930664062,141.5243682861328,141.5245361328125,141.52455139160156,0,0,46.68000030517578,1,1,1841,1843
137.84383000,137843830,0,31.48287010192871,31.487760543823242,31.48902702331543,141.5243682861328,141.5246124267578,141.52462768554688,0,0,46.68000030517578,1,1,1841,1843
137.84607000,137846070,0,31.482868194580078,31.48775863647461,31.489028930664062,141.5243682861328,141.52452087402344,141.52452087402344,0,0,46.68000030517578,1,1,1841,1843
137.84850300,137848503,0,31.48286247253418,31.48775291442871,31.48902702331543,141.52439880371094,141.5246124267578,141.52462768554688,0,0,46.68000030517578,1,1,1841,1843
137.85116500,137851165,0,31.48286247253418,31.48775291442871,31.48902702331543,141.52439880371094,141.52455139160156,141.5245361328125,0,0,46.68000030517578,1,1,1841,1843
137.85354500,137853545,0,31.482864379882812,31.48775291442871,31.489028930664062,141.52439880371094,141.5245819091797,141.5246124267578,0,0,46.68000030517578,1,1,1841,1843
137.85600400,137856004,0,31.48287010192871,31.487760543823242,31.48902702331543,141.5243682861328,141.52455139160156,141.5245361328125,0,0,46.68000030517578,1,1,1841,1843
137.85874500,137858745,0,31.48287010192871,31.487760543823242,31.48902702331543,141.5243682861328,141.5245361328125,141.52455139160156,0,0,46.68000030517578,1,1,1841,1843
137.86103900,137861039,0,31.482868194580078,31.48775863647461,31.489028930664062,141.5243682861328,141.5246124267578,141.5245819091797,0,0,46.68000030517578,1,1,1841,1843
137.86351800,137863518,0,31.48286247253418,31.48775291442871,31.48902702331543,141.52439880371094,141.5245361328125,141.52455139160156,0,0,46.68000030517578,1,1,1841,1843
137.86613900,137866139,0,31.48286247253418,31.48775291442871,31.48902702331543,141.52439880371094,141.5246124267578,141.52462768554688,0,0,46.68000030517578,1,1,1841,1843
137.86851300,137868513,0,31.482864379882812,31.48775291442871,31.489028930664062,141.52439880371094,141.52452087402344,141.52452087402344,0,0,46.68000030517578,1,1,1841,1843
137.87102000,137871020,0,31.48287010192871,31.487760543823242,31.48902702331543,141.5243682861328,141.5246124267578,141.52462768554688,0,0,46.68000030517578,1,1,1841,1843
137.87364300,137873643,0,31.48287010192871,31.487760543823242,31.48902702331543,141.5243682861328,141.52455139160156,141.5245361328125,0,0,46.68000030517578,1,1,1841,1843
137.87598200,137875982,0,31.482868194580078,31.48775863647461,31.489028930664062,141.5243682861328,141.5245819091797,141.5246124267578,0,0,46.68000030517578,1,1,1841,1843
137.87857400,137878574,0,31.48286247253418,31.48775291442871,31.48902702331543,141.52439880371094,141.52455139160156,141.5245361328125,0,0,46.68000030517578,1,1,1841,1843
137.88111300,137881113,0,31.48286247253418,31.48775291442871,31.48902702331543,141.52439880371094,141.5245361328125,141.52455139160156,0,0,46.68000030517578,1,1,1841,1843
137.88349500,137883495,0,31.482864379882812,31.48775291442871,31.489028930664062,141.52439880371094,141.5246124267578,141.5245819091797,0,0,46.68000030517578,1,1,1841,1843
137.88604200,137886042,0,31.48287010192871,31.487760543823242,31.48902702331543,141.5243682861328,141.5245361328125,141.52455139160156,0,0,46.68000030517578,1,1,1841,1843
137.88862900,137888629,0,31.48287010192871,31.487760543823242,31.48902702331543,141.5243682861328,141.5246124267578,141.52462768554688,0,0,46.68000030517578,1,1,1841,1843
137.89097800,137890978,0,31.482868194580078,31.48775863647461,31.489028930664062,141.5243682861328,141.52452087402344,141.52452087402344,0,0,46.68000030517578,1,1,1841,1843
137.89355400,137893554,0,31.48286247253418,31.48775291442871,31.48902702331543,141.52439880371094,141.5246124267578,141.52462768554688,0,0,46.68000030517578,1,1,1841,1843
137.89612500,137896125,0,31.48286247253418,31.48775291442871,31.48902702331543,141.52439880371094,141.5245361328125,141.52452087402344,0,0,46.68000030517578,1,1,1841,1843
137.89852000,137898520,0,31.482864379882812,31.48775291442871,31.489028930664062,141.52439880371094,141.5245819091797,141.5246124267578,0,0,46.68000030517578,1,1,1841,1843
137.90105600,137901056,0,31.48287010192871,31.487760543823242,31.48902702331543,141.5243682861328,141.52455139160156,141.5245361328125,0,0,46.68000030517578,1,1,1841,1843
137.90349200,137903492,0,31.482868194580078,31.48775863647461,31.48902702331543,141.52435302734375,141.52455139160156,141.5245819091797,0,0,46.68000030517578,1,1,1841,1843
137.90615400,137906154,0,31.482868194580078,31.48775863647461,31.489028930664062,141.5243682861328,141.5246124267578,141.5245819091797,0,0,46.68000030517578,1,1,1841,1843
137.90854100,137908541,0,31.48286247253418,31.48775291442871,31.48902702331543,141.52439880371094,141.5245361328125,141.52455139160156,0,0,46.68000030517578,1,1,1841,1843
137.91099800,137910998,0,31.482864379882812,31.48775291442871,31.489028930664062,141.52439880371094,141.5246124267578,141.5245819091797,0,0,46.68000030517578,1,1,1841,1843
137.91371200,137913712,0,31.482864379882812,31.48775291442871,31.489028930664062,141.52439880371094,141.52452087402344,141.52452087402344,0,0,46.68000030517578,1,1,1841,1843
137.91604700,137916047,0,31.48287010192871,31.487760543823242,31.48902702331543,141.5243682861328,141.5246124267578,141.52462768554688,0,0,46.68000030517578,1,1,1841,1843
137.91852900,137918529,0,31.482868194580078,31.48775863647461,31.489028930664062,141.5243682861328,141.52452087402344,141.52452087402344,0,0,46.68000030517578,1,1,1841,1843
137.92120700,137921207,0,31.482868194580078,31.48775863647461,31.489028930664062,141.5243682861328,141.5245819091797,141.5246124267578,0,0,46.68000030517578,1,1,1841,1843
137.92367100,137923671,0,31.48286247253418,31.48775291442871,31.48902702331543,141.52439880371094,141.52455139160156,141.5245361328125,0,0,46.68000030517578,1,1,1841,1843
137.92603100,137926031,0,31.482864379882812,31.48775291442871,31.489028930664062,141.52439880371094,141.5245819091797,141.5246124267578,0,0,46.68000030517578,1,1,1841,1843
137.92874700,137928747,0,31.482864379882812,31.48775291442871,31.489028930664062,141.52439880371094,141.5246124267578,141.5245819091797,0,0,46.68000030517578,1,1,1841,1843
137.93100400,137931004,0,31.48287010192871,31.487760543823242,31.48902702331543,141.5243682861328,141.5245361328125,141.52455139160156,0,0,46.68000030517578,1,1,1841,1843
