timestamp,TimeUS,GYROx,TimeUS,GYROx
136.34432700,136344327,31.482101440429688,136344327,31.482101440429688
136.34438200,136344382,31.482101440429688,136344382,31.482101440429688
136.34507700,136345077,31.482101440429688,136345077,31.482101440429688
136.34510300,136345103,31.482101440429688,136345103,31.482101440429688
136.34583400,136345834,31.482101440429688,136345834,31.482101440429688
136.34586300,136345863,31.482101440429688,136345863,31.482101440429688
136.34658700,136346587,31.482101440429688,136346587,31.482101440429688
136.34661200,136346612,31.482101440429688,136346612,31.482101440429688
136.34733300,136347333,31.482101440429688,136347333,31.482101440429688
136.34736000,136347360,31.482101440429688,136347360,31.482101440429688
136.34808200,136348082,31.482101440429688,136348082,31.482101440429688
136.34815900,136348159,31.482101440429688,136348159,31.482101440429688
136.34883600,136348836,31.482101440429688,136348836,31.482101440429688
136.34886100,136348861,31.482101440429688,136348861,31.482101440429688
136.34958300,136349583,31.482101440429688,136349583,31.482101440429688
136.34961200,136349612,31.482101440429688,136349612,31.482101440429688
136.35032800,136350328,31.482101440429688,136350328,31.482101440429688
136.35035200,136350352,31.482101440429688,136350352,31.482101440429688
136.35108400,136351084,31.482101440429688,136351084,31.482101440429688
136.35110900,136351109,31.482101440429688,136351109,31.482101440429688
136.35183200,136351832,31.482101440429688,136351832,31.482101440429688
136.35185700,136351857,31.482101440429688,136351857,31.482101440429688
136.35258100,136352581,31.482101440429688,136352581,31.482101440429688
136.35261100,136352611,31.482101440429688,136352611,31.482101440429688
136.35333700,136353337,31.482101440429688,136353337,31.482101440429688
136.35336300,136353363,31.482101440429688,136353363,31.482101440429688
136.35408700,136354087,31.482101440429688,136354087,31.482101440429688
136.35411200,136354112,31.482101440429688,136354112,31.482101440429688
136.35483800,136354838,31.482101440429688,136354838,31.482101440429688
136.35486200,136354862,31.482101440429688,136354862,31.482101440429688
136.35564400,136355644,31.482101440429688,136355644,31.482101440429688
136.35567100,136355671,31.482101440429688,136355671,31.482101440429688
136.35634400,136356344,31.482101440429688,136356344,31.482101440429688
136.35636900,136356369,31.482101440429688,136356369,31.482101440429688
136.35709500,136357095,31.482101440429688,136357095,31.482101440429688
136.35712000,136357120,31.482101440429688,136357120,31.482101440429688
136.35784700,136357847,31.482101440429688,136357847,31.482101440429688
136.35787100,136357871,31.482101440429688,136357871,31.482101440429688
136.35861100,136358611,31.482101440429688,136358611,31.482101440429688
136.35864200,136358642,31.482101440429688,136358642,31.482101440429688
136.35935900,136359359,31.482101440429688,136359359,31.482101440429688
136.35938300,136359383,31.482101440429688,136359383,31.482101440429688
136.36010800,136360108,31.482101440429688,136360108,31.482101440429688
136.36013400,136360134,31.482101440429688,136360134,31.482101440429688
136.36087200,136360872,31.482101440429688,136360872,31.482101440429688
136.36089800,136360898,31.482101440429688,136360898,31.482101440429688
136.36162300,136361623,31.482101440429688,136361623,31.482101440429688
136.36165400,136361654,31.482101440429688,136361654,31.482101440429688
136.36237400,136362374,31.482101440429688,136362374,31.482101440429688
136.36239800,136362398,31.482101440429688,136362398,31.482101440429688
136.36314700,136363147,31.482101440429688,136363147,31.482101440429688
136.36317200,136363172,31.482101440429688,136363172,31.482101440429688
136.36389500,136363895,31.482101440429688,136363895,31.482101440429688
136.36392300,136363923,31.482101440429688,136363923,31.482101440429688
136.36464700,136364647,31.482101440429688,136364647,31.482101440429688
136.36467100,136364671,31.482101440429688,136364671,31.482101440429688
136.36539800,136365398,31.482101440429688,136365398,31.482101440429688
136.36542400,136365424,31.482101440429688,136365424,31.482101440429688
136.36615100,136366151,31.482101440429688,136366151,31.482101440429688
136.36617500,136366175,31.482101440429688,136366175,31.482101440429688
136.36689800,136366898,31.482101440429688,136366898,31.482101440429688
136.36692200,136366922,31.482101440429688,136366922,31.482101440429688
136.36765300,136367653,31.482101440429688,136367653,31.482101440429688
136.36767800,136367678,31.482101440429688,136367678,31.482101440429688
136.36840900,136368409,31.482101440429688,136368409,31.482101440429688
136.36843800,136368438,31.482101440429688,136368438,31.482101440429688
136.36916600,136369166,31.482101440429688,136369166,31.482101440429688
136.36919200,136369192,31.482101440429688,136369192,31.482101440429688
136.36991300,136369913,31.482101440429688,136369913,31.482101440429688
136.36993800,136369938,31.482101440429688,136369938,31.482101440429688
136.37066400,136370664,31.482101440429688,136370664,31.482101440429688
136.37068900,136370689,31.482101440429688,136370689,31.482101440429688
136.37141500,136371415,31.482101440429688,136371415,31.482101440429688
136.37144000,136371440,31.482101440429688,136371440,31.482101440429688
136.37216600,136372166,31.482101440429688,136372166,31.482101440429688
136.37219100,136372191,31.482101440429688,136372191,31.482101440429688
136.37291600,136372916,31.482101440429688,136372916,31.482101440429688
136.37294000,136372940,31.482101440429688,136372940,31.482101440429688
136.37366800,136373668,31.482101440429688,136373668,31.482101440429688
136.37369300,136373693,31.482101440429688,136373693,31.482101440429688
136.37441800,136374418,31.482101440429688,136374418,31.482101440429688
136.37444200,136374442,31.482101440429688,136374442,31.482101440429688
136.37516800,136375168,31.482101440429688,136375168,31.482101440429688
136.37519300,136375193,31.482101440429688,136375193,31.482101440429688
136.37592700,136375927,31.482101440429688,136375927,31.482101440429688
136.37595300,136375953,31.482101440429688,136375953,31.482101440429688
136.37667700,136376677,31.482101440429688,136376677,31.482101440429688
136.37670400,136376704,31.482101440429688,136376704,31.482101440429688
136.37742600,136377426,31.482101440429688,136377426,31.482101440429688
136.37745000,136377450,31.482101440429688,136377450,31.482101440429688
136.37822900,136378229,31.482101440429688,136378229,31.482101440429688
136.37826100,136378261,31.482101440429688,136378261,31.482101440429688
136.37897900,136378979,31.482101440429688,136378979,31.482101440429688
136.37900600,136379006,31.482101440429688,136379006,31.482101440429688
136.37973500,136379735,31.482101440429688,136379735,31.482101440429688
136.37975900,136379759,31.482101440429688,136379759,31.482101440429688
136.38048300,136380483,31.482101440429688,136380483,31.482101440429688
136.38050700,136380507,31.482101440429688,136380507,31.482101440429688
136.38123400,136381234,31.482101440429688,136381234,31.482101440429688
136.38126000,136381260,31.482101440429688,136381260,31.482101440429688
136.38198300,136381983,31.482101440429688,136381983,31.482101440429688
136.38201000,136382010,31.482101440429688,136382010,31.482101440429688
136.38273500,136382735,31.482101440429688,136382735,31.482101440429688
136.38275900,136382759,31.482101440429688,136382759,31.482101440429688
136.38349100,136383491,31.482101440429688,136383491,31.482101440429688
136.38351900,136383519,31.482101440429688,136383519,31.482101440429688
136.38424200,136384242,31.482101440429688,136384242,31.482101440429688
136.38426800,136384268,31.482101440429688,136384268,31.482101440429688
136.38498900,136384989,31.482101440429688,136384989,31.482101440429688
136.38501400,136385014,31.482101440429688,136385014,31.482101440429688
136.38577400,136385774,31.482101440429688,136385774,31.482101440429688
136.38580400,136385804,31.482101440429688,136385804,31.482101440429688
136.38652100,136386521,31.482101440429688,136386521,31.482101440429688
136.38654900,136386549,31.482101440429688,136386549,31.482101440429688
136.38727100,136387271,31.482101440429688,136387271,31.482101440429688
136.38729800,136387298,31.482101440429688,136387298,31.482101440429688
136.38801900,136388019,31.482101440429688,136388019,31.482101440429688
136.38804400,136388044,31.482101440429688,136388044,31.482101440429688
136.38877100,136388771,31.482101440429688,136388771,31.482101440429688
136.38879600,136388796,31.482101440429688,136388796,31.482101440429688
136.38952700,136389527,31.482101440429688,136389527,31.482101440429688
136.38955300,136389553,31.482101440429688,136389553,31.482101440429688
136.39027300,136390273,31.482101440429688,136390273,31.482101440429688
136.39029800,136390298,31.482101440429688,136390298,31.482101440429688
136.39103200,136391032,31.482101440429688,136391032,31.482101440429688
136.39105700,136391057,31.482101440429688,136391057,31.482101440429688
136.39178000,136391780,31.482101440429688,136391780,31.482101440429688
136.39180500,136391805,31.482101440429688,136391805,31.482101440429688
136.39252800,136392528,31.482101440429688,136392528,31.482101440429688
136.39255300,136392553,31.482101440429688,136392553,31.482101440429688
136.39329100,136393291,31.482101440429688,136393291,31.482101440429688
136.39332100,136393321,31.482101440429688,136393321,31.482101440429688
136.39403900,136394039,31.482101440429688,136394039,31.482101440429688
136.39406400,136394064,31.482101440429688,136394064,31.482101440429688
136.39478800,136394788,31.482101440429688,136394788,31.482101440429688
136.39481500,136394815,31.482101440429688,136394815,31.482101440429688
136.39553700,136395537,31.482101440429688,136395537,31.482101440429688
136.39556000,136395560,31.482101440429688,136395560,31.482101440429688
136.39634600,136396346,31.482101440429688,136396346,31.482101440429688
136.39637300,136396373,31.482101440429688,136396373,31.482101440429688
136.39710000,136397100,31.482101440429688,136397100,31.482101440429688
136.39712500,136397125,31.482101440429688,136397125,31.482101440429688
136.39785500,136397855,31.482101440429688,136397855,31.482101440429688
136.39787800,136397878,31.482101440429688,136397878,31.482101440429688
136.39861100,136398611,31.482101440429688,136398611,31.482101440429688
136.39884000,136398840,31.482101440429688,136398840,31.482101440429688
136.39936100,136399361,31.482101440429688,136399361,31.482101440429688
136.39938700,136399387,31.482101440429688,136399387,31.482101440429688
136.40011200,136400112,31.482101440429688,136400112,31.482101440429688
136.40013600,136400136,31.482101440429688,136400136,31.482101440429688
136.40086700,136400867,31.482101440429688,136400867,31.482101440429688
136.40089300,136400893,31.482101440429688,136400893,31.482101440429688
136.40161800,136401618,31.482101440429688,136401618,31.482101440429688
136.40164600,136401646,31.482101440429688,136401646,31.482101440429688
136.40236700,136402367,31.482101440429688,136402367,31.482101440429688
136.40239100,136402391,31.482101440429688,136402391,31.482101440429688
136.40315500,136403155,31.482101440429688,136403155,31.482101440429688
136.40318400,136403184,31.482101440429688,136403184,31.482101440429688
136.40390400,136403904,31.482101440429688,136403904,31.482101440429688
136.40393000,136403930,31.482101440429688,136403930,31.482101440429688
136.40465200,136404652,31.482101440429688,136404652,31.482101440429688
136.40467900,136404679,31.482101440429688,136404679,31.482101440429688
136.40540800,136405408,31.482101440429688,136405408,31.482101440429688
136.40543200,136405432,31.482101440429688,136405432,31.482101440429688
136.40616300,136406163,31.482101440429688,136406163,31.482101440429688
136.40618700,136406187,31.482101440429688,136406187,31.482101440429688
136.40691200,136406912,31.482101440429688,136406912,31.482101440429688
136.40693700,136406937,31.482101440429688,136406937,31.482101440429688
136.40766300,136407663,31.482101440429688,136407663,31.482101440429688
136.40768800,136407688,31.482101440429688,136407688,31.482101440429688
136.40842000,136408420,31.482101440429688,136408420,31.482101440429688
136.40865000,136408650,31.482101440429688,136408650,31.482101440429688
136.40916900,136409169,31.482101440429688,136409169,31.482101440429688
136.40919300,136409193,31.482101440429688,136409193,31.482101440429688
136.40991900,136409919,31.482101440429688,136409919,31.482101440429688
136.40994300,136409943,31.482101440429688,136409943,31.482101440429688
136.41073200,136410732,31.482101440429688,136410732,31.482101440429688
136.41076100,136410761,31.482101440429688,136410761,31.482101440429688
136.41148100,136411481,31.482101440429688,136411481,31.482101440429688
136.41150800,136411508,31.482101440429688,136411508,31.482101440429688
136.41223000,136412230,31.482101440429688,136412230,31.482101440429688
136.41225400,136412254,31.482101440429688,136412254,31.482101440429688
136.41297800,136412978,31.482101440429688,136412978,31.482101440429688
136.41300300,136413003,31.482101440429688,136413003,31.482101440429688
136.41373200,136413732,31.482101440429688,136413732,31.482101440429688
136.41376000,136413760,31.482101440429688,136413760,31.482101440429688
136.41448000,136414480,31.482101440429688,136414480,31.482101440429688
136.41450400,136414504,31.482101440429688,136414504,31.482101440429688
136.41523100,136415231,31.482101440429688,136415231,31.482101440429688
136.41525600,136415256,31.482101440429688,136415256,31.482101440429688
136.41598500,136415985,31.482101440429688,136415985,31.482101440429688
136.41601000,136416010,31.482101440429688,136416010,31.482101440429688
136.41673500,136416735,31.482101440429688,136416735,31.482101440429688
136.41676200,136416762,31.482101440429688,136416762,31.482101440429688
136.41748600,136417486,31.482101440429688,136417486,31.482101440429688
136.41751100,136417511,31.482101440429688,136417511,31.482101440429688
136.41828200,136418282,31.482101440429688,136418282,31.482101440429688
136.41830800,136418308,31.482101440429688,136418308,31.482101440429688
136.41903200,136419032,31.482101440429688,136419032,31.482101440429688
136.41905800,136419058,31.482101440429688,136419058,31.482101440429688
136.41979100,136419791,31.482101440429688,136419791,31.482101440429688
136.41981900,136419819,31.482101440429688,136419819,31.482101440429688
136.42053900,136420539,31.482101440429688,136420539,31.482101440429688
136.42056300,136420563,31.482101440429688,136420563,31.482101440429688
136.42129800,136421298,31.482101440429688,136421298,31.482101440429688
136.42132300,136421323,31.482101440429688,136421323,31.482101440429688
136.42204300,136422043,31.482101440429688,136422043,31.482101440429688
136.42206700,136422067,31.482101440429688,136422067,31.482101440429688
136.42279200,136422792,31.482101440429688,136422792,31.482101440429688
136.42281700,136422817,31.482101440429688,136422817,31.482101440429688
136.42355100,136423551,31.482101440429688,136423551,31.482101440429688
136.42357600,136423576,31.482101440429688,136423576,31.482101440429688
136.42430000,136424300,31.482101440429688,136424300,31.482101440429688
136.42432500,136424325,31.482101440429688,136424325,31.482101440429688
136.42504900,136425049,31.482101440429688,136425049,31.482101440429688
136.42507400,136425074,31.482101440429688,136425074,31.482101440429688
136.42580800,136425808,31.482101440429688,136425808,31.482101440429688
136.42583400,136425834,31.482101440429688,136425834,31.482101440429688
136.42655600,136426556,31.482101440429688,136426556,31.482101440429688
136.42658400,136426584,31.482101440429688,136426584,31.482101440429688
136.42730500,136427305,31.482101440429688,136427305,31.482101440429688
136.42732900,136427329,31.482101440429688,136427329,31.482101440429688
136.42805200,136428052,31.482101440429688,136428052,31.482101440429688
136.42807700,136428077,31.482101440429688,136428077,31.482101440429688
136.42881000,136428810,31.482101440429688,136428810,31.482101440429688
136.42883500,136428835,31.482101440429688,136428835,31.482101440429688
136.42956000,136429560,31.482101440429688,136429560,31.482101440429688
136.42958500,136429585,31.482101440429688,136429585,31.482101440429688
136.43030800,136430308,31.482101440429688,136430308,31.482101440429688
136.43033300,136430333,31.482101440429688,136430333,31.482101440429688
136.43106700,136431067,31.482101440429688,136431067,31.482101440429688
136.43109200,136431092,31.482101440429688,136431092,31.482101440429688
136.43181600,136431816,31.482101440429688,136431816,31.482101440429688
136.43184000,136431840,31.482101440429688,136431840,31.482101440429688
136.43256400,136432564,31.482101440429688,136432564,31.482101440429688
136.43259100,136432591,31.482101440429688,136432591,31.482101440429688
136.43331900,136433319,31.482101440429688,136433319,31.482101440429688
136.43334700,136433347,31.482101440429688,136433347,31.482101440429688
136.43407400,136434074,31.482101440429688,136434074,31.482101440429688
136.43410200,136434102,31.482101440429688,136434102,31.482101440429688
136.43482100,136434821,31.482101440429688,136434821,31.482101440429688
136.43484500,136434845,31.482101440429688,136434845,31.482101440429688
136.43557100,136435571,31.482101440429688,136435571,31.482101440429688
136.43565200,136435652,31.482101440429688,136435652,31.482101440429688
136.43633100,136436331,31.482101440429688,136436331,31.482101440429688
136.43635600,136436356,31.482101440429688,136436356,31.482101440429688
136.43707800,136437078,31.482101440429688,136437078,31.482101440429688
136.43710100,136437101,31.482101440429688,136437101,31.482101440429688
136.43782900,136437829,31.482101440429688,136437829,31.482101440429688
136.43785400,136437854,31.482101440429688,136437854,31.482101440429688
136.43858500,136438585,31.482101440429688,136438585,31.482101440429688
136.43881400,136438814,31.482101440429688,136438814,31.482101440429688
136.43933400,136439334,31.482101440429688,136439334,31.482101440429688
136.43936000,136439360,31.482101440429688,136439360,31.482101440429688
136.44008500,136440085,31.482101440429688,136440085,31.482101440429688
136.44010900,136440109,31.482101440429688,136440109,31.482101440429688
136.44084200,136440842,31.482101440429688,136440842,31.482101440429688
136.44086800,136440868,31.482101440429688,136440868,31.482101440429688
136.44159200,136441592,31.482101440429688,136441592,31.482101440429688
136.44161700,136441617,31.482101440429688,136441617,31.482101440429688
136.44234000,136442340,31.482101440429688,136442340,31.482101440429688
136.44236400,136442364,31.482101440429688,136442364,31.482101440429688
136.44314900,136443149,31.482101440429688,136443149,31.482101440429688
136.44317500,136443175,31.482101440429688,136443175,31.482101440429688
136.44384200,136443842,31.482101440429688,136443842,31.482101440429688
136.44386700,136443867,31.482101440429688,136443867,31.482101440429688
136.44459300,136444593,31.482101440429688,136444593,31.482101440429688
136.44461700,136444617,31.482101440429688,136444617,31.482101440429688
136.44534400,136445344,31.482101440429688,136445344,31.482101440429688
136.44537000,136445370,31.482101440429688,136445370,31.482101440429688
136.44610100,136446101,31.482101440429688,136446101,31.482101440429688
136.44612700,136446127,31.482101440429688,136446127,31.482101440429688
136.44685300,136446853,31.482101440429688,136446853,31.482101440429688
136.44687900,136446879,31.482101440429688,136446879,31.482101440429688
136.44760100,136447601,31.482101440429688,136447601,31.482101440429688
136.44762600,136447626,31.482101440429688,136447626,31.482101440429688
136.44835900,136448359,31.482101440429688,136448359,31.482101440429688
136.44838600,136448386,31.482101440429688,136448386,31.482101440429688
136.44910700,136449107,31.482101440429688,136449107,31.482101440429688
136.44913200,136449132,31.482101440429688,136449132,31.482101440429688
136.44986000,136449860,31.482101440429688,136449860,31.482101440429688
136.44988500,136449885,31.482101440429688,136449885,31.482101440429688
136.45065500,136450655,31.482101440429688,136450655,31.482101440429688
136.45067900,136450679,31.482101440429688,136450679,31.482101440429688
136.45141000,136451410,31.482101440429688,136451410,31.482101440429688
136.45143500,136451435,31.482101440429688,136451435,31.482101440429688
136.45216500,136452165,31.482101440429688,136452165,31.482101440429688
136.45219200,136452192,31.482101440429688,136452192,31.482101440429688
136.45291200,136452912,31.482101440429688,136452912,31.482101440429688
136.45293600,136452936,31.482101440429688,136452936,31.482101440429688
136.45367100,136453671,31.482101440429688,136453671,31.482101440429688
136.45369500,136453695,31.482101440429688,136453695,31.482101440429688
136.45441700,136454417,31.482101440429688,136454417,31.482101440429688
136.45444100,136454441,31.482101440429688,136454441,31.482101440429688
136.45516700,136455167,31.482101440429688,136455167,31.482101440429688
136.45519200,136455192,31.482101440429688,136455192,31.482101440429688
136.45592100,136455921,31.482101440429688,136455921,31.482101440429688
136.45594800,136455948,31.482101440429688,136455948,31.482101440429688
136.45667200,136456672,31.482101440429688,136456672,31.482101440429688
136.45669700,136456697,31.482101440429688,136456697,31.482101440429688
136.45742100,136457421,31.482101440429688,136457421,31.482101440429688
136.45744500,136457445,31.482101440429688,136457445,31.482101440429688
136.45823600,136458236,31.482101440429688,136458236,31.482101440429688
136.45826200,136458262,31.482101440429688,136458262,31.482101440429688
136.45898600,136458986,31.482101440429688,136458986,31.482101440429688
136.45901100,136459011,31.482101440429688,136459011,31.482101440429688
136.45974200,136459742,31.482101440429688,136459742,31.482101440429688
136.45976700,136459767,31.482101440429688,136459767,31.482101440429688
136.46048900,136460489,31.482101440429688,136460489,31.482101440429688
136.46051500,136460515,31.482101440429688,136460515,31.482101440429688
136.46124500,136461245,31.482101440429688,136461245,31.482101440429688
136.46127000,136461270,31.482101440429688,136461270,31.482101440429688
136.46199500,136461995,31.482101440429688,136461995,31.482101440429688
136.46201900,136462019,31.482101440429688,136462019,31.482101440429688
136.46274400,136462744,31.482101440429688,136462744,31.482101440429688
136.46276900,136462769,31.482101440429688,136462769,31.482101440429688
136.46350000,136463500,31.482101440429688,136463500,31.482101440429688
136.46373200,136463732,31.482101440429688,136463732,31.482101440429688
136.46425300,136464253,31.482101440429688,136464253,31.482101440429688
136.46427900,136464279,31.482101440429688,136464279,31.482101440429688
136.46500400,136465004,31.482101440429688,136465004,31.482101440429688
136.46502900,136465029,31.482101440429688,136465029,31.482101440429688
136.46577600,136465776,31.482101440429688,136465776,31.482101440429688
136.46580400,136465804,31.482101440429688,136465804,31.482101440429688
136.46652700,136466527,31.482101440429688,136466527,31.482101440429688
136.46655200,136466552,31.482101440429688,136466552,31.482101440429688
136.46727600,136467276,31.482101440429688,136467276,31.482101440429688
136.46730200,136467302,31.482101440429688,136467302,31.482101440429688
136.46803100,136468031,31.482101440429688,136468031,31.482101440429688
136.46805600,136468056,31.482101440429688,136468056,31.482101440429688
136.46878500,136468785,31.482101440429688,136468785,31.482101440429688
136.46880900,136468809,31.482101440429688,136468809,31.482101440429688
136.46953500,136469535,31.482101440429688,136469535,31.482101440429688
136.46955900,136469559,31.482101440429688,136469559,31.482101440429688
136.47028800,136470288,31.482101440429688,136470288,31.482101440429688
136.47031400,136470314,31.482101440429688,136470314,31.482101440429688
136.47104200,136471042,31.482101440429688,136471042,31.482101440429688
136.47106700,136471067,31.482101440429688,136471067,31.482101440429688
136.47179200,136471792,31.482101440429688,136471792,31.482101440429688
136.47181700,136471817,31.482101440429688,136471817,31.482101440429688
136.47254000,136472540,31.482101440429688,136472540,31.482101440429688
136.47256400,136472564,31.482101440429688,136472564,31.482101440429688
136.47330200,136473302,31.482101440429688,136473302,31.482101440429688
136.47332800,136473328,31.482101440429688,136473328,31.482101440429688
136.47405400,136474054,31.482101440429688,136474054,31.482101440429688
136.47408000,136474080,31.482101440429688,136474080,31.482101440429688
136.47480200,136474802,31.482101440429688,136474802,31.482101440429688
136.47482700,136474827,31.482101440429688,136474827,31.482101440429688
136.47554800,136475548,31.482101440429688,136475548,31.482101440429688
136.47557200,136475572,31.482101440429688,136475572,31.482101440429688
136.47630200,136476302,31.482101440429688,136476302,31.482101440429688
136.47632800,136476328,31.482101440429688,136476328,31.482101440429688
136.47705800,136477058,31.482101440429688,136477058,31.482101440429688
136.47708400,136477084,31.482101440429688,136477084,31.482101440429688
136.47780600,136477806,31.482101440429688,136477806,31.482101440429688
136.47783000,136477830,31.482101440429688,136477830,31.482101440429688
136.47856100,136478561,31.482101440429688,136478561,31.482101440429688
136.47858500,136478585,31.482101440429688,136478585,31.482101440429688
136.47930800,136479308,31.482101440429688,136479308,31.482101440429688
136.47933200,136479332,31.482101440429688,136479332,31.482101440429688
136.48005800,136480058,31.482101440429688,136480058,31.482101440429688
136.48008300,136480083,31.482101440429688,136480083,31.482101440429688
136.48081300,136480813,31.482101440429688,136480813,31.482101440429688
136.48084000,136480840,31.482101440429688,136480840,31.482101440429688
136.48156600,136481566,31.482101440429688,136481566,31.482101440429688
136.48159200,136481592,31.482101440429688,136481592,31.482101440429688
136.48231400,136482314,31.482101440429688,136482314,31.482101440429688
136.48233900,136482339,31.482101440429688,136482339,31.482101440429688
136.48306300,136483063,31.482101440429688,136483063,31.482101440429688
136.48315300,136483153,31.482101440429688,136483153,31.482101440429688
136.48381300,136483813,31.482101440429688,136483813,31.482101440429688
136.48383900,136483839,31.482101440429688,136483839,31.482101440429688
136.48456600,136484566,31.482101440429688,136484566,31.482101440429688
136.48459000,136484590,31.482101440429688,136484590,31.482101440429688
136.48531200,136485312,31.482101440429688,136485312,31.482101440429688
136.48533600,136485336,31.482101440429688,136485336,31.482101440429688
136.48607400,136486074,31.482101440429688,136486074,31.482101440429688
136.48609900,136486099,31.482101440429688,136486099,31.482101440429688
136.48682300,136486823,31.482101440429688,136486823,31.482101440429688
136.48684800,136486848,31.482101440429688,136486848,31.482101440429688
136.48757400,136487574,31.482101440429688,136487574,31.482101440429688
136.48760000,136487600,31.482101440429688,136487600,31.482101440429688
136.48833000,136488330,31.482101440429688,136488330,31.482101440429688
136.48835600,136488356,31.482101440429688,136488356,31.482101440429688
136.48908000,136489080,31.482101440429688,136489080,31.482101440429688
136.48910500,136489105,31.482101440429688,136489105,31.482101440429688
136.48982700,136489827,31.482101440429688,136489827,31.482101440429688
136.48985300,136489853,31.482101440429688,136489853,31.482101440429688
136.49057400,136490574,31.482101440429688,136490574,31.482101440429688
136.49065800,136490658,31.482101440429688,136490658,31.482101440429688
136.49132700,136491327,31.482101440429688,136491327,31.482101440429688
136.49135400,136491354,31.482101440429688,136491354,31.482101440429688
136.49208100,136492081,31.482101440429688,136492081,31.482101440429688
136.49210600,136492106,31.482101440429688,136492106,31.482101440429688
136.49282900,136492829,31.482101440429688,136492829,31.482101440429688
136.49285400,136492854,31.482101440429688,136492854,31.482101440429688
136.49358500,136493585,31.482101440429688,136493585,31.482101440429688
136.49381600,136493816,31.482101440429688,136493816,31.482101440429688
136.49433300,136494333,31.482101440429688,136494333,31.482101440429688
136.49436000,136494360,31.482101440429688,136494360,31.482101440429688
136.49508700,136495087,31.482101440429688,136495087,31.482101440429688
136.49511200,136495112,31.482101440429688,136495112,31.482101440429688
136.49585300,136495853,31.482101440429688,136495853,31.482101440429688
136.49587900,136495879,31.482101440429688,136495879,31.482101440429688
136.49660000,136496600,31.482101440429688,136496600,31.482101440429688
136.49662600,136496626,31.482101440429688,136496626,31.482101440429688
136.49735000,136497350,31.482101440429688,136497350,31.482101440429688
136.49737500,136497375,31.482101440429688,136497375,31.482101440429688
136.49815500,136498155,31.482101440429688,136498155,31.482101440429688
136.49818200,136498182,31.482101440429688,136498182,31.482101440429688
136.49890700,136498907,31.482101440429688,136498907,31.482101440429688
136.49893200,136498932,31.482101440429688,136498932,31.482101440429688
136.49965700,136499657,31.482101440429688,136499657,31.482101440429688
136.49968100,136499681,31.482101440429688,136499681,31.482101440429688
136.50040800,136500408,31.482101440429688,136500408,31.482101440429688
136.50043300,136500433,31.482101440429688,136500433,31.482101440429688
136.50116300,136501163,31.482101440429688,136501163,31.482101440429688
136.50118700,136501187,31.482101440429688,136501187,31.482101440429688
136.50191400,136501914,31.482101440429688,136501914,31.482101440429688
136.50193900,136501939,31.482101440429688,136501939,31.482101440429688
136.50267000,136502670,31.482101440429688,136502670,31.482101440429688
136.50269700,136502697,31.482101440429688,136502697,31.482101440429688
136.50343200,136503432,31.482101440429688,136503432,31.482101440429688
136.50345700,136503457,31.482101440429688,136503457,31.482101440429688
136.50418300,136504183,31.482101440429688,136504183,31.482101440429688
136.50420800,136504208,31.482101440429688,136504208,31.482101440429688
136.50493100,136504931,31.482101440429688,136504931,31.482101440429688
136.50495600,136504956,31.482101440429688,136504956,31.482101440429688
136.50573900,136505739,31.482101440429688,136505739,31.482101440429688
136.50576500,136505765,31.482101440429688,136505765,31.482101440429688
136.50648900,136506489,31.482101440429688,136506489,31.482101440429688
136.50651400,136506514,31.482101440429688,136506514,31.482101440429688
136.50723800,136507238,31.482101440429688,136507238,31.482101440429688
136.50726400,136507264,31.482101440429688,136507264,31.482101440429688
136.50798700,136507987,31.482101440429688,136507987,31.482101440429688
136.50801400,136508014,31.482101440429688,136508014,31.482101440429688
136.50874400,136508744,31.482101440429688,136508744,31.482101440429688
136.50877000,136508770,31.482101440429688,136508770,31.482101440429688
136.50949100,136509491,31.482101440429688,136509491,31.482101440429688
136.50951700,136509517,31.482101440429688,136509517,31.482101440429688
136.51024000,136510240,31.482101440429688,136510240,31.482101440429688
136.51026500,136510265,31.482101440429688,136510265,31.482101440429688
136.51099700,136510997,31.482101440429688,136510997,31.482101440429688
136.51102500,136511025,31.482101440429688,136511025,31.482101440429688
136.51174600,136511746,31.482101440429688,136511746,31.482101440429688
136.51177000,136511770,31.482101440429688,136511770,31.482101440429688
136.51249500,136512495,31.482101440429688,136512495,31.482101440429688
136.51252000,136512520,31.482101440429688,136512520,31.482101440429688
136.51327600,136513276,31.482101440429688,136513276,31.482101440429688
136.51330900,136513309,31.482101440429688,136513309,31.482101440429688
136.51403100,136514031,31.482101440429688,136514031,31.482101440429688
136.51405600,136514056,31.482101440429688,136514056,31.482101440429688
136.51477800,136514778,31.482101440429688,136514778,31.482101440429688
136.51480500,136514805,31.482101440429688,136514805,31.482101440429688
136.51552400,136515524,31.482101440429688,136515524,31.482101440429688
136.51554700,136515547,31.482101440429688,136515547,31.482101440429688
136.51628300,136516283,31.482101440429688,136516283,31.482101440429688
136.51630900,136516309,31.482101440429688,136516309,31.482101440429688
136.51703100,136517031,31.482101440429688,136517031,31.482101440429688
136.51705400,136517054,31.482101440429688,136517054,31.482101440429688
136.51777600,136517776,31.482101440429688,136517776,31.482101440429688
136.51780000,136517800,31.482101440429688,136517800,31.482101440429688
136.51853100,136518531,31.482101440429688,136518531,31.482101440429688
136.51855500,136518555,31.482101440429688,136518555,31.482101440429688
136.51928200,136519282,31.482101440429688,136519282,31.482101440429688
136.51930900,136519309,31.482101440429688,136519309,31.482101440429688
136.52003000,136520030,31.482101440429688,136520030,31.482101440429688
136.52005900,136520059,31.482101440429688,136520059,31.482101440429688
136.52080100,136520801,31.482101440429688,136520801,31.482101440429688
136.52082700,136520827,31.482101440429688,136520827,31.482101440429688
136.52154800,136521548,31.482101440429688,136521548,31.482101440429688
136.52157300,136521573,31.482101440429688,136521573,31.482101440429688
136.52229700,136522297,31.482101440429688,136522297,31.482101440429688
136.52232200,136522322,31.482101440429688,136522322,31.482101440429688
136.52304800,136523048,31.482101440429688,136523048,31.482101440429688
136.52307100,136523071,31.482101440429688,136523071,31.482101440429688
136.52379900,136523799,31.482101440429688,136523799,31.482101440429688
136.52382300,136523823,31.482101440429688,136523823,31.482101440429688
136.52454900,136524549,31.482101440429688,136524549,31.482101440429688
136.52457400,136524574,31.482101440429688,136524574,31.482101440429688
136.52530500,136525305,31.482101440429688,136525305,31.482101440429688
136.52533000,136525330,31.482101440429688,136525330,31.482101440429688
136.52606700,136526067,31.482101440429688,136526067,31.482101440429688
136.52609400,136526094,31.482101440429688,136526094,31.482101440429688
136.52681700,136526817,31.482101440429688,136526817,31.482101440429688
136.52684100,136526841,31.482101440429688,136526841,31.482101440429688
136.52756900,136527569,31.482101440429688,136527569,31.482101440429688
136.52759300,136527593,31.482101440429688,136527593,31.482101440429688
136.52832800,136528328,31.482101440429688,136528328,31.482101440429688
136.52835400,136528354,31.482101440429688,136528354,31.482101440429688
136.52908300,136529083,31.482101440429688,136529083,31.482101440429688
136.52911200,136529112,31.482101440429688,136529112,31.482101440429688
136.52983100,136529831,31.482101440429688,136529831,31.482101440429688
136.52985500,136529855,31.482101440429688,136529855,31.482101440429688
136.53058100,136530581,31.482101440429688,136530581,31.482101440429688
136.53066300,136530663,31.482101440429688,136530663,31.482101440429688
136.53133400,136531334,31.482101440429688,136531334,31.482101440429688
136.53135900,136531359,31.482101440429688,136531359,31.482101440429688
136.53208500,136532085,31.482101440429688,136532085,31.482101440429688
136.53211100,136532111,31.482101440429688,136532111,31.482101440429688
136.53283100,136532831,31.482101440429688,136532831,31.482101440429688
136.53285500,136532855,31.482101440429688,136532855,31.482101440429688
136.53358600,136533586,31.482101440429688,136533586,31.482101440429688
136.53361100,136533611,31.482101440429688,136533611,31.482101440429688
136.53433400,136534334,31.482101440429688,136534334,31.482101440429688
136.53435900,136534359,31.482101440429688,136534359,31.482101440429688
136.53508100,136535081,31.482101440429688,136535081,31.482101440429688
136.53510900,136535109,31.482101440429688,136535109,31.482101440429688
136.53583700,136535837,31.482101440429688,136535837,31.482101440429688
136.53586200,136535862,31.482101440429688,136535862,31.482101440429688
136.53658700,136536587,31.482101440429688,136536587,31.482101440429688
136.53661200,136536612,31.482101440429688,136536612,31.482101440429688
136.53734100,136537341,31.482101440429688,136537341,31.482101440429688
136.53736800,136537368,31.482101440429688,136537368,31.482101440429688
136.53809000,136538090,31.482101440429688,136538090,31.482101440429688
136.53818000,136538180,31.482101440429688,136538180,31.482101440429688
136.53884300,136538843,31.482101440429688,136538843,31.482101440429688
136.53887200,136538872,31.482101440429688,136538872,31.482101440429688
136.53959200,136539592,31.482101440429688,136539592,31.482101440429688
136.53961600,136539616,31.482101440429688,136539616,31.482101440429688
136.54034900,136540349,31.482101440429688,136540349,31.482101440429688
136.54037400,136540374,31.482101440429688,136540374,31.482101440429688
136.54110400,136541104,31.482101440429688,136541104,31.482101440429688
136.54113600,136541136,31.482101440429688,136541136,31.482101440429688
136.54185400,136541854,31.482101440429688,136541854,31.482101440429688
136.54188200,136541882,31.482101440429688,136541882,31.482101440429688
136.54260400,136542604,31.482101440429688,136542604,31.482101440429688
136.54263000,136542630,31.482101440429688,136542630,31.482101440429688
136.54336100,136543361,31.482101440429688,136543361,31.482101440429688
136.54339300,136543393,31.482101440429688,136543393,31.482101440429688
136.54410900,136544109,31.482101440429688,136544109,31.482101440429688
136.54413800,136544138,31.482101440429688,136544138,31.482101440429688
136.54486300,136544863,31.482101440429688,136544863,31.482101440429688
136.54488700,136544887,31.482101440429688,136544887,31.482101440429688
136.54565000,136545650,31.482101440429688,136545650,31.482101440429688
136.54568000,136545680,31.482101440429688,136545680,31.482101440429688
136.54640100,136546401,31.482101440429688,136546401,31.482101440429688
136.54642600,136546426,31.482101440429688,136546426,31.482101440429688
136.54715400,136547154,31.482101440429688,136547154,31.482101440429688
136.54718100,136547181,31.482101440429688,136547181,31.482101440429688
136.54790500,136547905,31.482101440429688,136547905,31.482101440429688
136.54792800,136547928,31.482101440429688,136547928,31.482101440429688
136.54866200,136548662,31.482101440429688,136548662,31.482101440429688
136.54868600,136548686,31.482101440429688,136548686,31.482101440429688
136.54941500,136549415,31.482101440429688,136549415,31.482101440429688
136.54944000,136549440,31.482101440429688,136549440,31.482101440429688
136.55016700,136550167,31.482101440429688,136550167,31.482101440429688
136.55019100,136550191,31.482101440429688,136550191,31.482101440429688
136.55092600,136550926,31.482101440429688,136550926,31.482101440429688
136.55115900,136551159,31.482101440429688,136551159,31.482101440429688
136.55167300,136551673,31.482101440429688,136551673,31.482101440429688
136.55169900,136551699,31.482101440429688,136551699,31.482101440429688
136.55242300,136552423,31.482101440429688,136552423,31.482101440429688
136.55244800,136552448,31.482101440429688,136552448,31.482101440429688
136.55324100,136553241,31.482101440429688,136553241,31.482101440429688
136.55326600,136553266,31.482101440429688,136553266,31.482101440429688
136.55399000,136553990,31.482101440429688,136553990,31.482101440429688
136.55401700,136554017,31.482101440429688,136554017,31.482101440429688
136.55474100,136554741,31.482101440429688,136554741,31.482101440429688
136.55476600,136554766,31.482101440429688,136554766,31.482101440429688
136.55549000,136555490,31.482101440429688,136555490,31.482101440429688
136.55551400,136555514,31.482101440429688,136555514,31.482101440429688
136.55625400,136556254,31.482101440429688,136556254,31.482101440429688
136.55628100,136556281,31.482101440429688,136556281,31.482101440429688
136.55700300,136557003,31.482101440429688,136557003,31.482101440429688
136.55702900,136557029,31.482101440429688,136557029,31.482101440429688
136.55775400,136557754,31.482101440429688,136557754,31.482101440429688
136.55777900,136557779,31.482101440429688,136557779,31.482101440429688
136.55850900,136558509,31.482101440429688,136558509,31.482101440429688
136.55853600,136558536,31.482101440429688,136558536,31.482101440429688
136.55926000,136559260,31.482101440429688,136559260,31.482101440429688
136.55928600,136559286,31.482101440429688,136559286,31.482101440429688
136.56000900,136560009,31.482101440429688,136560009,31.482101440429688
136.56003400,136560034,31.482101440429688,136560034,31.482101440429688
136.56077900,136560779,31.482101440429688,136560779,31.482101440429688
136.56080400,136560804,31.482101440429688,136560804,31.482101440429688
136.56152900,136561529,31.482101440429688,136561529,31.482101440429688
136.56155400,136561554,31.482101440429688,136561554,31.482101440429688
136.56228200,136562282,31.482101440429688,136562282,31.482101440429688
136.56230900,136562309,31.482101440429688,136562309,31.482101440429688
136.56303000,136563030,31.482101440429688,136563030,31.482101440429688
136.56305400,136563054,31.482101440429688,136563054,31.482101440429688
136.56378800,136563788,31.482101440429688,136563788,31.482101440429688
136.56381500,136563815,31.482101440429688,136563815,31.482101440429688
136.56453600,136564536,31.482101440429688,136564536,31.482101440429688
136.56455900,136564559,31.482101440429688,136564559,31.482101440429688
136.56529100,136565291,31.482101440429688,136565291,31.482101440429688
136.56531600,136565316,31.482101440429688,136565316,31.482101440429688
136.56604900,136566049,31.482101440429688,136566049,31.482101440429688
136.56607300,136566073,31.482101440429688,136566073,31.482101440429688
136.56679600,136566796,31.482101440429688,136566796,31.482101440429688
136.56682200,136566822,31.482101440429688,136566822,31.482101440429688
136.56754600,136567546,31.482101440429688,136567546,31.482101440429688
136.56757000,136567570,31.482101440429688,136567570,31.482101440429688
136.56830300,136568303,31.482101440429688,136568303,31.482101440429688
136.56833300,136568333,31.482101440429688,136568333,31.482101440429688
136.56905400,136569054,31.482101440429688,136569054,31.482101440429688
136.56908200,136569082,31.482101440429688,136569082,31.482101440429688
136.56980400,136569804,31.482101440429688,136569804,31.482101440429688
136.56982800,136569828,31.482101440429688,136569828,31.482101440429688
136.57055300,136570553,31.482101440429688,136570553,31.482101440429688
136.57057600,136570576,31.482101440429688,136570576,31.482101440429688
136.57131200,136571312,31.482101440429688,136571312,31.482101440429688
136.57133600,136571336,31.482101440429688,136571336,31.482101440429688
136.57206100,136572061,31.482101440429688,136572061,31.482101440429688
136.57208600,136572086,31.482101440429688,136572086,31.482101440429688
136.57281200,136572812,31.482101440429688,136572812,31.482101440429688
136.57283600,136572836,31.482101440429688,136572836,31.482101440429688
136.57356800,136573568,31.482101440429688,136573568,31.482101440429688
136.57359200,136573592,31.482101440429688,136573592,31.482101440429688
136.57431700,136574317,31.482101440429688,136574317,31.482101440429688
136.57434100,136574341,31.482101440429688,136574341,31.482101440429688
136.57506400,136575064,31.482101440429688,136575064,31.482101440429688
136.57509100,136575091,31.482101440429688,136575091,31.482101440429688
136.57581900,136575819,31.482101440429688,136575819,31.482101440429688
136.57584700,136575847,31.482101440429688,136575847,31.482101440429688
136.57657400,136576574,31.482101440429688,136576574,31.482101440429688
136.57660200,136576602,31.482101440429688,136576602,31.482101440429688
136.57732200,136577322,31.482101440429688,136577322,31.482101440429688
136.57734600,136577346,31.482101440429688,136577346,31.482101440429688
136.57807000,136578070,31.482101440429688,136578070,31.482101440429688
136.57815300,136578153,31.482101440429688,136578153,31.482101440429688
136.57882100,136578821,31.482101440429688,136578821,31.482101440429688
136.57884700,136578847,31.482101440429688,136578847,31.482101440429688
136.57957500,136579575,31.482101440429688,136579575,31.482101440429688
136.57960100,136579601,31.482101440429688,136579601,31.482101440429688
136.58032500,136580325,31.482101440429688,136580325,31.482101440429688
136.58034900,136580349,31.482101440429688,136580349,31.482101440429688
136.58108100,136581081,31.482101440429688,136581081,31.482101440429688
136.58110800,136581108,31.482101440429688,136581108,31.482101440429688
136.58183100,136581831,31.482101440429688,136581831,31.482101440429688
136.58185700,136581857,31.482101440429688,136581857,31.482101440429688
136.58258000,136582580,31.482101440429688,136582580,31.482101440429688
136.58260500,136582605,31.482101440429688,136582605,31.482101440429688
136.58334100,136583341,31.482101440429688,136583341,31.482101440429688
136.58336700,136583367,31.482101440429688,136583367,31.482101440429688
136.58408900,136584089,31.482101440429688,136584089,31.482101440429688
136.58411500,136584115,31.482101440429688,136584115,31.482101440429688
136.58483800,136584838,31.482101440429688,136584838,31.482101440429688
136.58486300,136584863,31.482101440429688,136584863,31.482101440429688
136.58564700,136585647,31.482101440429688,136585647,31.482101440429688
136.58567400,136585674,31.482101440429688,136585674,31.482101440429688
136.58634200,136586342,31.482101440429688,136586342,31.482101440429688
136.58636700,136586367,31.482101440429688,136586367,31.482101440429688
136.58709200,136587092,31.482101440429688,136587092,31.482101440429688
136.58711600,136587116,31.482101440429688,136587116,31.482101440429688
136.58784000,136587840,31.482101440429688,136587840,31.482101440429688
136.58786600,136587866,31.482101440429688,136587866,31.482101440429688
136.58859900,136588599,31.482101440429688,136588599,31.482101440429688
136.58862300,136588623,31.482101440429688,136588623,31.482101440429688
136.58935300,136589353,31.482101440429688,136589353,31.482101440429688
136.58937800,136589378,31.482101440429688,136589378,31.482101440429688
136.59010300,136590103,31.482101440429688,136590103,31.482101440429688
136.59012800,136590128,31.482101440429688,136590128,31.482101440429688
136.59086300,136590863,31.482101440429688,136590863,31.482101440429688
136.59089000,136590890,31.482101440429688,136590890,31.482101440429688
136.59160900,136591609,31.482101440429688,136591609,31.482101440429688
136.59163400,136591634,31.482101440429688,136591634,31.482101440429688
136.59235900,136592359,31.482101440429688,136592359,31.482101440429688
136.59238500,136592385,31.482101440429688,136592385,31.482101440429688
136.59315300,136593153,31.482101440429688,136593153,31.482101440429688
136.59318000,136593180,31.482101440429688,136593180,31.482101440429688
136.59390500,136593905,31.482101440429688,136593905,31.482101440429688
136.59393000,136593930,31.482101440429688,136593930,31.482101440429688
136.59465900,136594659,31.482101440429688,136594659,31.482101440429688
136.59468600,136594686,31.482101440429688,136594686,31.482101440429688
136.59540900,136595409,31.482101440429688,136595409,31.482101440429688
136.59543200,136595432,31.482101440429688,136595432,31.482101440429688
136.59616300,136596163,31.482101440429688,136596163,31.482101440429688
136.59618900,136596189,31.482101440429688,136596189,31.482101440429688
136.59691400,136596914,31.482101440429688,136596914,31.482101440429688
136.59693900,136596939,31.482101440429688,136596939,31.482101440429688
136.59766500,136597665,31.482101440429688,136597665,31.482101440429688
136.59769000,136597690,31.482101440429688,136597690,31.482101440429688
136.59842900,136598429,31.482101440429688,136598429,31.482101440429688
136.59845400,136598454,31.482101440429688,136598454,31.482101440429688
136.59917800,136599178,31.482101440429688,136599178,31.482101440429688
136.59920600,136599206,31.482101440429688,136599206,31.482101440429688
136.59992700,136599927,31.482101440429688,136599927,31.482101440429688
136.59995100,136599951,31.482101440429688,136599951,31.482101440429688
136.60073700,136600737,31.482101440429688,136600737,31.482101440429688
136.60076200,136600762,31.482101440429688,136600762,31.482101440429688
136.60148600,136601486,31.482101440429688,136601486,31.482101440429688
136.60151200,136601512,31.482101440429688,136601512,31.482101440429688
136.60223800,136602238,31.482101440429688,136602238,31.482101440429688
136.60226200,136602262,31.482101440429688,136602262,31.482101440429688
136.60298800,136602988,31.482101440429688,136602988,31.482101440429688
136.60301400,136603014,31.482101440429688,136603014,31.482101440429688
136.60374700,136603747,31.482101440429688,136603747,31.482101440429688
136.60377200,136603772,31.482101440429688,136603772,31.482101440429688
136.60449600,136604496,31.482101440429688,136604496,31.482101440429688
136.60452000,136604520,31.482101440429688,136604520,31.482101440429688
136.60524700,136605247,31.482101440429688,136605247,31.482101440429688
136.60527200,136605272,31.482101440429688,136605272,31.482101440429688
136.60600200,136606002,31.482101440429688,136606002,31.482101440429688
136.60602600,136606026,31.482101440429688,136606026,31.482101440429688
136.60675200,136606752,31.482101440429688,136606752,31.482101440429688
136.60677800,136606778,31.482101440429688,136606778,31.482101440429688
136.60749900,136607499,31.482101440429688,136607499,31.482101440429688
136.60752600,136607526,31.482101440429688,136607526,31.482101440429688
136.60828200,136608282,31.482101440429688,136608282,31.482101440429688
136.60831100,136608311,31.482101440429688,136608311,31.482101440429688
136.60903400,136609034,31.482101440429688,136609034,31.482101440429688
136.60905800,136609058,31.482101440429688,136609058,31.482101440429688
136.60978000,136609780,31.482101440429688,136609780,31.482101440429688
136.60980300,136609803,31.482101440429688,136609803,31.482101440429688
136.61053100,136610531,31.482101440429688,136610531,31.482101440429688
136.61055600,136610556,31.482101440429688,136610556,31.482101440429688
136.61128800,136611288,31.482101440429688,136611288,31.482101440429688
136.61131800,136611318,31.482101440429688,136611318,31.482101440429688
136.61203700,136612037,31.482101440429688,136612037,31.482101440429688
136.61206300,136612063,31.482101440429688,136612063,31.482101440429688
136.61278600,136612786,31.482101440429688,136612786,31.482101440429688
136.61281300,136612813,31.482101440429688,136612813,31.482101440429688
136.61354900,136613549,31.482101440429688,136613549,31.482101440429688
136.61357400,136613574,31.482101440429688,136613574,31.482101440429688
136.61429800,136614298,31.482101440429688,136614298,31.482101440429688
136.61432800,136614328,31.482101440429688,136614328,31.482101440429688
136.61504800,136615048,31.482101440429688,136615048,31.482101440429688
136.61507300,136615073,31.482101440429688,136615073,31.482101440429688
136.61580300,136615803,31.482101440429688,136615803,31.482101440429688
136.61583400,136615834,31.482101440429688,136615834,31.482101440429688
136.61655600,136616556,31.482101440429688,136616556,31.482101440429688
136.61658500,136616585,31.482101440429688,136616585,31.482101440429688
136.61730400,136617304,31.482101440429688,136617304,31.482101440429688
136.61733400,136617334,31.482101440429688,136617334,31.482101440429688
136.61805300,136618053,31.482101440429688,136618053,31.482101440429688
136.61807700,136618077,31.482101440429688,136618077,31.482101440429688
136.61880900,136618809,31.482101440429688,136618809,31.482101440429688
136.61883500,136618835,31.482101440429688,136618835,31.482101440429688
136.61955300,136619553,31.482101440429688,136619553,31.482101440429688
136.61957800,136619578,31.482101440429688,136619578,31.482101440429688
136.62030400,136620304,31.482101440429688,136620304,31.482101440429688
136.62033300,136620333,31.482101440429688,136620333,31.482101440429688
136.62105900,136621059,31.482101440429688,136621059,31.482101440429688
136.62108400,136621084,31.482101440429688,136621084,31.482101440429688
136.62180600,136621806,31.482101440429688,136621806,31.482101440429688
136.62183000,136621830,31.482101440429688,136621830,31.482101440429688
136.62256300,136622563,31.482101440429688,136622563,31.482101440429688
136.62258800,136622588,31.482101440429688,136622588,31.482101440429688
136.62332000,136623320,31.482101440429688,136623320,31.482101440429688
136.62335000,136623350,31.482101440429688,136623350,31.482101440429688
136.62407200,136624072,31.482101440429688,136624072,31.482101440429688
136.62410000,136624100,31.482101440429688,136624100,31.482101440429688
136.62481900,136624819,31.482101440429688,136624819,31.482101440429688
136.62484400,136624844,31.482101440429688,136624844,31.482101440429688
136.62556800,136625568,31.482101440429688,136625568,31.482101440429688
136.62565200,136625652,31.482101440429688,136625652,31.482101440429688
136.62632200,136626322,31.482101440429688,136626322,31.482101440429688
136.62635100,136626351,31.482101440429688,136626351,31.482101440429688
136.62707100,136627071,31.482101440429688,136627071,31.482101440429688
136.62709500,136627095,31.482101440429688,136627095,31.482101440429688
136.62782300,136627823,31.482101440429688,136627823,31.482101440429688
136.62784700,136627847,31.482101440429688,136627847,31.482101440429688
136.62857800,136628578,31.482101440429688,136628578,31.482101440429688
136.62860600,136628606,31.482101440429688,136628606,31.482101440429688
136.62932700,136629327,31.482101440429688,136629327,31.482101440429688
136.62935700,136629357,31.482101440429688,136629357,31.482101440429688
136.63008000,136630080,31.482101440429688,136630080,31.482101440429688
136.63010600,136630106,31.482101440429688,136630106,31.482101440429688
136.63083700,136630837,31.482101440429688,136630837,31.482101440429688
136.63086200,136630862,31.482101440429688,136630862,31.482101440429688
136.63158800,136631588,31.482101440429688,136631588,31.482101440429688
136.63161400,136631614,31.482101440429688,136631614,31.482101440429688
136.63233800,136632338,31.482101440429688,136632338,31.482101440429688
136.63236600,136632366,31.482101440429688,136632366,31.482101440429688
136.63314400,136633144,31.482101440429688,136633144,31.482101440429688
136.63317300,136633173,31.482101440429688,136633173,31.482101440429688
136.63383900,136633839,31.482101440429688,136633839,31.482101440429688
136.63386400,136633864,31.482101440429688,136633864,31.482101440429688
136.63459000,136634590,31.482101440429688,136634590,31.482101440429688
136.63461400,136634614,31.482101440429688,136634614,31.482101440429688
136.63534600,136635346,31.482101440429688,136635346,31.482101440429688
136.63537500,136635375,31.482101440429688,136635375,31.482101440429688
136.63610100,136636101,31.482101440429688,136636101,31.482101440429688
136.63612600,136636126,31.482101440429688,136636126,31.482101440429688
136.63685000,136636850,31.482101440429688,136636850,31.482101440429688
136.63687700,136636877,31.482101440429688,136636877,31.482101440429688
136.63760100,136637601,31.482101440429688,136637601,31.482101440429688
136.63762600,136637626,31.482101440429688,136637626,31.482101440429688
136.63836400,136638364,31.482101440429688,136638364,31.482101440429688
136.63839300,136638393,31.482101440429688,136638393,31.482101440429688
136.63911400,136639114,31.482101440429688,136639114,31.482101440429688
136.63914100,136639141,31.482101440429688,136639141,31.482101440429688
136.63986600,136639866,31.482101440429688,136639866,31.482101440429688
136.63989200,136639892,31.482101440429688,136639892,31.482101440429688
136.64064400,136640644,31.482101440429688,136640644,31.482101440429688
136.64066900,136640669,31.482101440429688,136640669,31.482101440429688
136.64140100,136641401,31.482101440429688,136641401,31.482101440429688
136.64142700,136641427,31.482101440429688,136641427,31.482101440429688
136.64215400,136642154,31.482101440429688,136642154,31.482101440429688
136.64218000,136642180,31.482101440429688,136642180,31.482101440429688
136.64290400,136642904,31.482101440429688,136642904,31.482101440429688
136.64292900,136642929,31.482101440429688,136642929,31.482101440429688
136.64365900,136643659,31.482101440429688,136643659,31.482101440429688
136.64368600,136643686,31.482101440429688,136643686,31.482101440429688
136.64441500,136644415,31.482101440429688,136644415,31.482101440429688
136.64444000,136644440,31.482101440429688,136644440,31.482101440429688
136.64516400,136645164,31.482101440429688,136645164,31.482101440429688
136.64519000,136645190,31.482101440429688,136645190,31.482101440429688
136.64592700,136645927,31.482101440429688,136645927,31.482101440429688
136.64615700,136646157,31.482101440429688,136646157,31.482101440429688
136.64667100,136646671,31.482101440429688,136646671,31.482101440429688
136.64669500,136646695,31.482101440429688,136646695,31.482101440429688
136.64743000,136647430,31.482101440429688,136647430,31.482101440429688
136.64745500,136647455,31.482101440429688,136647455,31.482101440429688
136.64823900,136648239,31.482101440429688,136648239,31.482101440429688
136.64826500,136648265,31.482101440429688,136648265,31.482101440429688
136.64899100,136648991,31.482101440429688,136648991,31.482101440429688
136.64901600,136649016,31.482101440429688,136649016,31.482101440429688
136.64974400,136649744,31.482101440429688,136649744,31.482101440429688
136.64976800,136649768,31.482101440429688,136649768,31.482101440429688
136.65049300,136650493,31.482101440429688,136650493,31.482101440429688
136.65051700,136650517,31.482101440429688,136650517,31.482101440429688
136.65125600,136651256,31.482101440429688,136651256,31.482101440429688
136.65128300,136651283,31.482101440429688,136651283,31.482101440429688
136.65200400,136652004,31.482101440429688,136652004,31.482101440429688
136.65202900,136652029,31.482101440429688,136652029,31.482101440429688
136.65275400,136652754,31.482101440429688,136652754,31.482101440429688
136.65277800,136652778,31.482101440429688,136652778,31.482101440429688
136.65351900,136653519,31.482101440429688,136653519,31.482101440429688
136.65354300,136653543,31.482101440429688,136653543,31.482101440429688
136.65427600,136654276,31.482101440429688,136654276,31.482101440429688
136.65430300,136654303,31.482101440429688,136654303,31.482101440429688
136.65502500,136655025,31.482101440429688,136655025,31.482101440429688
136.65505100,136655051,31.482101440429688,136655051,31.482101440429688
136.65578500,136655785,31.482101440429688,136655785,31.482101440429688
136.65581100,136655811,31.482101440429688,136655811,31.482101440429688
136.65654000,136656540,31.482101440429688,136656540,31.482101440429688
136.65656500,136656565,31.482101440429688,136656565,31.482101440429688
136.65729100,136657291,31.482101440429688,136657291,31.482101440429688
136.65731500,136657315,31.482101440429688,136657315,31.482101440429688
136.65803800,136658038,31.482101440429688,136658038,31.482101440429688
136.65806200,136658062,31.482101440429688,136658062,31.482101440429688
136.65879300,136658793,31.482101440429688,136658793,31.482101440429688
136.65881800,136658818,31.482101440429688,136658818,31.482101440429688
136.65954400,136659544,31.482101440429688,136659544,31.482101440429688
136.65956700,136659567,31.482101440429688,136659567,31.482101440429688
136.66029300,136660293,31.482101440429688,136660293,31.482101440429688
136.66031700,136660317,31.482101440429688,136660317,31.482101440429688
136.66105000,136661050,31.482101440429688,136661050,31.482101440429688
136.66107400,136661074,31.482101440429688,136661074,31.482101440429688
136.66179900,136661799,31.482101440429688,136661799,31.482101440429688
136.66182500,136661825,31.482101440429688,136661825,31.482101440429688
136.66255200,136662552,31.482101440429688,136662552,31.482101440429688
136.66257700,136662577,31.482101440429688,136662577,31.482101440429688
136.66330700,136663307,31.482101440429688,136663307,31.482101440429688
136.66333300,136663333,31.482101440429688,136663333,31.482101440429688
136.66406100,136664061,31.482101440429688,136664061,31.482101440429688
136.66408600,136664086,31.482101440429688,136664086,31.482101440429688
136.66480800,136664808,31.482101440429688,136664808,31.482101440429688
136.66483200,136664832,31.482101440429688,136664832,31.482101440429688
136.66556700,136665567,31.482101440429688,136665567,31.482101440429688
136.66565000,136665650,31.482101440429688,136665650,31.482101440429688
136.66631900,136666319,31.482101440429688,136666319,31.482101440429688
136.66634700,136666347,31.482101440429688,136666347,31.482101440429688
136.66706900,136667069,31.482101440429688,136667069,31.482101440429688
136.66709300,136667093,31.482101440429688,136667093,31.482101440429688
136.66782100,136667821,31.482101440429688,136667821,31.482101440429688
136.66784500,136667845,31.482101440429688,136667845,31.482101440429688
136.66858200,136668582,31.482101440429688,136668582,31.482101440429688
136.66860700,136668607,31.482101440429688,136668607,31.482101440429688
136.66933000,136669330,31.482101440429688,136669330,31.482101440429688
136.66935500,136669355,31.482101440429688,136669355,31.482101440429688
136.67008100,136670081,31.482101440429688,136670081,31.482101440429688
136.67010800,136670108,31.482101440429688,136670108,31.482101440429688
136.67083800,136670838,31.482101440429688,136670838,31.482101440429688
136.67086400,136670864,31.482101440429688,136670864,31.482101440429688
136.67159100,136671591,31.482101440429688,136671591,31.482101440429688
136.67161800,136671618,31.482101440429688,136671618,31.482101440429688
136.67234000,136672340,31.482101440429688,136672340,31.482101440429688
136.67236500,136672365,31.482101440429688,136672365,31.482101440429688
136.67314400,136673144,31.482101440429688,136673144,31.482101440429688
136.67317400,136673174,31.482101440429688,136673174,31.482101440429688
136.67383900,136673839,31.482101440429688,136673839,31.482101440429688
136.67386500,136673865,31.482101440429688,136673865,31.482101440429688
136.67459700,136674597,31.482101440429688,136674597,31.482101440429688
136.67462200,136674622,31.482101440429688,136674622,31.482101440429688
136.67534700,136675347,31.482101440429688,136675347,31.482101440429688
136.67537100,136675371,31.482101440429688,136675371,31.482101440429688
136.67610200,136676102,31.482101440429688,136676102,31.482101440429688
136.67613000,136676130,31.482101440429688,136676130,31.482101440429688
136.67685200,136676852,31.482101440429688,136676852,31.482101440429688
136.67687700,136676877,31.482101440429688,136676877,31.482101440429688
136.67760300,136677603,31.482101440429688,136677603,31.482101440429688
136.67762900,136677629,31.482101440429688,136677629,31.482101440429688
136.67836300,136678363,31.482101440429688,136678363,31.482101440429688
136.67838800,136678388,31.482101440429688,136678388,31.482101440429688
136.67911400,136679114,31.482101440429688,136679114,31.482101440429688
136.67914100,136679141,31.482101440429688,136679141,31.482101440429688
136.67986100,136679861,31.482101440429688,136679861,31.482101440429688
136.67988600,136679886,31.482101440429688,136679886,31.482101440429688
136.68064700,136680647,31.482101440429688,136680647,31.482101440429688
136.68068000,136680680,31.482101440429688,136680680,31.482101440429688
136.68139500,136681395,31.482101440429688,136681395,31.482101440429688
136.68142200,136681422,31.482101440429688,136681422,31.482101440429688
136.68214400,136682144,31.482101440429688,136682144,31.482101440429688
136.68217000,136682170,31.482101440429688,136682170,31.482101440429688
136.68289200,136682892,31.482101440429688,136682892,31.482101440429688
136.68291900,136682919,31.482101440429688,136682919,31.482101440429688
136.68364700,136683647,31.482101440429688,136683647,31.482101440429688
136.68367200,136683672,31.482101440429688,136683672,31.482101440429688
136.68439800,136684398,31.482101440429688,136684398,31.482101440429688
136.68442300,136684423,31.482101440429688,136684423,31.482101440429688
136.68514600,136685146,31.482101440429688,136685146,31.482101440429688
136.68517200,136685172,31.482101440429688,136685172,31.482101440429688
136.68590400,136685904,31.482101440429688,136685904,31.482101440429688
136.68613400,136686134,31.482101440429688,136686134,31.482101440429688
136.68665200,136686652,31.482101440429688,136686652,31.482101440429688
136.68667800,136686678,31.482101440429688,136686678,31.482101440429688
136.68740100,136687401,31.482101440429688,136687401,31.482101440429688
136.68742700,136687427,31.482101440429688,136687427,31.482101440429688
136.68815800,136688158,31.482101440429688,136688158,31.482101440429688
136.68818300,136688183,31.482101440429688,136688183,31.482101440429688
136.68891200,136688912,31.482101440429688,136688912,31.482101440429688
136.68893700,136688937,31.482101440429688,136688937,31.482101440429688
136.68966300,136689663,31.482101440429688,136689663,31.482101440429688
136.68968800,136689688,31.482101440429688,136689688,31.482101440429688
136.69041400,136690414,31.482101440429688,136690414,31.482101440429688
136.69043900,136690439,31.482101440429688,136690439,31.482101440429688
136.69117000,136691170,31.482101440429688,136691170,31.482101440429688
136.69119400,136691194,31.482101440429688,136691194,31.482101440429688
136.69191700,136691917,31.482101440429688,136691917,31.482101440429688
136.69194200,136691942,31.482101440429688,136691942,31.482101440429688
136.69266600,136692666,31.482101440429688,136692666,31.482101440429688
136.69269100,136692691,31.482101440429688,136692691,31.482101440429688
136.69343000,136693430,31.482101440429688,136693430,31.482101440429688
136.69345700,136693457,31.482101440429688,136693457,31.482101440429688
136.69418200,136694182,31.482101440429688,136694182,31.482101440429688
136.69420600,136694206,31.482101440429688,136694206,31.482101440429688
136.69492900,136694929,31.482101440429688,136694929,31.482101440429688
136.69495300,136694953,31.482101440429688,136694953,31.482101440429688
136.69574100,136695741,31.482101440429688,136695741,31.482101440429688
136.69576800,136695768,31.482101440429688,136695768,31.482101440429688
136.69649200,136696492,31.482101440429688,136696492,31.482101440429688
136.69652100,136696521,31.482101440429688,136696521,31.482101440429688
136.69724200,136697242,31.482101440429688,136697242,31.482101440429688
136.69726600,136697266,31.482101440429688,136697266,31.482101440429688
136.69798900,136697989,31.482101440429688,136697989,31.482101440429688
136.69801300,136698013,31.482101440429688,136698013,31.482101440429688
136.69874500,136698745,31.482101440429688,136698745,31.482101440429688
136.69877000,136698770,31.482101440429688,136698770,31.482101440429688
136.69949400,136699494,31.482101440429688,136699494,31.482101440429688
136.69952200,136699522,31.482101440429688,136699522,31.482101440429688
136.70024600,136700246,31.482101440429688,136700246,31.482101440429688
136.70027200,136700272,31.482101440429688,136700272,31.482101440429688
136.70100000,136701000,31.482101440429688,136701000,31.482101440429688
136.70102500,136701025,31.482101440429688,136701025,31.482101440429688
136.70175300,136701753,31.482101440429688,136701753,31.482101440429688
136.70177900,136701779,31.482101440429688,136701779,31.482101440429688
136.70250400,136702504,31.482101440429688,136702504,31.482101440429688
136.70253300,136702533,31.482101440429688,136702533,31.482101440429688
136.70328500,136703285,31.482101440429688,136703285,31.482101440429688
136.70331100,136703311,31.482101440429688,136703311,31.482101440429688
136.70402900,136704029,31.482101440429688,136704029,31.482101440429688
136.70405600,136704056,31.482101440429688,136704056,31.482101440429688
136.70477700,136704777,31.482101440429688,136704777,31.482101440429688
136.70480300,136704803,31.482101440429688,136704803,31.482101440429688
136.70552800,136705528,31.482101440429688,136705528,31.482101440429688
136.70555500,136705555,31.482101440429688,136705555,31.482101440429688
136.70627900,136706279,31.482101440429688,136706279,31.482101440429688
136.70630600,136706306,31.482101440429688,136706306,31.482101440429688
136.70702600,136707026,31.482101440429688,136707026,31.482101440429688
136.70704900,136707049,31.482101440429688,136707049,31.482101440429688
136.70777900,136707779,31.482101440429688,136707779,31.482101440429688
136.70780400,136707804,31.482101440429688,136707804,31.482101440429688
136.70853500,136708535,31.482101440429688,136708535,31.482101440429688
136.70856400,136708564,31.482101440429688,136708564,31.482101440429688
136.70928200,136709282,31.482101440429688,136709282,31.482101440429688
136.70930900,136709309,31.482101440429688,136709309,31.482101440429688
136.71003100,136710031,31.482101440429688,136710031,31.482101440429688
136.71005600,136710056,31.482101440429688,136710056,31.482101440429688
136.71079100,136710791,31.482101440429688,136710791,31.482101440429688
136.71081800,136710818,31.482101440429688,136710818,31.482101440429688
136.71154200,136711542,31.482101440429688,136711542,31.482101440429688
136.71157100,136711571,31.482101440429688,136711571,31.482101440429688
136.71229200,136712292,31.482101440429688,136712292,31.482101440429688
136.71231800,136712318,31.482101440429688,136712318,31.482101440429688
136.71304300,136713043,31.482101440429688,136713043,31.482101440429688
136.71306700,136713067,31.482101440429688,136713067,31.482101440429688
136.71379800,136713798,31.482101440429688,136713798,31.482101440429688
136.71382300,136713823,31.482101440429688,136713823,31.482101440429688
136.71454800,136714548,31.482101440429688,136714548,31.482101440429688
136.71457700,136714577,31.482101440429688,136714577,31.482101440429688
136.71529600,136715296,31.482101440429688,136715296,31.482101440429688
136.71532100,136715321,31.482101440429688,136715321,31.482101440429688
136.71605700,136716057,31.482101440429688,136716057,31.482101440429688
136.71608200,136716082,31.482101440429688,136716082,31.482101440429688
136.71680500,136716805,31.482101440429688,136716805,31.482101440429688
136.71683100,136716831,31.482101440429688,136716831,31.482101440429688
136.71755300,136717553,31.482101440429688,136717553,31.482101440429688
136.71758200,136717582,31.482101440429688,136717582,31.482101440429688
136.71831000,136718310,31.482101440429688,136718310,31.482101440429688
136.71833700,136718337,31.482101440429688,136718337,31.482101440429688
136.71906500,136719065,31.482101440429688,136719065,31.482101440429688
136.71909400,136719094,31.482101440429688,136719094,31.482101440429688
136.71981300,136719813,31.482101440429688,136719813,31.482101440429688
136.71983800,136719838,31.482101440429688,136719838,31.482101440429688
136.72056200,136720562,31.482101440429688,136720562,31.482101440429688
136.72065100,136720651,31.482101440429688,136720651,31.482101440429688
136.72131600,136721316,31.482101440429688,136721316,31.482101440429688
136.72134100,136721341,31.482101440429688,136721341,31.482101440429688
136.72206700,136722067,31.482101440429688,136722067,31.482101440429688
136.72209300,136722093,31.482101440429688,136722093,31.482101440429688
136.72282300,136722823,31.482101440429688,136722823,31.482101440429688
136.72284700,136722847,31.482101440429688,136722847,31.482101440429688
136.72358500,136723585,31.482101440429688,136723585,31.482101440429688
136.72361100,136723611,31.482101440429688,136723611,31.482101440429688
136.72433400,136724334,31.482101440429688,136724334,31.482101440429688
136.72436100,136724361,31.482101440429688,136724361,31.482101440429688
136.72508100,136725081,31.482101440429688,136725081,31.482101440429688
136.72510500,136725105,31.482101440429688,136725105,31.482101440429688
136.72583800,136725838,31.482101440429688,136725838,31.482101440429688
136.72586400,136725864,31.482101440429688,136725864,31.482101440429688
136.72659000,136726590,31.482101440429688,136726590,31.482101440429688
136.72661800,136726618,31.482101440429688,136726618,31.482101440429688
136.72734000,136727340,31.482101440429688,136727340,31.482101440429688
136.72736500,136727365,31.482101440429688,136727365,31.482101440429688
136.72814300,136728143,31.482101440429688,136728143,31.482101440429688
136.72817100,136728171,31.482101440429688,136728171,31.482101440429688
136.72884100,136728841,31.482101440429688,136728841,31.482101440429688
136.72886500,136728865,31.482101440429688,136728865,31.482101440429688
136.72959600,136729596,31.482101440429688,136729596,31.482101440429688
136.72962000,136729620,31.482101440429688,136729620,31.482101440429688
136.73034300,136730343,31.482101440429688,136730343,31.482101440429688
136.73036700,136730367,31.482101440429688,136730367,31.482101440429688
136.73110100,136731101,31.482101440429688,136731101,31.482101440429688
136.73112600,136731126,31.482101440429688,136731126,31.482101440429688
136.73185000,136731850,31.482101440429688,136731850,31.482101440429688
136.73187500,136731875,31.482101440429688,136731875,31.482101440429688
136.73260400,136732604,31.482101440429688,136732604,31.482101440429688
136.73263200,136732632,31.482101440429688,136732632,31.482101440429688
136.73335700,136733357,31.482101440429688,136733357,31.482101440429688
136.73338500,136733385,31.482101440429688,136733385,31.482101440429688
136.73410900,136734109,31.482101440429688,136734109,31.482101440429688
136.73413500,136734135,31.482101440429688,136734135,31.482101440429688
136.73485700,136734857,31.482101440429688,136734857,31.482101440429688
136.73488300,136734883,31.482101440429688,136734883,31.482101440429688
136.73565300,136735653,31.482101440429688,136735653,31.482101440429688
136.73567800,136735678,31.482101440429688,136735678,31.482101440429688
136.73640200,136736402,31.482101440429688,136736402,31.482101440429688
136.73642900,136736429,31.482101440429688,136736429,31.482101440429688
136.73715600,136737156,31.482101440429688,136737156,31.482101440429688
136.73718200,136737182,31.482101440429688,136737182,31.482101440429688
136.73790400,136737904,31.482101440429688,136737904,31.482101440429688
136.73792800,136737928,31.482101440429688,136737928,31.482101440429688
136.73865800,136738658,31.482101440429688,136738658,31.482101440429688
136.73868300,136738683,31.482101440429688,136738683,31.482101440429688
136.73941100,136739411,31.482101440429688,136739411,31.482101440429688
136.73943600,136739436,31.482101440429688,136739436,31.482101440429688
136.74016900,136740169,31.482101440429688,136740169,31.482101440429688
136.74019300,136740193,31.482101440429688,136740193,31.482101440429688
136.74092400,136740924,31.482101440429688,136740924,31.482101440429688
136.74094900,136740949,31.482101440429688,136740949,31.482101440429688
136.74167300,136741673,31.482101440429688,136741673,31.482101440429688
136.74169800,136741698,31.482101440429688,136741698,31.482101440429688
136.74243000,136742430,31.482101440429688,136742430,31.482101440429688
136.74245500,136742455,31.482101440429688,136742455,31.482101440429688
136.74324100,136743241,31.482101440429688,136743241,31.482101440429688
136.74326900,136743269,31.482101440429688,136743269,31.482101440429688
136.74399300,136743993,31.482101440429688,136743993,31.482101440429688
136.74401800,136744018,31.482101440429688,136744018,31.482101440429688
136.74474500,136744745,31.482101440429688,136744745,31.482101440429688
136.74476900,136744769,31.482101440429688,136744769,31.482101440429688
136.74549200,136745492,31.482101440429688,136745492,31.482101440429688
136.74551500,136745515,31.482101440429688,136745515,31.482101440429688
136.74624900,136746249,31.482101440429688,136746249,31.482101440429688
136.74627300,136746273,31.482101440429688,136746273,31.482101440429688
136.74699900,136746999,31.482101440429688,136746999,31.482101440429688
136.74702400,136747024,31.482101440429688,136747024,31.482101440429688
136.74775000,136747750,31.482101440429688,136747750,31.482101440429688
136.74777500,136747775,31.482101440429688,136747775,31.482101440429688
136.74850800,136748508,31.482101440429688,136748508,31.482101440429688
136.74853300,136748533,31.482101440429688,136748533,31.482101440429688
136.74925600,136749256,31.482101440429688,136749256,31.482101440429688
136.74928100,136749281,31.482101440429688,136749281,31.482101440429688
136.75000300,136750003,31.482101440429688,136750003,31.482101440429688
136.75002900,136750029,31.482101440429688,136750029,31.482101440429688
136.75078100,136750781,31.482101440429688,136750781,31.482101440429688
136.75080900,136750809,31.482101440429688,136750809,31.482101440429688
136.75153200,136751532,31.482101440429688,136751532,31.482101440429688
136.75155700,136751557,31.482101440429688,136751557,31.482101440429688
136.75228100,136752281,31.482101440429688,136752281,31.482101440429688
136.75230800,136752308,31.482101440429688,136752308,31.482101440429688
136.75302900,136753029,31.482101440429688,136753029,31.482101440429688
136.75305400,136753054,31.482101440429688,136753054,31.482101440429688
136.75378600,136753786,31.482101440429688,136753786,31.482101440429688
136.75381200,136753812,31.482101440429688,136753812,31.482101440429688
136.75453400,136754534,31.482101440429688,136754534,31.482101440429688
136.75455800,136754558,31.482101440429688,136754558,31.482101440429688
136.75528700,136755287,31.482101440429688,136755287,31.482101440429688
136.75531100,136755311,31.482101440429688,136755311,31.482101440429688
136.75603800,136756038,31.482101440429688,136756038,31.482101440429688
136.75606300,136756063,31.482101440429688,136756063,31.482101440429688
136.75678900,136756789,31.482101440429688,136756789,31.482101440429688
136.75681400,136756814,31.482101440429688,136756814,31.482101440429688
136.75753900,136757539,31.482101440429688,136757539,31.482101440429688
136.75756300,136757563,31.482101440429688,136757563,31.482101440429688
136.75829500,136758295,31.482101440429688,136758295,31.482101440429688
136.75832100,136758321,31.482101440429688,136758321,31.482101440429688
136.75904400,136759044,31.482101440429688,136759044,31.482101440429688
136.75906900,136759069,31.482101440429688,136759069,31.482101440429688
136.75979100,136759791,31.482101440429688,136759791,31.482101440429688
136.75982000,136759820,31.482101440429688,136759820,31.482101440429688
136.76054000,136760540,31.482101440429688,136760540,31.482101440429688
136.76056400,136760564,31.482101440429688,136760564,31.482101440429688
136.76129700,136761297,31.482101440429688,136761297,31.482101440429688
136.76132400,136761324,31.482101440429688,136761324,31.482101440429688
136.76204500,136762045,31.482101440429688,136762045,31.482101440429688
136.76206800,136762068,31.482101440429688,136762068,31.482101440429688
136.76279500,136762795,31.482101440429688,136762795,31.482101440429688
136.76282100,136762821,31.482101440429688,136762821,31.482101440429688
136.76355100,136763551,31.482101440429688,136763551,31.482101440429688
136.76357600,136763576,31.482101440429688,136763576,31.482101440429688
136.76429800,136764298,31.482101440429688,136764298,31.482101440429688
136.76432200,136764322,31.482101440429688,136764322,31.482101440429688
136.76505000,136765050,31.482101440429688,136765050,31.482101440429688
136.76507500,136765075,31.482101440429688,136765075,31.482101440429688
136.76580700,136765807,31.482101440429688,136765807,31.482101440429688
136.76583600,136765836,31.482101440429688,136765836,31.482101440429688
136.76655700,136766557,31.482101440429688,136766557,31.482101440429688
136.76658200,136766582,31.482101440429688,136766582,31.482101440429688
136.76730600,136767306,31.482101440429688,136767306,31.482101440429688
136.76733100,136767331,31.482101440429688,136767331,31.482101440429688
136.76805100,136768051,31.482101440429688,136768051,31.482101440429688
136.76807500,136768075,31.482101440429688,136768075,31.482101440429688
136.76880800,136768808,31.482101440429688,136768808,31.482101440429688
136.76883400,136768834,31.482101440429688,136768834,31.482101440429688
136.76955600,136769556,31.482101440429688,136769556,31.482101440429688
136.76957900,136769579,31.482101440429688,136769579,31.482101440429688
136.77030600,136770306,31.482101440429688,136770306,31.482101440429688
136.77033000,136770330,31.482101440429688,136770330,31.482101440429688
136.77106100,136771061,31.482101440429688,136771061,31.482101440429688
136.77108600,136771086,31.482101440429688,136771086,31.482101440429688
136.77180900,136771809,31.482101440429688,136771809,31.482101440429688
136.77183300,136771833,31.482101440429688,136771833,31.482101440429688
136.77256100,136772561,31.482101440429688,136772561,31.482101440429688
136.77258600,136772586,31.482101440429688,136772586,31.482101440429688
136.77331900,136773319,31.482101440429688,136773319,31.482101440429688
136.77334500,136773345,31.482101440429688,136773345,31.482101440429688
136.77407100,136774071,31.482101440429688,136774071,31.482101440429688
136.77410200,136774102,31.482101440429688,136774102,31.482101440429688
136.77482100,136774821,31.482101440429688,136774821,31.482101440429688
136.77484600,136774846,31.482101440429688,136774846,31.482101440429688
136.77558100,136775581,31.482101440429688,136775581,31.482101440429688
136.77566200,136775662,31.482101440429688,136775662,31.482101440429688
136.77632900,136776329,31.482101440429688,136776329,31.482101440429688
136.77635400,136776354,31.482101440429688,136776354,31.482101440429688
136.77707600,136777076,31.482101440429688,136777076,31.482101440429688
136.77710000,136777100,31.482101440429688,136777100,31.482101440429688
136.77783500,136777835,31.482101440429688,136777835,31.482101440429688
136.77785900,136777859,31.482101440429688,136777859,31.482101440429688
136.77859400,136778594,31.482101440429688,136778594,31.482101440429688
136.77861900,136778619,31.482101440429688,136778619,31.482101440429688
136.77934200,136779342,31.482101440429688,136779342,31.482101440429688
136.77936700,136779367,31.482101440429688,136779367,31.482101440429688
136.78009100,136780091,31.482101440429688,136780091,31.482101440429688
136.78011500,136780115,31.482101440429688,136780115,31.482101440429688
136.78085100,136780851,31.482101440429688,136780851,31.482101440429688
136.78087700,136780877,31.482101440429688,136780877,31.482101440429688
136.78160800,136781608,31.482101440429688,136781608,31.482101440429688
136.78163400,136781634,31.482101440429688,136781634,31.482101440429688
136.78235600,136782356,31.482101440429688,136782356,31.482101440429688
136.78238200,136782382,31.482101440429688,136782382,31.482101440429688
136.78315200,136783152,31.482101440429688,136783152,31.482101440429688
136.78318000,136783180,31.482101440429688,136783180,31.482101440429688
136.78390400,136783904,31.482101440429688,136783904,31.482101440429688
136.78393000,136783930,31.482101440429688,136783930,31.482101440429688
136.78465800,136784658,31.482101440429688,136784658,31.482101440429688
136.78468300,136784683,31.482101440429688,136784683,31.482101440429688
136.78540600,136785406,31.482101440429688,136785406,31.482101440429688
136.78543100,136785431,31.482101440429688,136785431,31.482101440429688
136.78616100,136786161,31.482101440429688,136786161,31.482101440429688
136.78618500,136786185,31.482101440429688,136786185,31.482101440429688
136.78691400,136786914,31.482101440429688,136786914,31.482101440429688
136.78693900,136786939,31.482101440429688,136786939,31.482101440429688
136.78767100,136787671,31.482101440429688,136787671,31.482101440429688
136.78769500,136787695,31.482101440429688,136787695,31.482101440429688
136.78843300,136788433,31.482101440429688,136788433,31.482101440429688
136.78866300,136788663,31.482101440429688,136788663,31.482101440429688
136.78918200,136789182,31.482101440429688,136789182,31.482101440429688
136.78920500,136789205,31.482101440429688,136789205,31.482101440429688
136.78993000,136789930,31.482101440429688,136789930,31.482101440429688
136.78995500,136789955,31.482101440429688,136789955,31.482101440429688
136.79073900,136790739,31.482101440429688,136790739,31.482101440429688
136.79076700,136790767,31.482101440429688,136790767,31.482101440429688
136.79149200,136791492,31.482101440429688,136791492,31.482101440429688
136.79151700,136791517,31.482101440429688,136791517,31.482101440429688
136.79224100,136792241,31.482101440429688,136792241,31.482101440429688
136.79226800,136792268,31.482101440429688,136792268,31.482101440429688
136.79298700,136792987,31.482101440429688,136792987,31.482101440429688
136.79301100,136793011,31.482101440429688,136793011,31.482101440429688
136.79374500,136793745,31.482101440429688,136793745,31.482101440429688
136.79377000,136793770,31.482101440429688,136793770,31.482101440429688
136.79449200,136794492,31.482101440429688,136794492,31.482101440429688
136.79451600,136794516,31.482101440429688,136794516,31.482101440429688
136.79524400,136795244,31.482101440429688,136795244,31.482101440429688
136.79526900,136795269,31.482101440429688,136795269,31.482101440429688
136.79600000,136796000,31.482101440429688,136796000,31.482101440429688
136.79602400,136796024,31.482101440429688,136796024,31.482101440429688
136.79675800,136796758,31.482101440429688,136796758,31.482101440429688
136.79678300,136796783,31.482101440429688,136796783,31.482101440429688
136.79750600,136797506,31.482101440429688,136797506,31.482101440429688
136.79753100,136797531,31.482101440429688,136797531,31.482101440429688
136.79828100,136798281,31.482101440429688,136798281,31.482101440429688
136.79830800,136798308,31.482101440429688,136798308,31.482101440429688
136.79903100,136799031,31.482101440429688,136799031,31.482101440429688
136.79905600,136799056,31.482101440429688,136799056,31.482101440429688
136.79978200,136799782,31.482101440429688,136799782,31.482101440429688
136.79981100,136799811,31.482101440429688,136799811,31.482101440429688
136.80052900,136800529,31.482101440429688,136800529,31.482101440429688
136.80055300,136800553,31.482101440429688,136800553,31.482101440429688
136.80128800,136801288,31.482101440429688,136801288,31.482101440429688
136.80131400,136801314,31.482101440429688,136801314,31.482101440429688
136.80203300,136802033,31.482101440429688,136802033,31.482101440429688
136.80205800,136802058,31.482101440429688,136802058,31.482101440429688
136.80278600,136802786,31.482101440429688,136802786,31.482101440429688
136.80281600,136802816,31.482101440429688,136802816,31.482101440429688
136.80354200,136803542,31.482101440429688,136803542,31.482101440429688
136.80356700,136803567,31.482101440429688,136803567,31.482101440429688
136.80429100,136804291,31.482101440429688,136804291,31.482101440429688
136.80431500,136804315,31.482101440429688,136804315,31.482101440429688
136.80503700,136805037,31.482101440429688,136805037,31.482101440429688
136.80506200,136805062,31.482101440429688,136805062,31.482101440429688
136.80579200,136805792,31.482101440429688,136805792,31.482101440429688
136.80582300,136805823,31.482101440429688,136805823,31.482101440429688
136.80654400,136806544,31.482101440429688,136806544,31.482101440429688
136.80656900,136806569,31.482101440429688,136806569,31.482101440429688
136.80729300,136807293,31.482101440429688,136807293,31.482101440429688
136.80731800,136807318,31.482101440429688,136807318,31.482101440429688
136.80804200,136808042,31.482101440429688,136808042,31.482101440429688
136.80806600,136808066,31.482101440429688,136808066,31.482101440429688
136.80879700,136808797,31.482101440429688,136808797,31.482101440429688
136.80882400,136808824,31.482101440429688,136808824,31.482101440429688
136.80954400,136809544,31.482101440429688,136809544,31.482101440429688
136.80956800,136809568,31.482101440429688,136809568,31.482101440429688
136.81029600,136810296,31.482101440429688,136810296,31.482101440429688
136.81032200,136810322,31.482101440429688,136810322,31.482101440429688
136.81105400,136811054,31.482101440429688,136811054,31.482101440429688
136.81107900,136811079,31.482101440429688,136811079,31.482101440429688
136.81180200,136811802,31.482101440429688,136811802,31.482101440429688
136.81182700,136811827,31.482101440429688,136811827,31.482101440429688
136.81255200,136812552,31.482101440429688,136812552,31.482101440429688
136.81257700,136812577,31.482101440429688,136812577,31.482101440429688
136.81330700,136813307,31.482101440429688,136813307,31.482101440429688
136.81333500,136813335,31.482101440429688,136813335,31.482101440429688
136.81406000,136814060,31.482101440429688,136814060,31.482101440429688
136.81408600,136814086,31.482101440429688,136814086,31.482101440429688
136.81481100,136814811,31.482101440429688,136814811,31.482101440429688
136.81483900,136814839,31.482101440429688,136814839,31.482101440429688
136.81555900,136815559,31.482101440429688,136815559,31.482101440429688
136.81558700,136815587,31.482101440429688,136815587,31.482101440429688
136.81631700,136816317,31.482101440429688,136816317,31.482101440429688
136.81634200,136816342,31.482101440429688,136816342,31.482101440429688
136.81706400,136817064,31.482101440429688,136817064,31.482101440429688
136.81708800,136817088,31.482101440429688,136817088,31.482101440429688
136.81782300,136817823,31.482101440429688,136817823,31.482101440429688
136.81784700,136817847,31.482101440429688,136817847,31.482101440429688
136.81858000,136818580,31.482101440429688,136818580,31.482101440429688
136.81860400,136818604,31.482101440429688,136818604,31.482101440429688
136.81932800,136819328,31.482101440429688,136819328,31.482101440429688
136.81935200,136819352,31.482101440429688,136819352,31.482101440429688
136.82007800,136820078,31.482101440429688,136820078,31.482101440429688
136.82010300,136820103,31.482101440429688,136820103,31.482101440429688
136.82083700,136820837,31.482101440429688,136820837,31.482101440429688
136.82086700,136820867,31.482101440429688,136820867,31.482101440429688
136.82158900,136821589,31.482101440429688,136821589,31.482101440429688
136.82161600,136821616,31.482101440429688,136821616,31.482101440429688
136.82233600,136822336,31.482101440429688,136822336,31.482101440429688
136.82236000,136822360,31.482101440429688,136822360,31.482101440429688
136.82314500,136823145,31.482101440429688,136823145,31.482101440429688
136.82317100,136823171,31.482101440429688,136823171,31.482101440429688
136.82384100,136823841,31.482101440429688,136823841,31.482101440429688
136.82387000,136823870,31.482101440429688,136823870,31.482101440429688
136.82458900,136824589,31.482101440429688,136824589,31.482101440429688
136.82461300,136824613,31.482101440429688,136824613,31.482101440429688
136.82534300,136825343,31.482101440429688,136825343,31.482101440429688
136.82536700,136825367,31.482101440429688,136825367,31.482101440429688
136.82609800,136826098,31.482101440429688,136826098,31.482101440429688
136.82632800,136826328,31.482101440429688,136826328,31.482101440429688
136.82684600,136826846,31.482101440429688,136826846,31.482101440429688
136.82687300,136826873,31.482101440429688,136826873,31.482101440429688
136.82759700,136827597,31.482101440429688,136827597,31.482101440429688
136.82762100,136827621,31.482101440429688,136827621,31.482101440429688
136.82835600,136828356,31.482101440429688,136828356,31.482101440429688
136.82838200,136828382,31.482101440429688,136828382,31.482101440429688
136.82910600,136829106,31.482101440429688,136829106,31.482101440429688
136.82913100,136829131,31.482101440429688,136829131,31.482101440429688
136.82985300,136829853,31.482101440429688,136829853,31.482101440429688
136.82988200,136829882,31.482101440429688,136829882,31.482101440429688
136.83065200,136830652,31.482101440429688,136830652,31.482101440429688
136.83067700,136830677,31.482101440429688,136830677,31.482101440429688
136.83140500,136831405,31.482101440429688,136831405,31.482101440429688
136.83143000,136831430,31.482101440429688,136831430,31.482101440429688
136.83215800,136832158,31.482101440429688,136832158,31.482101440429688
136.83218300,136832183,31.482101440429688,136832183,31.482101440429688
136.83290500,136832905,31.482101440429688,136832905,31.482101440429688
136.83292900,136832929,31.482101440429688,136832929,31.482101440429688
136.83366300,136833663,31.482101440429688,136833663,31.482101440429688
136.83368700,136833687,31.482101440429688,136833687,31.482101440429688
136.83441300,136834413,31.482101440429688,136834413,31.482101440429688
136.83444100,136834441,31.482101440429688,136834441,31.482101440429688
136.83516200,136835162,31.482101440429688,136835162,31.482101440429688
136.83518700,136835187,31.482101440429688,136835187,31.482101440429688
136.83592200,136835922,31.482101440429688,136835922,31.482101440429688
136.83615200,136836152,31.482101440429688,136836152,31.482101440429688
136.83666900,136836669,31.482101440429688,136836669,31.482101440429688
136.83669200,136836692,31.482101440429688,136836692,31.482101440429688
136.83742000,136837420,31.482101440429688,136837420,31.482101440429688
136.83744400,136837444,31.482101440429688,136837444,31.482101440429688
136.83817500,136838175,31.482101440429688,136838175,31.482101440429688
136.83820000,136838200,31.482101440429688,136838200,31.482101440429688
136.83892500,136838925,31.482101440429688,136838925,31.482101440429688
136.83895000,136838950,31.482101440429688,136838950,31.482101440429688
136.83967800,136839678,31.482101440429688,136839678,31.482101440429688
136.83970400,136839704,31.482101440429688,136839704,31.482101440429688
136.84042500,136840425,31.482101440429688,136840425,31.482101440429688
136.84045000,136840450,31.482101440429688,136840450,31.482101440429688
136.84118000,136841180,31.482101440429688,136841180,31.482101440429688
136.84120700,136841207,31.482101440429688,136841207,31.482101440429688
136.84193100,136841931,31.482101440429688,136841931,31.482101440429688
136.84195500,136841955,31.482101440429688,136841955,31.482101440429688
136.84268000,136842680,31.482101440429688,136842680,31.482101440429688
136.84270500,136842705,31.482101440429688,136842705,31.482101440429688
136.84343400,136843434,31.482101440429688,136843434,31.482101440429688
136.84345900,136843459,31.482101440429688,136843459,31.482101440429688
136.84418200,136844182,31.482101440429688,136844182,31.482101440429688
136.84420800,136844208,31.482101440429688,136844208,31.482101440429688
136.84493000,136844930,31.482101440429688,136844930,31.482101440429688
136.84495500,136844955,31.482101440429688,136844955,31.482101440429688
136.84574100,136845741,31.482101440429688,136845741,31.482101440429688
136.84576700,136845767,31.482101440429688,136845767,31.482101440429688
136.84649200,136846492,31.482101440429688,136846492,31.482101440429688
136.84651700,136846517,31.482101440429688,136846517,31.482101440429688
136.84724700,136847247,31.482101440429688,136847247,31.482101440429688
136.84727200,136847272,31.482101440429688,136847272,31.482101440429688
136.84799300,136847993,31.482101440429688,136847993,31.482101440429688
136.84801600,136848016,31.482101440429688,136848016,31.482101440429688
136.84875000,136848750,31.482101440429688,136848750,31.482101440429688
136.84877500,136848775,31.482101440429688,136848775,31.482101440429688
136.84949700,136849497,31.482101440429688,136849497,31.482101440429688
136.84952300,136849523,31.482101440429688,136849523,31.482101440429688
136.85025200,136850252,31.482101440429688,136850252,31.482101440429688
136.85027700,136850277,31.482101440429688,136850277,31.482101440429688
136.85100600,136851006,31.482101440429688,136851006,31.482101440429688
136.85123500,136851235,31.482101440429688,136851235,31.482101440429688
136.85175800,136851758,31.482101440429688,136851758,31.482101440429688
136.85178100,136851781,31.482101440429688,136851781,31.482101440429688
136.85250900,136852509,31.482101440429688,136852509,31.482101440429688
136.85253400,136852534,31.482101440429688,136852534,31.482101440429688
136.85328900,136853289,31.482101440429688,136853289,31.482101440429688
136.85331500,136853315,31.482101440429688,136853315,31.482101440429688
136.85404200,136854042,31.482101440429688,136854042,31.482101440429688
136.85406700,136854067,31.482101440429688,136854067,31.482101440429688
136.85479100,136854791,31.482101440429688,136854791,31.482101440429688
136.85481500,136854815,31.482101440429688,136854815,31.482101440429688
136.85554100,136855541,31.482101440429688,136855541,31.482101440429688
136.85556500,136855565,31.482101440429688,136855565,31.482101440429688
136.85629900,136856299,31.482101440429688,136856299,31.482101440429688
136.85632300,136856323,31.482101440429688,136856323,31.482101440429688
136.85705100,136857051,31.482101440429688,136857051,31.482101440429688
136.85707600,136857076,31.482101440429688,136857076,31.482101440429688
136.85779900,136857799,31.482101440429688,136857799,31.482101440429688
136.85782400,136857824,31.482101440429688,136857824,31.482101440429688
136.85855700,136858557,31.482101440429688,136858557,31.482101440429688
136.85858200,136858582,31.482101440429688,136858582,31.482101440429688
136.85930700,136859307,31.482101440429688,136859307,31.482101440429688
136.85933300,136859333,31.482101440429688,136859333,31.482101440429688
136.86005800,136860058,31.482101440429688,136860058,31.482101440429688
136.86008200,136860082,31.482101440429688,136860082,31.482101440429688
136.86081900,136860819,31.482101440429688,136860819,31.482101440429688
136.86084500,136860845,31.482101440429688,136860845,31.482101440429688
136.86156700,136861567,31.482101440429688,136861567,31.482101440429688
136.86159200,136861592,31.482101440429688,136861592,31.482101440429688
136.86231900,136862319,31.482101440429688,136862319,31.482101440429688
136.86234600,136862346,31.482101440429688,136862346,31.482101440429688
136.86306600,136863066,31.482101440429688,136863066,31.482101440429688
136.86315300,136863153,31.482101440429688,136863153,31.482101440429688
136.86382000,136863820,31.482101440429688,136863820,31.482101440429688
136.86384700,136863847,31.482101440429688,136863847,31.482101440429688
136.86456900,136864569,31.482101440429688,136864569,31.482101440429688
136.86459800,136864598,31.482101440429688,136864598,31.482101440429688
136.86531800,136865318,31.482101440429688,136865318,31.482101440429688
136.86534200,136865342,31.482101440429688,136865342,31.482101440429688
136.86607500,136866075,31.482101440429688,136866075,31.482101440429688
136.86630700,136866307,31.482101440429688,136866307,31.482101440429688
136.86682500,136866825,31.482101440429688,136866825,31.482101440429688
136.86684900,136866849,31.482101440429688,136866849,31.482101440429688
136.86757700,136867577,31.482101440429688,136867577,31.482101440429688
136.86760200,136867602,31.482101440429688,136867602,31.482101440429688
136.86834300,136868343,31.482101440429688,136868343,31.482101440429688
136.86837100,136868371,31.482101440429688,136868371,31.482101440429688
136.86909800,136869098,31.482101440429688,136869098,31.482101440429688
136.86912400,136869124,31.482101440429688,136869124,31.482101440429688
136.86984700,136869847,31.482101440429688,136869847,31.482101440429688
136.86987200,136869872,31.482101440429688,136869872,31.482101440429688
136.87065800,136870658,31.482101440429688,136870658,31.482101440429688
136.87068300,136870683,31.482101440429688,136870683,31.482101440429688
136.87140800,136871408,31.482101440429688,136871408,31.482101440429688
136.87143300,136871433,31.482101440429688,136871433,31.482101440429688
136.87216300,136872163,31.482101440429688,136872163,31.482101440429688
136.87218800,136872188,31.482101440429688,136872188,31.482101440429688
136.87291100,136872911,31.482101440429688,136872911,31.482101440429688
136.87293500,136872935,31.482101440429688,136872935,31.482101440429688
136.87366600,136873666,31.482101440429688,136873666,31.482101440429688
136.87369000,136873690,31.482101440429688,136873690,31.482101440429688
136.87441900,136874419,31.482101440429688,136874419,31.482101440429688
136.87444500,136874445,31.482101440429688,136874445,31.482101440429688
136.87516900,136875169,31.482101440429688,136875169,31.482101440429688
136.87519400,136875194,31.482101440429688,136875194,31.482101440429688
136.87592800,136875928,31.482101440429688,136875928,31.482101440429688
136.87595700,136875957,31.482101440429688,136875957,31.482101440429688
136.87667900,136876679,31.482101440429688,136876679,31.482101440429688
136.87670400,136876704,31.482101440429688,136876704,31.482101440429688
136.87743600,136877436,31.482101440429688,136877436,31.482101440429688
136.87746100,136877461,31.482101440429688,136877461,31.482101440429688
136.87823900,136878239,31.482101440429688,136878239,31.482101440429688
136.87826600,136878266,31.482101440429688,136878266,31.482101440429688
136.87898800,136878988,31.482101440429688,136878988,31.482101440429688
136.87901700,136879017,31.482101440429688,136879017,31.482101440429688
136.87974700,136879747,31.482101440429688,136879747,31.482101440429688
136.87977200,136879772,31.482101440429688,136879772,31.482101440429688
136.88049500,136880495,31.482101440429688,136880495,31.482101440429688
136.88051900,136880519,31.482101440429688,136880519,31.482101440429688
136.88125000,136881250,31.482101440429688,136881250,31.482101440429688
136.88127500,136881275,31.482101440429688,136881275,31.482101440429688
136.88199700,136881997,31.482101440429688,136881997,31.482101440429688
136.88202500,136882025,31.482101440429688,136882025,31.482101440429688
136.88275000,136882750,31.482101440429688,136882750,31.482101440429688
136.88277600,136882776,31.482101440429688,136882776,31.482101440429688
136.88350600,136883506,31.482101440429688,136883506,31.482101440429688
136.88353000,136883530,31.482101440429688,136883530,31.482101440429688
136.88425500,136884255,31.482101440429688,136884255,31.482101440429688
136.88428200,136884282,31.482101440429688,136884282,31.482101440429688
136.88500600,136885006,31.482101440429688,136885006,31.482101440429688
136.88503500,136885035,31.482101440429688,136885035,31.482101440429688
136.88577900,136885779,31.482101440429688,136885779,31.482101440429688
136.88580900,136885809,31.482101440429688,136885809,31.482101440429688
136.88653300,136886533,31.482101440429688,136886533,31.482101440429688
136.88655800,136886558,31.482101440429688,136886558,31.482101440429688
136.88728100,136887281,31.482101440429688,136887281,31.482101440429688
136.88730900,136887309,31.482101440429688,136887309,31.482101440429688
136.88803100,136888031,31.482101440429688,136888031,31.482101440429688
136.88805400,136888054,31.482101440429688,136888054,31.482101440429688
136.88878600,136888786,31.482101440429688,136888786,31.482101440429688
136.88881200,136888812,31.482101440429688,136888812,31.482101440429688
136.88953500,136889535,31.482101440429688,136889535,31.482101440429688
136.88956000,136889560,31.482101440429688,136889560,31.482101440429688
136.89028400,136890284,31.482101440429688,136890284,31.482101440429688
136.89031000,136890310,31.482101440429688,136890310,31.482101440429688
136.89104100,136891041,31.482101440429688,136891041,31.482101440429688
136.89106500,136891065,31.482101440429688,136891065,31.482101440429688
136.89179100,136891791,31.482101440429688,136891791,31.482101440429688
136.89181500,136891815,31.482101440429688,136891815,31.482101440429688
136.89254100,136892541,31.482101440429688,136892541,31.482101440429688
136.89256600,136892566,31.482101440429688,136892566,31.482101440429688
136.89330000,136893300,31.482101440429688,136893300,31.482101440429688
136.89332600,136893326,31.482101440429688,136893326,31.482101440429688
136.89405200,136894052,31.482101440429688,136894052,31.482101440429688
136.89408100,136894081,31.482101440429688,136894081,31.482101440429688
136.89480300,136894803,31.482101440429688,136894803,31.482101440429688
136.89482800,136894828,31.482101440429688,136894828,31.482101440429688
136.89555300,136895553,31.482101440429688,136895553,31.482101440429688
136.89557700,136895577,31.482101440429688,136895577,31.482101440429688
136.89631000,136896310,31.482101440429688,136896310,31.482101440429688
136.89633600,136896336,31.482101440429688,136896336,31.482101440429688
136.89706000,136897060,31.482101440429688,136897060,31.482101440429688
136.89708400,136897084,31.482101440429688,136897084,31.482101440429688
136.89781200,136897812,31.482101440429688,136897812,31.482101440429688
136.89783700,136897837,31.482101440429688,136897837,31.482101440429688
136.89856700,136898567,31.482101440429688,136898567,31.482101440429688
136.89859400,136898594,31.482101440429688,136898594,31.482101440429688
136.89931600,136899316,31.482101440429688,136899316,31.482101440429688
136.89934000,136899340,31.482101440429688,136899340,31.482101440429688
136.90006900,136900069,31.482101440429688,136900069,31.482101440429688
136.90009300,136900093,31.482101440429688,136900093,31.482101440429688
136.90082500,136900825,31.482101440429688,136900825,31.482101440429688
136.90085200,136900852,31.482101440429688,136900852,31.482101440429688
136.90157800,136901578,31.482101440429688,136901578,31.482101440429688
136.90160300,136901603,31.482101440429688,136901603,31.482101440429688
136.90233300,136902333,31.482101440429688,136902333,31.482101440429688
136.90235800,136902358,31.482101440429688,136902358,31.482101440429688
136.90314600,136903146,31.482101440429688,136903146,31.482101440429688
136.90317200,136903172,31.482101440429688,136903172,31.482101440429688
136.90383500,136903835,31.482101440429688,136903835,31.482101440429688
136.90386000,136903860,31.482101440429688,136903860,31.482101440429688
136.90458600,136904586,31.482101440429688,136904586,31.482101440429688
136.90461100,136904611,31.482101440429688,136904611,31.482101440429688
136.90533400,136905334,31.482101440429688,136905334,31.482101440429688
136.90535900,136905359,31.482101440429688,136905359,31.482101440429688
136.90609100,136906091,31.482101440429688,136906091,31.482101440429688
136.90611600,136906116,31.482101440429688,136906116,31.482101440429688
136.90684000,136906840,31.482101440429688,136906840,31.482101440429688
136.90686500,136906865,31.482101440429688,136906865,31.482101440429688
136.90758700,136907587,31.482101440429688,136907587,31.482101440429688
136.90761400,136907614,31.482101440429688,136907614,31.482101440429688
136.90834700,136908347,31.482101440429688,136908347,31.482101440429688
136.90837500,136908375,31.482101440429688,136908375,31.482101440429688
136.90909900,136909099,31.482101440429688,136909099,31.482101440429688
136.90912400,136909124,31.482101440429688,136909124,31.482101440429688
136.90984700,136909847,31.482101440429688,136909847,31.482101440429688
136.90987400,136909874,31.482101440429688,136909874,31.482101440429688
136.91065400,136910654,31.482101440429688,136910654,31.482101440429688
136.91068400,136910684,31.482101440429688,136910684,31.482101440429688
136.91134800,136911348,31.482101440429688,136911348,31.482101440429688
136.91137400,136911374,31.482101440429688,136911374,31.482101440429688
136.91209900,136912099,31.482101440429688,136912099,31.482101440429688
136.91212300,136912123,31.482101440429688,136912123,31.482101440429688
136.91285200,136912852,31.482101440429688,136912852,31.482101440429688
136.91287600,136912876,31.482101440429688,136912876,31.482101440429688
136.91360900,136913609,31.482101440429688,136913609,31.482101440429688
136.91363400,136913634,31.482101440429688,136913634,31.482101440429688
136.91436000,136914360,31.482101440429688,136914360,31.482101440429688
136.91438500,136914385,31.482101440429688,136914385,31.482101440429688
136.91511300,136915113,31.482101440429688,136915113,31.482101440429688
136.91513700,136915137,31.482101440429688,136915137,31.482101440429688
136.91586900,136915869,31.482101440429688,136915869,31.482101440429688
136.91589500,136915895,31.482101440429688,136915895,31.482101440429688
136.91661700,136916617,31.482101440429688,136916617,31.482101440429688
136.91664600,136916646,31.482101440429688,136916646,31.482101440429688
136.91736800,136917368,31.482101440429688,136917368,31.482101440429688
136.91739300,136917393,31.482101440429688,136917393,31.482101440429688
136.91815600,136918156,31.482101440429688,136918156,31.482101440429688
136.91818400,136918184,31.482101440429688,136918184,31.482101440429688
136.91890400,136918904,31.482101440429688,136918904,31.482101440429688
136.91893000,136918930,31.482101440429688,136918930,31.482101440429688
136.91965200,136919652,31.482101440429688,136919652,31.482101440429688
136.91967900,136919679,31.482101440429688,136919679,31.482101440429688
136.92040100,136920401,31.482101440429688,136920401,31.482101440429688
136.92042500,136920425,31.482101440429688,136920425,31.482101440429688
136.92115800,136921158,31.482101440429688,136921158,31.482101440429688
136.92118200,136921182,31.482101440429688,136921182,31.482101440429688
136.92190700,136921907,31.482101440429688,136921907,31.482101440429688
136.92193200,136921932,31.482101440429688,136921932,31.482101440429688
136.92265900,136922659,31.482101440429688,136922659,31.482101440429688
136.92268400,136922684,31.482101440429688,136922684,31.482101440429688
136.92341900,136923419,31.482101440429688,136923419,31.482101440429688
136.92344500,136923445,31.482101440429688,136923445,31.482101440429688
136.92417000,136924170,31.482101440429688,136924170,31.482101440429688
136.92419500,136924195,31.482101440429688,136924195,31.482101440429688
136.92491700,136924917,31.482101440429688,136924917,31.482101440429688
136.92494300,136924943,31.482101440429688,136924943,31.482101440429688
136.92572500,136925725,31.482101440429688,136925725,31.482101440429688
136.92575600,136925756,31.482101440429688,136925756,31.482101440429688
136.92647500,136926475,31.482101440429688,136926475,31.482101440429688
136.92650200,136926502,31.482101440429688,136926502,31.482101440429688
136.92723000,136927230,31.482101440429688,136927230,31.482101440429688
136.92725500,136927255,31.482101440429688,136927255,31.482101440429688
136.92798000,136927980,31.482101440429688,136927980,31.482101440429688
136.92800300,136928003,31.482101440429688,136928003,31.482101440429688
136.92873500,136928735,31.482101440429688,136928735,31.482101440429688
136.92876000,136928760,31.482101440429688,136928760,31.482101440429688
136.92948200,136929482,31.482101440429688,136929482,31.482101440429688
136.92950700,136929507,31.482101440429688,136929507,31.482101440429688
136.93023900,136930239,31.482101440429688,136930239,31.482101440429688
136.93026400,136930264,31.482101440429688,136930264,31.482101440429688
136.93099600,136930996,31.482101440429688,136930996,31.482101440429688
136.93102000,136931020,31.482101440429688,136931020,31.482101440429688
136.93174800,136931748,31.482101440429688,136931748,31.482101440429688
136.93177400,136931774,31.482101440429688,136931774,31.482101440429688
136.93249800,136932498,31.482101440429688,136932498,31.482101440429688
136.93252200,136932522,31.482101440429688,136932522,31.482101440429688
136.93327800,136933278,31.482101440429688,136933278,31.482101440429688
136.93330600,136933306,31.482101440429688,136933306,31.482101440429688
136.93403100,136934031,31.482101440429688,136934031,31.482101440429688
136.93405600,136934056,31.482101440429688,136934056,31.482101440429688
136.93477900,136934779,31.482101440429688,136934779,31.482101440429688
136.93480300,136934803,31.482101440429688,136934803,31.482101440429688
136.93552900,136935529,31.482101440429688,136935529,31.482101440429688
136.93555300,136935553,31.482101440429688,136935553,31.482101440429688
136.93628700,136936287,31.482101440429688,136936287,31.482101440429688
136.93631700,136936317,31.482101440429688,136936317,31.482101440429688
136.93703400,136937034,31.482101440429688,136937034,31.482101440429688
136.93705800,136937058,31.482101440429688,136937058,31.482101440429688
136.93779000,136937790,31.482101440429688,136937790,31.482101440429688
136.93781400,136937814,31.482101440429688,136937814,31.482101440429688
136.93854700,136938547,31.482101440429688,136938547,31.482101440429688
136.93857200,136938572,31.482101440429688,136938572,31.482101440429688
136.93930000,136939300,31.482101440429688,136939300,31.482101440429688
136.93932500,136939325,31.482101440429688,136939325,31.482101440429688
136.94004800,136940048,31.482101440429688,136940048,31.482101440429688
136.94007200,136940072,31.482101440429688,136940072,31.482101440429688
136.94080400,136940804,31.482101440429688,136940804,31.482101440429688
136.94083000,136940830,31.482101440429688,136940830,31.482101440429688
136.94155200,136941552,31.482101440429688,136941552,31.482101440429688
136.94157800,136941578,31.482101440429688,136941578,31.482101440429688
136.94230500,136942305,31.482101440429688,136942305,31.482101440429688
136.94233000,136942330,31.482101440429688,136942330,31.482101440429688
136.94305200,136943052,31.482101440429688,136943052,31.482101440429688
136.94307800,136943078,31.482101440429688,136943078,31.482101440429688
136.94381100,136943811,31.482101440429688,136943811,31.482101440429688
136.94383600,136943836,31.482101440429688,136943836,31.482101440429688
136.94455900,136944559,31.482101440429688,136944559,31.482101440429688
136.94458300,136944583,31.482101440429688,136944583,31.482101440429688
136.94531300,136945313,31.482101440429688,136945313,31.482101440429688
136.94533800,136945338,31.482101440429688,136945338,31.482101440429688
136.94606800,136946068,31.482101440429688,136946068,31.482101440429688
136.94609300,136946093,31.482101440429688,136946093,31.482101440429688
136.94681800,136946818,31.482101440429688,136946818,31.482101440429688
136.94684200,136946842,31.482101440429688,136946842,31.482101440429688
136.94756700,136947567,31.482101440429688,136947567,31.482101440429688
136.94759400,136947594,31.482101440429688,136947594,31.482101440429688
136.94832700,136948327,31.482101440429688,136948327,31.482101440429688
136.94835300,136948353,31.482101440429688,136948353,31.482101440429688
136.94908600,136949086,31.482101440429688,136949086,31.482101440429688
136.94911200,136949112,31.482101440429688,136949112,31.482101440429688
136.94983200,136949832,31.482101440429688,136949832,31.482101440429688
136.94985700,136949857,31.482101440429688,136949857,31.482101440429688
136.95058200,136950582,31.482101440429688,136950582,31.482101440429688
136.95066000,136950660,31.482101440429688,136950660,31.482101440429688
136.95133500,136951335,31.482101440429688,136951335,31.482101440429688
136.95136100,136951361,31.482101440429688,136951361,31.482101440429688
136.95208500,136952085,31.482101440429688,136952085,31.482101440429688
136.95211100,136952111,31.482101440429688,136952111,31.482101440429688
136.95283400,136952834,31.482101440429688,136952834,31.482101440429688
136.95285700,136952857,31.482101440429688,136952857,31.482101440429688
136.95359100,136953591,31.482101440429688,136953591,31.482101440429688
136.95361600,136953616,31.482101440429688,136953616,31.482101440429688
136.95434100,136954341,31.482101440429688,136954341,31.482101440429688
136.95436800,136954368,31.482101440429688,136954368,31.482101440429688
136.95509300,136955093,31.482101440429688,136955093,31.482101440429688
136.95511700,136955117,31.482101440429688,136955117,31.482101440429688
136.95585000,136955850,31.482101440429688,136955850,31.482101440429688
136.95587500,136955875,31.482101440429688,136955875,31.482101440429688
136.95660200,136956602,31.482101440429688,136956602,31.482101440429688
136.95662700,136956627,31.482101440429688,136956627,31.482101440429688
136.95734900,136957349,31.482101440429688,136957349,31.482101440429688
136.95737400,136957374,31.482101440429688,136957374,31.482101440429688
136.95815300,136958153,31.482101440429688,136958153,31.482101440429688
136.95817800,136958178,31.482101440429688,136958178,31.482101440429688
136.95890500,136958905,31.482101440429688,136958905,31.482101440429688
136.95893000,136958930,31.482101440429688,136958930,31.482101440429688
136.95965600,136959656,31.482101440429688,136959656,31.482101440429688
136.95968100,136959681,31.482101440429688,136959681,31.482101440429688
136.96040500,136960405,31.482101440429688,136960405,31.482101440429688
136.96042800,136960428,31.482101440429688,136960428,31.482101440429688
136.96116100,136961161,31.482101440429688,136961161,31.482101440429688
136.96118700,136961187,31.482101440429688,136961187,31.482101440429688
136.96191000,136961910,31.482101440429688,136961910,31.482101440429688
136.96193500,136961935,31.482101440429688,136961935,31.482101440429688
136.96266200,136962662,31.482101440429688,136962662,31.482101440429688
136.96268800,136962688,31.482101440429688,136962688,31.482101440429688
136.96342400,136963424,31.482101440429688,136963424,31.482101440429688
136.96344800,136963448,31.482101440429688,136963448,31.482101440429688
136.96417500,136964175,31.482101440429688,136964175,31.482101440429688
136.96420000,136964200,31.482101440429688,136964200,31.482101440429688
136.96492300,136964923,31.482101440429688,136964923,31.482101440429688
136.96494700,136964947,31.482101440429688,136964947,31.482101440429688
136.96573700,136965737,31.482101440429688,136965737,31.482101440429688
136.96576200,136965762,31.482101440429688,136965762,31.482101440429688
136.96648700,136966487,31.482101440429688,136966487,31.482101440429688
136.96651300,136966513,31.482101440429688,136966513,31.482101440429688
136.96724700,136967247,31.482101440429688,136967247,31.482101440429688
136.96727400,136967274,31.482101440429688,136967274,31.482101440429688
136.96799400,136967994,31.482101440429688,136967994,31.482101440429688
136.96801900,136968019,31.482101440429688,136968019,31.482101440429688
136.96874900,136968749,31.482101440429688,136968749,31.482101440429688
136.96877400,136968774,31.482101440429688,136968774,31.482101440429688
136.96949700,136969497,31.482101440429688,136969497,31.482101440429688
136.96952300,136969523,31.482101440429688,136969523,31.482101440429688
136.97024700,136970247,31.482101440429688,136970247,31.482101440429688
136.97027600,136970276,31.482101440429688,136970276,31.482101440429688
136.97100100,136971001,31.482101440429688,136971001,31.482101440429688
136.97102500,136971025,31.482101440429688,136971025,31.482101440429688
136.97175400,136971754,31.482101440429688,136971754,31.482101440429688
136.97177800,136971778,31.482101440429688,136971778,31.482101440429688
136.97250200,136972502,31.482101440429688,136972502,31.482101440429688
136.97252900,136972529,31.482101440429688,136972529,31.482101440429688
136.97328800,136973288,31.482101440429688,136973288,31.482101440429688
136.97331500,136973315,31.482101440429688,136973315,31.482101440429688
136.97403600,136974036,31.482101440429688,136974036,31.482101440429688
136.97406200,136974062,31.482101440429688,136974062,31.482101440429688
136.97478600,136974786,31.482101440429688,136974786,31.482101440429688
136.97481100,136974811,31.482101440429688,136974811,31.482101440429688
136.97553300,136975533,31.482101440429688,136975533,31.482101440429688
136.97555700,136975557,31.482101440429688,136975557,31.482101440429688
136.97628900,136976289,31.482101440429688,136976289,31.482101440429688
136.97631700,136976317,31.482101440429688,136976317,31.482101440429688
136.97703400,136977034,31.482101440429688,136977034,31.482101440429688
136.97705800,136977058,31.482101440429688,136977058,31.482101440429688
136.97778700,136977787,31.482101440429688,136977787,31.482101440429688
136.97781100,136977811,31.482101440429688,136977811,31.482101440429688
136.97854300,136978543,31.482101440429688,136978543,31.482101440429688
136.97877300,136978773,31.482101440429688,136978773,31.482101440429688
136.97929700,136979297,31.482101440429688,136979297,31.482101440429688
136.97932200,136979322,31.482101440429688,136979322,31.482101440429688
136.98004300,136980043,31.482101440429688,136980043,31.482101440429688
136.98006600,136980066,31.482101440429688,136980066,31.482101440429688
136.98079900,136980799,31.482101440429688,136980799,31.482101440429688
