timestamp,TimeUS,I,GyrX,GyrY,GyrZ,AccX,AccY,AccZ,EG,EA,T,GH,AH,GHz,AHz
124.50517200,124505172,1,-6.597248077392578,6.599724292755127,-6.596115589141846,-0.4953553378582001,-0.14801418781280518,-10.00109577178955,0,0,44.0,0,1,272,286
124.50798800,124507988,1,-6.026371955871582,6.028722763061523,-6.02512264251709,-0.49499818682670593,-0.148448184132576,-10.003738403320312,0,0,44.0,1,1,272,286
124.51048900,124510489,1,-6.026371955871582,6.028722763061523,-6.02512264251709,-0.49499818682670593,-0.148448184132576,-10.003738403320312,0,0,44.0,0,0,272,286
124.51285000,124512850,1,-4.720511436462402,4.722585678100586,-4.719468593597412,-0.4946097433567047,-0.14886315166950226,-10.006196022033691,0,0,44.0,1,1,272,286
124.51546800,124515468,1,-4.720511436462402,4.722585678100586,-4.719468593597412,-0.49433884024620056,-0.14925912022590637,-10.008329391479492,0,0,44.0,0,1,272,286
124.51846300,124518463,1,-3.164546012878418,3.166351556777954,-3.164055109024048,-0.49433884024620056,-0.14925912022590637,-10.008329391479492,0,0,44.0,1,0,272,286
124.52267900,124522679,1,-1.7444181442260742,1.7460432052612305,-1.7446993589401245,-0.4941765367984772,-0.14963625371456146,-10.010086059570312,0,0,44.0,1,1,272,286
124.52517900,124525179,1,-1.7444181442260742,1.7460432052612305,-1.7446993589401245,-0.49396947026252747,-0.14999468624591827,-10.011490821838379,0,0,44.0,0,1,272,286
124.52794000,124527940,1,-0.6673824191093445,0.6689013838768005,-0.6685128808021545,-0.4936498701572418,-0.1503346860408783,-10.012569427490234,0,0,44.0,1,1,272,286
124.53029300,124530293,1,-0.6673824191093445,0.6689013838768005,-0.6685128808021545,-0.4936498701572418,-0.1503346860408783,-10.012569427490234,0,0,44.0,0,0,272,286
124.53279200,124532792,1,0.020277315750718117,-0.018808629363775253,0.018307456746697426,-0.4932284951210022,-0.15065650641918182,-10.013272285461426,0,0,44.0,1,1,272,286
124.53525500,124535255,1,0.020277315750718117,-0.018808629363775253,0.018307456746697426,-0.4927156865596771,-0.15096047520637512,-10.013556480407715,0,0,44.0,0,1,272,286
124.53843800,124538438,1,0.3738340437412262,-0.3723364770412445,0.3710783123970032,-0.4927156865596771,-0.15096047520637512,-10.013556480407715,0,0,44.0,1,0,272,286
124.54280000,124542800,1,0.4899100363254547,-0.4882626533508301,0.48652052879333496,-0.4914538860321045,-0.1515164077281952,-10.013571739196777,0,0,44.0,1,1,272,286
124.54527000,124545270,1,0.4899100363254547,-0.4882626533508301,0.48652052879333496,-0.4914538860321045,-0.1515164077281952,-10.013571739196777,0,0,44.0,0,0,272,286
124.54758900,124547589,1,0.4646589756011963,-0.462822288274765,0.4609835743904114,-0.49072280526161194,-0.15176922082901,-10.013400077819824,0,0,44.0,1,1,272,286
124.55029800,124550298,1,0.4646589756011963,-0.462822288274765,0.4609835743904114,-0.49072280526161194,-0.15176922082901,-10.013400077819824,0,0,44.0,0,0,272,286
124.55291400,124552914,1,0.3732515871524811,-0.37131890654563904,0.3697274327278137,-0.48993608355522156,-0.1520058810710907,-10.013101577758789,0,0,44.0,1,1,272,286
124.55534600,124555346,1,0.3732515871524811,-0.37131890654563904,0.3697274327278137,-0.4891737103462219,-0.15222683548927307,-10.012760162353516,0,0,44.0,0,1,272,286
124.55785100,124557851,1,0.2650356888771057,-0.2631130516529083,0.2619515061378479,-0.48858124017715454,-0.15243259072303772,-10.012307167053223,0,0,44.0,1,1,272,286
124.56033500,124560335,1,0.2650356888771057,-0.2631130516529083,0.2619515061378479,-0.48858124017715454,-0.15243259072303772,-10.012307167053223,0,0,44.0,0,0,272,286
124.56270400,124562704,1,0.16706319153308868,-0.16524647176265717,0.16450028121471405,-0.48814645409584045,-0.15262368321418762,-10.01168155670166,0,0,44.0,1,1,272,286
124.56531300,124565313,1,0.16706319153308868,-0.16524647176265717,0.16450028121471405,-0.48814645409584045,-0.15262368321418762,-10.01168155670166,0,0,44.0,0,0,272,286
124.56786600,124567866,1,0.09058940410614014,-0.08899612724781036,0.08846591413021088,-0.4877128601074219,-0.15280061960220337,-10.010902404785156,0,0,44.0,1,1,272,286
124.57034500,124570345,1,0.09058940410614014,-0.08899612724781036,0.08846591413021088,-0.48728200793266296,-0.15296395123004913,-10.009982109069824,0,0,44.0,0,1,272,286
124.57363600,124573636,1,0.037385016679763794,-0.03608335182070732,0.035504620522260666,-0.4869275987148285,-0.1531141698360443,-10.008939743041992,0,0,44.0,1,1,272,286
124.57640200,124576402,1,0.037385016679763794,-0.03608335182070732,0.035504620522260666,-0.4869275987148285,-0.1531141698360443,-10.008939743041992,0,0,44.0,0,0,272,286
124.57869500,124578695,1,0.00444777961820364,-0.0033852190244942904,0.0026274463161826134,-0.48657217621803284,-0.15325188636779785,-10.007786750793457,0,0,44.0,1,1,272,286
124.58288400,124582884,1,-0.013076084665954113,0.013964733108878136,-0.014857351779937744,-0.48621711134910583,-0.15337757766246796,-10.006538391113281,0,0,44.0,1,1,272,286
124.58432800,124584328,1,-0.013076084665954113,0.013964733108878136,-0.014857351779937744,-0.48621711134910583,-0.15337757766246796,-10.006538391113281,0,0,44.0,0,0,272,286
124.58817300,124588173,1,-0.020115027204155922,0.02080717124044895,-0.02174818143248558,-0.4860084652900696,-0.15349185466766357,-10.005207061767578,0,0,44.0,1,1,272,286
124.58968500,124589685,1,-0.020115027204155922,0.02080717124044895,-0.02174818143248558,-0.48593461513519287,-0.1535952240228653,-10.003806114196777,0,0,44.0,0,1,272,286
124.59332200,124593322,1,-0.020689889788627625,0.021162698045372963,-0.022141342982649803,-0.4859119653701782,-0.1536882370710373,-10.002345085144043,0,0,44.0,1,1,272,286
124.59456200,124594562,1,-0.020689889788627625,0.021162698045372963,-0.022141342982649803,-0.4859119653701782,-0.1536882370710373,-10.002345085144043,0,0,44.0,0,0,272,286
124.59828800,124598288,1,-0.01775429956614971,0.018072543665766716,-0.019119326025247574,-0.4859362542629242,-0.15377141535282135,-10.000835418701172,0,0,44.0,1,1,272,286
124.59973900,124599739,1,-0.01775429956614971,0.018072543665766716,-0.019119326025247574,-0.4859362542629242,-0.15377141535282135,-10.000835418701172,0,0,44.0,0,0,272,286
124.60314800,124603148,1,-0.013321883045136929,0.013712069019675255,-0.01479010097682476,-0.48593106865882874,-0.15384526550769806,-9.999287605285645,0,0,44.0,1,1,272,286
124.60479500,124604795,1,-0.013321883045136929,0.013712069019675255,-0.01479010097682476,-0.4858989417552948,-0.1539103388786316,-9.997709274291992,0,0,44.0,0,1,272,286
124.60831100,124608311,1,-0.008639137260615826,0.009376505389809608,-0.010419514961540699,-0.48598697781562805,-0.15396709740161896,-9.996108055114746,0,0,44.0,1,1,272,286
124.60955700,124609557,1,-0.008639137260615826,0.009376505389809608,-0.010419514961540699,-0.48598697781562805,-0.15396709740161896,-9.996108055114746,0,0,44.0,0,0,272,286
124.61332200,124613322,1,-0.004396917298436165,0.005654577165842056,-0.006591404788196087,-0.48618462681770325,-0.15401604771614075,-9.99449348449707,0,0,44.0,1,1,272,286
124.61478700,124614787,1,-0.004396917298436165,0.005654577165842056,-0.006591404788196087,-0.48618462681770325,-0.15401604771614075,-9.99449348449707,0,0,44.0,0,0,272,286
124.61814700,124618147,1,-0.0008866306161507964,0.0027569869998842478,-0.003525157691910863,-0.4864094853401184,-0.15405768156051636,-9.992873191833496,0,0,44.0,1,1,272,286
124.61976800,124619768,1,-0.0008866306161507964,0.0027569869998842478,-0.003525157691910863,-0.4864094853401184,-0.15405768156051636,-9.992873191833496,0,0,44.0,0,0,272,286
124.62332400,124623324,1,0.0018129930831491947,0.0006636383477598429,-0.0012571451952680945,-0.48665836453437805,-0.15402010083198547,-9.991251945495605,0,0,44.0,1,1,272,286
124.62458700,124624587,1,0.0018129930831491947,0.0006636383477598429,-0.0012571451952680945,-0.4869282841682434,-0.15383781492710114,-9.98970890045166,0,0,44.0,0,1,272,286
124.62827600,124628276,1,0.003662662347778678,-0.0007209260948002338,0.00031969850533641875,-0.48728886246681213,-0.1535961925983429,-9.98838996887207,0,0,44.0,1,1,272,286
124.62977900,124629779,1,0.003662662347778678,-0.0007209260948002338,0.00031969850533641875,-0.48728886246681213,-0.1535961925983429,-9.98838996887207,0,0,44.0,0,0,272,286
124.63317800,124633178,1,0.004649898037314415,-0.0015164650976657867,0.0013284154701977968,-0.4877309501171112,-0.15337352454662323,-9.98727798461914,0,0,44.0,1,1,272,286
124.63484300,124634843,1,0.004649898037314415,-0.0015164650976657867,0.0013284154701977968,-0.4877309501171112,-0.15337352454662323,-9.98727798461914,0,0,44.0,0,0,272,286
124.63840300,124638403,1,0.004862327594310045,-0.0018785831052809954,0.0018809627508744597,-0.4881012737751007,-0.15316906571388245,-9.98614501953125,0,0,44.0,1,1,272,286
124.63967100,124639671,1,0.004862327594310045,-0.0018785831052809954,0.0018809627508744597,-0.4883321523666382,-0.15298201143741608,-9.98485279083252,0,0,44.0,0,1,272,286
124.64340600,124643406,1,0.004468107130378485,-0.001957039348781109,0.0020658238790929317,-0.4884346127510071,-0.15281160175800323,-9.983490943908691,0,0,44.0,1,1,272,286
124.64486400,124644864,1,0.004468107130378485,-0.001957039348781109,0.0020658238790929317,-0.4884346127510071,-0.15281160175800323,-9.983490943908691,0,0,44.0,0,0,272,286
124.64823100,124648231,1,0.003735038684681058,-0.0018748861039057374,0.0019452414708212018,-0.4884191155433655,-0.15265707671642303,-9.982144355773926,0,0,44.0,1,1,272,286
124.64979900,124649799,1,0.003735038684681058,-0.0018748861039057374,0.0019452414708212018,-0.4884191155433655,-0.15265707671642303,-9.982144355773926,0,0,44.0,0,0,272,286
124.65333500,124653335,1,0.0029827558901160955,-0.0017217862186953425,0.0015999791212379932,-0.4883681535720825,-0.15244528651237488,-9.980815887451172,0,0,44.0,1,1,272,286
124.65482600,124654826,1,0.0029827558901160955,-0.0017217862186953425,0.0015999791212379932,-0.48842957615852356,-0.15210957825183868,-9.979509353637695,0,0,44.0,0,1,272,286
124.65884400,124658844,1,0.002423370722681284,-0.0015557956648990512,0.0010656599188223481,-0.4885936677455902,-0.15173408389091492,-9.978225708007812,0,0,44.0,1,1,272,286
124.66034700,124660347,1,0.002423370722681284,-0.0015557956648990512,0.0010656599188223481,-0.4885936677455902,-0.15173408389091492,-9.978225708007812,0,0,44.0,0,0,272,286
124.66308700,124663087,1,0.0021793122868984938,-0.00140928546898067,0.00043281904072500765,-0.488778680562973,-0.1513959914445877,-9.977043151855469,0,0,44.0,1,1,272,286
124.66541100,124665411,1,0.0021793122868984938,-0.00140928546898067,0.00043281904072500765,-0.488778680562973,-0.1513959914445877,-9.977043151855469,0,0,44.0,0,0,272,286
124.66826900,124668269,1,0.002264749724417925,-0.0013381554745137691,-6.742827099515125e-05,-0.48905453085899353,-0.15109337866306305,-9.976028442382812,0,0,44.0,1,1,272,286
124.67020300,124670203,1,0.002264749724417925,-0.0013381554745137691,-6.742827099515125e-05,-0.4894847869873047,-0.15082436800003052,-9.975098609924316,0,0,44.0,0,1,272,286
124.67436000,124674360,1,0.0025088617112487555,-0.0014438339276239276,-0.0002511368365958333,-0.4900546967983246,-0.15058711171150208,-9.974177360534668,0,0,44.0,1,1,272,286
124.67614300,124676143,1,0.0025088617112487555,-0.0014438339276239276,-0.0002511368365958333,-0.4900546967983246,-0.15058711171150208,-9.974177360534668,0,0,44.0,0,0,272,286
124.67820100,124678201,1,0.0026711428072303534,-0.0017934564966708422,-0.00011424709373386577,-0.49067792296409607,-0.15037982165813446,-9.973267555236816,0,0,44.0,1,1,272,286
124.68122900,124681229,1,0.0026711428072303534,-0.0017934564966708422,-0.00011424709373386577,-0.49067792296409607,-0.15037982165813446,-9.973267555236816,0,0,44.0,0,0,272,286
124.68334100,124683341,1,0.0026388487312942743,-0.002341513056308031,0.0001685412134975195,-0.49120280146598816,-0.1502007097005844,-9.972371101379395,0,0,44.0,1,1,272,286
124.68574400,124685744,1,0.0026388487312942743,-0.002341513056308031,0.0001685412134975195,-0.49120280146598816,-0.1502007097005844,-9.972371101379395,0,0,44.0,0,0,272,286
124.68836000,124688360,1,0.002425862243399024,-0.0029487593565136194,0.00039877710514701903,-0.4916357398033142,-0.15004807710647583,-9.971490859985352,0,0,44.0,1,1,272,286
124.69087300,124690873,1,0.002425862243399024,-0.0029487593565136194,0.00039877710514701903,-0.4921276271343231,-0.14992022514343262,-9.970629692077637,0,0,44.0,0,1,272,286
124.69361500,124693615,1,0.002067973604425788,-0.003448964562267065,0.0005231286049820483,-0.4927438795566559,-0.14981557428836823,-9.969788551330566,0,0,44.0,1,1,272,286
124.69586500,124695865,1,0.002067973604425788,-0.003448964562267065,0.0005231286049820483,-0.4927438795566559,-0.14981557428836823,-9.969788551330566,0,0,44.0,0,0,272,286
124.69837900,124698379,1,0.0016488325782120228,-0.0036880518309772015,0.0005725139635615051,-0.4934716522693634,-0.1497325301170349,-9.96897029876709,0,0,44.0,1,1,272,286
124.70073500,124700735,1,0.0016488325782120228,-0.0036880518309772015,0.0005725139635615051,-0.4934716522693634,-0.1497325301170349,-9.96897029876709,0,0,44.0,0,0,272,286
124.70337200,124703372,1,0.0013059459161013365,-0.003584690624848008,0.0005749283591285348,-0.49429869651794434,-0.14959721267223358,-9.96817398071289,0,0,44.0,1,1,272,286
124.70587500,124705875,1,0.0013059459161013365,-0.003584690624848008,0.0005749283591285348,-0.4951411485671997,-0.14934223890304565,-9.967401504516602,0,0,44.0,0,1,272,286
124.70923800,124709238,1,0.0011411822633817792,-0.003150469623506069,0.0005524182925000787,-0.49592211842536926,-0.14905107021331787,-9.96672534942627,0,0,44.0,1,1,272,286
124.71086300,124710863,1,0.0011411822633817792,-0.003150469623506069,0.0005524182925000787,-0.49592211842536926,-0.14905107021331787,-9.96672534942627,0,0,44.0,0,0,272,286
124.71347700,124713477,1,0.0011375753674656153,-0.0025278229732066393,0.0005204398767091334,-0.49664390087127686,-0.14880025386810303,-9.966214179992676,0,0,44.0,1,1,272,286
124.71570200,124715702,1,0.0011375753674656153,-0.0025278229732066393,0.0005204398767091334,-0.49664390087127686,-0.14880025386810303,-9.966214179992676,0,0,44.0,0,0,272,286
124.71837800,124718378,1,0.00121874560136348,-0.001989183248952031,0.0004885647213086486,-0.4972364604473114,-0.14858730137348175,-9.965781211853027,0,0,44.0,1,1,272,286
124.72088700,124720887,1,0.00121874560136348,-0.001989183248952031,0.0004885647213086486,-0.4977084696292877,-0.14840979874134064,-9.965421676635742,0,0,44.0,0,1,272,286
124.72464500,124724645,1,0.0012893314706161618,-0.0017056962242349982,0.0005038399249315262,-0.49821314215660095,-0.14826540648937225,-9.965205192565918,0,0,44.0,1,1,272,286
124.72608000,124726080,1,0.0012893314706161618,-0.0017056962242349982,0.0005038399249315262,-0.49821314215660095,-0.14826540648937225,-9.965205192565918,0,0,44.0,0,0,272,286
124.72887000,124728870,1,0.0012591142440214753,-0.0016423662891611457,0.0006254640757106245,-0.49874579906463623,-0.14815187454223633,-9.965046882629395,0,0,44.0,1,1,272,286
124.73067300,124730673,1,0.0012591142440214753,-0.0016423662891611457,0.0006254640757106245,-0.49874579906463623,-0.14815187454223633,-9.965046882629395,0,0,44.0,0,0,272,286
124.73340100,124733401,1,0.001138935680501163,-0.0016620123060420156,0.0007834486896172166,-0.49922969937324524,-0.14806696772575378,-9.964869499206543,0,0,44.0,1,1,272,286
124.73589800,124735898,1,0.001138935680501163,-0.0016620123060420156,0.0007834486896172166,-0.49922969937324524,-0.14806696772575378,-9.964869499206543,0,0,44.0,0,0,272,286
124.73820400,124738204,1,0.0010748556815087795,-0.00155366281978786,0.0008092939970083535,-0.4997394382953644,-0.14800859987735748,-9.964675903320312,0,0,44.0,1,1,272,286
124.74105900,124741059,1,0.0010748556815087795,-0.00155366281978786,0.0008092939970083535,-0.500343382358551,-0.14797472953796387,-9.964468002319336,0,0,44.0,0,1,272,286
124.74428100,124744281,1,0.001218457822687924,-0.0011011097813025117,0.0006358253885991871,-0.5009588003158569,-0.14796337485313416,-9.96424674987793,0,0,44.0,1,1,272,286
124.74586100,124745861,1,0.001218457822687924,-0.0011011097813025117,0.0006358253885991871,-0.5009588003158569,-0.14796337485313416,-9.96424674987793,0,0,44.0,0,0,272,286
124.74836000,124748360,1,0.0015740845119580626,-0.00028780504362657666,0.00034354638773947954,-0.5014378428459167,-0.1479727029800415,-9.96401596069336,0,0,44.0,1,1,272,286
124.75120900,124751209,1,0.0015740845119580626,-0.00028780504362657666,0.00034354638773947954,-0.5014378428459167,-0.1479727029800415,-9.96401596069336,0,0,44.0,0,0,272,286
124.75322000,124753220,1,0.0020263937767595053,0.0006696731434203684,3.534824281814508e-05,-0.5017900466918945,-0.14800089597702026,-9.963776588439941,0,0,44.0,1,1,272,286
124.75619100,124756191,1,0.0020263937767595053,0.0006696731434203684,3.534824281814508e-05,-0.502169668674469,-0.14804624021053314,-9.963530540466309,0,0,44.0,0,1,272,286
124.75979200,124759792,1,0.002373661147430539,0.0015092018293216825,-0.0001904300443129614,-0.5026453733444214,-0.1481071263551712,-9.963278770446777,0,0,44.0,1,1,272,286
124.76105000,124761050,1,0.002373661147430539,0.0015092018293216825,-0.0001904300443129614,-0.5026453733444214,-0.1481071263551712,-9.963278770446777,0,0,44.0,0,0,272,286
124.76389500,124763895,1,0.0024850089102983475,0.0019862588960677385,-0.0002112970978487283,-0.5031347274780273,-0.1481820046901703,-9.963022232055664,0,0,44.0,1,1,272,286
124.76627200,124766272,1,0.0024850089102983475,0.0019862588960677385,-0.0002112970978487283,-0.5031347274780273,-0.1481820046901703,-9.963022232055664,0,0,44.0,0,0,272,286
124.76860000,124768600,1,0.0024134365376085043,0.0019041374325752258,4.645040462492034e-05,-0.5035623908042908,-0.148269385099411,-9.962763786315918,0,0,44.0,1,1,272,286
124.77132700,124771327,1,0.0024134365376085043,0.0019041374325752258,4.645040462492034e-05,-0.5035623908042908,-0.148269385099411,-9.962763786315918,0,0,44.0,0,0,272,286
124.77386900,124773869,1,0.0022575887851417065,0.0012063069734722376,0.0004931959556415677,-0.5039321184158325,-0.14836791157722473,-9.962502479553223,0,0,44.0,1,1,272,286
124.77610600,124776106,1,0.0022575887851417065,0.0012063069734722376,0.0004931959556415677,-0.5041749477386475,-0.148476243019104,-9.962242126464844,0,0,44.0,0,1,272,286
124.77962600,124779626,1,0.0020823196973651648,4.4596334191737697e-05,0.0008840145310387015,-0.5042284727096558,-0.14859311282634735,-9.961982727050781,0,0,44.0,1,1,272,286
124.78154000,124781540,1,0.0020823196973651648,4.4596334191737697e-05,0.0008840145310387015,-0.5042284727096558,-0.14859311282634735,-9.961982727050781,0,0,44.0,0,0,272,286
124.78359600,124783596,1,0.0019245839212089777,-0.001260148361325264,0.0010997613426297903,-0.5041085481643677,-0.14871737360954285,-9.961725234985352,0,0,44.0,1,1,272,286
124.78640400,124786404,1,0.0019245839212089777,-0.001260148361325264,0.0010997613426297903,-0.5041085481643677,-0.14871737360954285,-9.961725234985352,0,0,44.0,0,0,272,286
124.78903600,124789036,1,0.0018009219784289598,-0.002391502493992448,0.0012740801321342587,-0.5038303136825562,-0.14884793758392334,-9.961470603942871,0,0,44.0,1,1,272,286
124.79140200,124791402,1,0.0018009219784289598,-0.002391502493992448,0.0012740801321342587,-0.5034083724021912,-0.14898376166820526,-9.961146354675293,0,0,44.0,0,1,272,286
124.79482800,124794828,1,0.0017145947786048055,-0.0031694502104073763,0.0015674700262024999,-0.5029288530349731,-0.1491238921880722,-9.960687637329102,0,0,44.0,1,1,272,286
124.79646100,124796461,1,0.0017145947786048055,-0.0031694502104073763,0.0015674700262024999,-0.5029288530349731,-0.1491238921880722,-9.960687637329102,0,0,44.0,0,0,272,286
124.79870600,124798706,1,0.001661409973166883,-0.0035557462833821774,0.001960864057764411,-0.502470850944519,-0.14926742017269135,-9.960179328918457,0,0,44.0,1,1,272,286
124.80144600,124801446,1,0.001661409973166883,-0.0035557462833821774,0.001960864057764411,-0.502470850944519,-0.14926742017269135,-9.960179328918457,0,0,44.0,0,0,272,286
124.80393300,124803933,1,0.0015918801072984934,-0.003550200257450342,0.002260256791487336,-0.501961886882782,-0.14941352605819702,-9.959701538085938,0,0,44.0,1,1,272,286
124.80641100,124806411,1,0.0015918801072984934,-0.003550200257450342,0.002260256791487336,-0.5013357996940613,-0.14956142008304596,-9.95925235748291,0,0,44.0,0,1,272,286
124.81026400,124810264,1,0.0014406663831323385,-0.0031725361477583647,0.0022949979174882174,-0.5006773471832275,-0.14971043169498444,-9.958830833435059,0,0,44.0,1,1,272,286
124.81173400,124811734,1,0.0014406663831323385,-0.0031725361477583647,0.0022949979174882174,-0.5006773471832275,-0.14971043169498444,-9.958830833435059,0,0,44.0,0,0,272,286
124.81419600,124814196,1,0.0012285913107916713,-0.0025338937994092703,0.0021018425468355417,-0.5001364946365356,-0.14985987544059753,-9.958436965942383,0,0,44.0,1,1,272,286
124.81679300,124816793,1,0.0012285913107916713,-0.0025338937994092703,0.0021018425468355417,-0.5001364946365356,-0.14985987544059753,-9.958436965942383,0,0,44.0,0,0,272,286
124.81924400,124819244,1,0.001018209382891655,-0.0018597503658384085,0.0018621751805767417,-0.49977755546569824,-0.1500091552734375,-9.958069801330566,0,0,44.0,1,1,272,286
124.82159000,124821590,1,0.001018209382891655,-0.0018597503658384085,0.0018621751805767417,-0.49977755546569824,-0.1500091552734375,-9.958069801330566,0,0,44.0,0,0,272,286
124.82429200,124824292,1,0.0008419390651397407,-0.001441777916625142,0.0016360570443794131,-0.4995865225791931,-0.15015771985054016,-9.957728385925293,0,0,44.0,1,1,272,286
124.82675700,124826757,1,0.0008419390651397407,-0.001441777916625142,0.0016360570443794131,-0.4995497167110443,-0.15030506253242493,-9.957409858703613,0,0,44.0,0,1,272,286
124.82967300,124829673,1,0.0006692699389532208,-0.0014339835615828633,0.0013265438610687852,-0.4995819330215454,-0.15045073628425598,-9.95711612701416,0,0,44.0,1,1,272,286
124.83172100,124831721,1,0.0006692699389532208,-0.0014339835615828633,0.0013265438610687852,-0.4995819330215454,-0.15045073628425598,-9.95711612701416,0,0,44.0,0,0,272,286
124.83427400,124834274,1,0.0004416286828927696,-0.0016838080482557416,0.0008540896815247834,-0.49953240156173706,-0.1505943238735199,-9.9568452835083,0,0,44.0,1,1,272,286
124.83657100,124836571,1,0.0004416286828927696,-0.0016838080482557416,0.0008540896815247834,-0.49953240156173706,-0.1505943238735199,-9.9568452835083,0,0,44.0,0,0,272,286
124.83924200,124839242,1,0.00017915396892931312,-0.0019025999354198575,0.00028698891401290894,-0.4994082748889923,-0.15073546767234802,-9.956669807434082,0,0,44.0,1,1,272,286
124.84227200,124842272,1,0.00017915396892931312,-0.0019025999354198575,0.00028698891401290894,-0.49928876757621765,-0.15087385475635529,-9.956653594970703,0,0,44.0,0,1,272,286
124.84519000,124845190,1,-6.0067566664656624e-05,-0.001944434829056263,-0.00015587608504574746,-0.4991738796234131,-0.15100915729999542,-9.956710815429688,0,0,44.0,1,1,272,286
124.84722300,124847223,1,-6.0067566664656624e-05,-0.001944434829056263,-0.00015587608504574746,-0.4991738796234131,-0.15100915729999542,-9.956710815429688,0,0,44.0,0,0,272,286
124.84923900,124849239,1,-0.0002493571664672345,-0.0018451367504894733,-0.00029563219868578017,-0.4990637004375458,-0.15114116668701172,-9.956762313842773,0,0,44.0,1,1,272,286
124.85206400,124852064,1,-0.0002493571664672345,-0.0018451367504894733,-0.00029563219868578017,-0.4990637004375458,-0.15114116668701172,-9.956762313842773,0,0,44.0,0,0,272,286
124.85423900,124854239,1,-0.0003826607426162809,-0.0016457147430628538,-8.668682130519301e-05,-0.49895820021629333,-0.15126962959766388,-9.956809043884277,0,0,44.0,1,1,272,286
124.85728300,124857283,1,-0.0003826607426162809,-0.0016457147430628538,-8.668682130519301e-05,-0.4989297688007355,-0.15139439702033997,-9.956850051879883,0,0,44.0,0,1,272,286
124.86068900,124860689,1,-0.00042359490180388093,-0.0012992853298783302,0.0004397104203235358,-0.49897196888923645,-0.15151529014110565,-9.956887245178223,0,0,44.0,1,1,272,286
124.86228400,124862284,1,-0.00042359490180388093,-0.0012992853298783302,0.0004397104203235358,-0.49897196888923645,-0.15151529014110565,-9.956887245178223,0,0,44.0,0,0,272,286
124.86468900,124864689,1,-0.0003256748022977263,-0.0008045689901337028,0.0011329693952575326,-0.498933881521225,-0.1516321897506714,-9.95691967010498,0,0,44.0,1,1,272,286
124.86728200,124867282,1,-0.0003256748022977263,-0.0008045689901337028,0.0011329693952575326,-0.498933881521225,-0.1516321897506714,-9.95691967010498,0,0,44.0,0,0,272,286
124.86969200,124869692,1,-0.00012860371498391032,-0.00026844124658964574,0.0017198013374581933,-0.49882251024246216,-0.1517450213432312,-9.956947326660156,0,0,44.0,1,1,272,286
124.87249000,124872490,1,-0.00012860371498391032,-0.00026844124658964574,0.0017198013374581933,-0.4987168312072754,-0.15185366570949554,-9.956972122192383,0,0,44.0,0,1,272,286
124.87626800,124876268,1,8.915090438676998e-05,0.0002046505978796631,0.001990092219784856,-0.49854448437690735,-0.15195806324481964,-9.956992149353027,0,0,44.0,1,1,272,286
124.87802700,124878027,1,8.915090438676998e-05,0.0002046505978796631,0.001990092219784856,-0.49854448437690735,-0.15195806324481964,-9.956992149353027,0,0,44.0,0,0,272,286
124.88054600,124880546,1,0.00028332171496003866,0.0005280245095491409,0.0019261087290942669,-0.49823933839797974,-0.15205822885036469,-9.957080841064453,0,0,44.0,1,1,272,286
124.88264300,124882643,1,0.00028332171496003866,0.0005280245095491409,0.0019261087290942669,-0.49823933839797974,-0.15205822885036469,-9.957080841064453,0,0,44.0,0,0,272,286
124.88527100,124885271,1,0.0004345029592514038,0.0005959088448435068,0.0016134422039613128,-0.4978139102458954,-0.1521540880203247,-9.957304954528809,0,0,44.0,1,1,272,286
124.88781000,124887810,1,0.0004345029592514038,0.0005959088448435068,0.0016134422039613128,-0.4973523020744324,-0.1522456556558609,-9.957579612731934,0,0,44.0,0,1,272,286
124.89165500,124891655,1,0.0005393443279899657,0.000351324793882668,0.001178152859210968,-0.49700409173965454,-0.15233297646045685,-9.9578275680542,0,0,44.0,1,1,272,286
124.89309400,124893094,1,0.0005393443279899657,0.000351324793882668,0.001178152859210968,-0.49700409173965454,-0.15233297646045685,-9.9578275680542,0,0,44.0,0,0,272,286
124.89585400,124895854,1,0.0006454762769863009,-0.00014408776769414544,0.0007896015304140747,-0.49683332443237305,-0.15241608023643494,-9.958049774169922,0,0,44.0,1,1,272,286
124.89792800,124897928,1,0.0006454762769863009,-0.00014408776769414544,0.0007896015304140747,-0.49683332443237305,-0.15241608023643494,-9.958049774169922,0,0,44.0,0,0,272,286
124.90064800,124900648,1,0.0008617073181085289,-0.0007343814359046519,0.0005289001273922622,-0.49675318598747253,-0.15249501168727875,-9.958248138427734,0,0,44.0,1,1,272,286
124.90319200,124903192,1,0.0008617073181085289,-0.0007343814359046519,0.0005289001273922622,-0.49675318598747253,-0.15249501168727875,-9.958248138427734,0,0,44.0,0,0,272,286
124.90548700,124905487,1,0.0012275032931938767,-0.0012810234911739826,0.0003761767875403166,-0.4966115653514862,-0.15256980061531067,-9.958422660827637,0,0,44.0,1,1,272,286
124.90816300,124908163,1,0.0012275032931938767,-0.0012810234911739826,0.0003761767875403166,-0.49634188413619995,-0.15264053642749786,-9.958648681640625,0,0,44.0,0,1,272,286
124.91133400,124911334,1,0.0016136770136654377,-0.0017185222823172808,0.000303994573187083,-0.4960283935070038,-0.1527072787284851,-9.959065437316895,0,0,44.0,1,1,272,286
124.91293000,124912930,1,0.0016136770136654377,-0.0017185222823172808,0.000303994573187083,-0.4960283935070038,-0.1527072787284851,-9.959065437316895,0,0,44.0,0,0,272,286
124.91568800,124915688,1,0.0018233212176710367,-0.002029894618317485,0.0003273589245509356,-0.49582070112228394,-0.15277011692523956,-9.9596529006958,0,0,44.0,1,1,272,286
124.91814000,124918140,1,0.0018233212176710367,-0.002029894618317485,0.0003273589245509356,-0.49582070112228394,-0.15277011692523956,-9.9596529006958,0,0,44.0,0,0,272,286
124.92047100,124920471,1,0.0017393656307831407,-0.002184124430641532,0.00048108259215950966,-0.49571067094802856,-0.15275681018829346,-9.960250854492188,0,0,44.0,1,1,272,286
124.92312900,124923129,1,0.0017393656307831407,-0.002184124430641532,0.00048108259215950966,-0.49554556608200073,-0.15260152518749237,-9.960784912109375,0,0,44.0,0,1,272,286
124.92695400,124926954,1,0.0013890720438212156,-0.002105699386447668,0.0007207051385194063,-0.4953307509422302,-0.1523892730474472,-9.961331367492676,0,0,44.0,1,1,272,286
124.92829400,124928294,1,0.0013890720438212156,-0.002105699386447668,0.0007207051385194063,-0.4953307509422302,-0.1523892730474472,-9.961331367492676,0,0,44.0,0,0,272,286
124.93063400,124930634,1,0.000912873656488955,-0.0017919068923220038,0.000925303902477026,-0.4952160120010376,-0.15219806134700775,-9.961956024169922,0,0,44.0,1,1,272,286
124.93317800,124933178,1,0.000912873656488955,-0.0017919068923220038,0.000925303902477026,-0.4952160120010376,-0.15219806134700775,-9.961956024169922,0,0,44.0,0,0,272,286
124.93548100,124935481,1,0.00048815892660059035,-0.001362627954222262,0.0009951641550287604,-0.4952656030654907,-0.15202678740024567,-9.962580680847168,0,0,44.0,1,1,272,286
124.93818000,124938180,1,0.00048815892660059035,-0.001362627954222262,0.0009951641550287604,-0.4952656030654907,-0.15202678740024567,-9.962580680847168,0,0,44.0,0,0,272,286
124.94064300,124940643,1,0.000325672299368307,-0.0009408037876710296,0.0009415253880433738,-0.49546533823013306,-0.15187443792819977,-9.963200569152832,0,0,44.0,1,1,272,286
124.94297700,124942977,1,0.000325672299368307,-0.0009408037876710296,0.0009415253880433738,-0.4957294166088104,-0.1517399549484253,-9.963959693908691,0,0,44.0,0,1,272,286
124.94636000,124946360,1,0.0005782406660728157,-0.0006315585342235863,0.0008318275213241577,-0.4959790110588074,-0.15154998004436493,-9.964770317077637,0,0,44.0,1,1,272,286
124.94809100,124948091,1,0.0005782406660728157,-0.0006315585342235863,0.0008318275213241577,-0.4959790110588074,-0.15154998004436493,-9.964770317077637,0,0,44.0,0,0,272,286
124.95046600,124950466,1,0.0011760421330109239,-0.0005141032743267715,0.0007101632072590292,-0.4962143301963806,-0.1512376070022583,-9.965409278869629,0,0,44.0,1,1,272,286
124.95317100,124953171,1,0.0011760421330109239,-0.0005141032743267715,0.0007101632072590292,-0.4962143301963806,-0.1512376070022583,-9.965409278869629,0,0,44.0,0,0,272,286
124.95566700,124955667,1,0.0018598197493702173,-0.0005995367537252605,0.0006014612736180425,-0.4964357614517212,-0.15088674426078796,-9.965960502624512,0,0,44.0,1,1,272,286
124.95797700,124957977,1,0.0018598197493702173,-0.0005995367537252605,0.0006014612736180425,-0.4967160224914551,-0.15057437121868134,-9.966572761535645,0,0,44.0,0,1,272,286
124.96182600,124961826,1,0.002396403579041362,-0.0008616148261353374,0.0005167005001567304,-0.4971213936805725,-0.15029840171337128,-9.967166900634766,0,0,44.0,1,1,272,286
124.96328600,124963286,1,0.002396403579041362,-0.0008616148261353374,0.0005167005001567304,-0.4971213936805725,-0.15029840171337128,-9.967166900634766,0,0,44.0,0,0,272,286
124.96546100,124965461,1,0.0027292680460959673,-0.00117460114415735,0.00045783608220517635,-0.4976396858692169,-0.15005677938461304,-9.967671394348145,0,0,44.0,1,1,272,286
124.96870300,124968703,1,0.0027292680460959673,-0.00117460114415735,0.00045783608220517635,-0.4976396858692169,-0.15005677938461304,-9.967671394348145,0,0,44.0,0,0,272,286
124.97057000,124970570,1,0.0029031133744865656,-0.0014226940693333745,0.00037973758298903704,-0.4982593059539795,-0.14984747767448425,-9.96808910369873,0,0,44.0,1,1,272,286
124.97349500,124973495,1,0.0029031133744865656,-0.0014226940693333745,0.00037973758298903704,-0.498896986246109,-0.14966855943202972,-9.968427658081055,0,0,44.0,0,1,272,286
124.97747200,124977472,1,0.002966412575915456,-0.0016397580038756132,0.00021979899611324072,-0.4994764029979706,-0.14951813220977783,-9.968692779541016,0,0,44.0,1,1,272,286
124.97922500,124979225,1,0.0029619517736136913,-0.0018904514145106077,2.9530025358326384e-07,-0.4994764029979706,-0.14951813220977783,-9.968692779541016,0,0,44.0,1,0,272,286
124.98355700,124983557,1,0.0029619517736136913,-0.0018904514145106077,2.9530025358326384e-07,-0.5000726580619812,-0.14939428865909576,-9.968889236450195,0,0,44.0,0,1,272,286
124.98536400,124985364,1,0.002922789892181754,-0.0022032475098967552,-0.0001736023841658607,-0.5006821751594543,-0.14929528534412384,-9.969095230102539,0,0,44.0,1,1,272,286
124.98879200,124988792,1,0.002922789892181754,-0.0022032475098967552,-0.0001736023841658607,-0.5006821751594543,-0.14929528534412384,-9.969095230102539,0,0,44.0,0,0,272,286
124.99007500,124990075,1,0.002829618752002716,-0.0024990919046103954,-0.0002120808494510129,-0.5012291073799133,-0.14921937882900238,-9.969379425048828,0,0,44.0,1,1,272,286
124.99385800,124993858,1,0.002829618752002716,-0.0024990919046103954,-0.0002120808494510129,-0.5017890334129333,-0.14916488528251648,-9.969663619995117,0,0,44.0,0,1,272,286
124.99644600,124996446,1,0.002638817299157381,-0.002613167045637965,-0.00013166088319849223,-0.5024310350418091,-0.149130180478096,-9.969874382019043,0,0,44.0,1,1,272,286
124.99873400,124998734,1,0.002638817299157381,-0.002613167045637965,-0.00013166088319849223,-0.5024310350418091,-0.149130180478096,-9.969874382019043,0,0,44.0,0,0,272,286
125.00037500,125000375,1,0.002385074505582452,-0.0024039368145167828,-1.815580844777287e-06,-0.5030734539031982,-0.1491137593984604,-9.970015525817871,0,0,44.0,1,1,272,286
125.00390600,125003906,1,0.002385074505582452,-0.0024039368145167828,-1.815580844777287e-06,-0.5030734539031982,-0.1491137593984604,-9.970015525817871,0,0,44.0,0,0,272,286
125.00516700,125005167,1,0.002138518961146474,-0.0018064449541270733,0.00013334810500964522,-0.5035690665245056,-0.14911407232284546,-9.970093727111816,0,0,44.0,1,1,272,286
125.00888100,125008881,1,0.002138518961146474,-0.0018064449541270733,0.00013334810500964522,-0.5038561224937439,-0.149129718542099,-9.970114707946777,0,0,44.0,0,1,272,286
125.01179100,125011791,1,0.0019346587359905243,-0.0009321958641521633,0.0002499434631317854,-0.5039512515068054,-0.14915932714939117,-9.97008228302002,0,0,44.0,1,1,272,286
125.01378700,125013787,1,0.0017432424938306212,-9.349533684144262e-06,0.00033842193079181015,-0.5039512515068054,-0.14915932714939117,-9.97008228302002,0,0,44.0,1,0,272,286
125.01889700,125018897,1,0.001462373067624867,0.0007931389845907688,0.00039823484257794917,-0.5039428472518921,-0.14920160174369812,-9.970002174377441,0,0,44.0,1,1,272,286
125.02038400,125020384,1,0.001462373067624867,0.0007931389845907688,0.00039823484257794917,-0.5039843320846558,-0.14925530552864075,-9.969879150390625,0,0,44.0,0,1,272,286
125.02394400,125023944,1,0.001462373067624867,0.0007931389845907688,0.00039823484257794917,-0.5041437745094299,-0.14931924641132355,-9.96971607208252,0,0,44.0,0,1,272,286
125.02790500,125027905,1,0.0010529353749006987,0.0013639340177178383,0.0004336228594183922,-0.5044105052947998,-0.14939235150814056,-9.96951675415039,0,0,44.0,1,1,272,286
125.02933900,125029339,1,0.0005989213241264224,0.0015973291592672467,0.00045065939775668085,-0.5044105052947998,-0.14939235150814056,-9.96951675415039,0,0,44.0,1,0,272,286
125.03399900,125033999,1,0.0005989213241264224,0.0015973291592672467,0.00045065939775668085,-0.5047020316123962,-0.14947353303432465,-9.96935749053955,0,0,44.0,0,1,272,286
125.03550700,125035507,1,0.00019332054944243282,0.0014913781778886914,0.00041335399146191776,-0.5048704743385315,-0.1495617926120758,-9.969308853149414,0,0,44.0,1,1,272,286
125.03926200,125039262,1,0.00019332054944243282,0.0014913781778886914,0.00041335399146191776,-0.5048704743385315,-0.1495617926120758,-9.969308853149414,0,0,44.0,0,0,272,286
125.04058400,125040584,1,-0.0001229243935085833,0.0011827840935438871,0.0002694212889764458,-0.504925549030304,-0.1496562361717224,-9.969287872314453,0,0,44.0,1,1,272,286
125.04424900,125044249,1,-0.0001229243935085833,0.0011827840935438871,0.0002694212889764458,-0.5049490928649902,-0.14975595474243164,-9.969220161437988,0,0,44.0,0,1,272,286
125.04681500,125046815,1,-0.00034253273042850196,0.0007749811629764736,8.381585757888388e-06,-0.5048713684082031,-0.14986011385917664,-9.969111442565918,0,0,44.0,1,1,272,286
125.04907700,125049077,1,-0.00034253273042850196,0.0007749811629764736,8.381585757888388e-06,-0.5048713684082031,-0.14986011385917664,-9.969111442565918,0,0,44.0,0,0,272,286
125.05075000,125050750,1,-0.00043490034295246005,0.00033768435241654515,-0.0003146833332721144,-0.5046288371086121,-0.1499679535627365,-9.968963623046875,0,0,44.0,1,1,272,286
125.05432800,125054328,1,-0.00043490034295246005,0.00033768435241654515,-0.0003146833332721144,-0.5046288371086121,-0.1499679535627365,-9.968963623046875,0,0,44.0,0,0,272,286
125.05559000,125055590,1,-0.00036206963704898953,-3.896233010891592e-06,-0.0005770716234110296,-0.5043089389801025,-0.15007875859737396,-9.968783378601074,0,0,44.0,1,1,272,286
125.05934600,125059346,1,-0.00036206963704898953,-3.896233010891592e-06,-0.0005770716234110296,-0.5039917230606079,-0.15019182860851288,-9.968570709228516,0,0,44.0,0,1,272,286
125.06233600,125062336,1,-0.00017236013081856072,-0.00019945316307712346,-0.0006821901770308614,-0.503605842590332,-0.1503065824508667,-9.968331336975098,0,0,44.0,1,1,272,286
125.06416400,125064164,1,-0.00017236013081856072,-0.00019945316307712346,-0.0006821901770308614,-0.503605842590332,-0.1503065824508667,-9.968331336975098,0,0,44.0,0,0,272,286
125.06640400,125066404,1,4.845862713409588e-05,-0.00032988679595291615,-0.0005623435718007386,-0.5031585097312927,-0.15042245388031006,-9.968067169189453,0,0,44.0,1,1,272,286
125.06936000,125069360,1,4.845862713409588e-05,-0.00032988679595291615,-0.0005623435718007386,-0.5031585097312927,-0.15042245388031006,-9.968067169189453,0,0,44.0,0,0,272,286
125.07111800,125071118,1,0.00029271954554133117,-0.0005739412154071033,-0.0002597522106952965,-0.5027291774749756,-0.1505388617515564,-9.967782974243164,0,0,44.0,1,1,272,286
125.07436000,125074360,1,0.00029271954554133117,-0.0005739412154071033,-0.0002597522106952965,-0.5023177862167358,-0.1506553292274475,-9.967552185058594,0,0,44.0,0,1,272,286
125.07785000,125077850,1,0.0005947762401774526,-0.0010491308057680726,4.847420132136904e-05,-0.5019243955612183,-0.15077143907546997,-9.96744441986084,0,0,44.0,1,1,272,286
125.07937500,125079375,1,0.0008793266606517136,-0.0016541675431653857,0.00022684042050968856,-0.5019243955612183,-0.15077143907546997,-9.96744441986084,0,0,44.0,1,0,272,286
125.08436400,125084364,1,0.0010256642708554864,-0.0021473700180649757,0.00022505727247335017,-0.5014767050743103,-0.15088674426078796,-9.967377662658691,0,0,44.0,1,1,272,286
125.08595400,125085954,1,0.0010256642708554864,-0.0021473700180649757,0.00022505727247335017,-0.5009085536003113,-0.15100091695785522,-9.967276573181152,0,0,44.0,0,1,272,286
125.08948800,125089488,1,0.0009925466729328036,-0.0023359935730695724,8.736224117456004e-05,-0.5009085536003113,-0.15100091695785522,-9.967276573181152,0,0,44.0,1,0,272,286
125.09467700,125094677,1,0.0007867664680816233,-0.0022515542805194855,-9.960223542293534e-05,-0.49974292516708374,-0.1512245386838913,-9.967264175415039,0,0,44.0,1,1,272,286
125.09629900,125096299,1,0.0007867664680816233,-0.0022515542805194855,-9.960223542293534e-05,-0.49974292516708374,-0.1512245386838913,-9.967264175415039,0,0,44.0,0,0,272,286
125.09922700,125099227,1,0.0004812047991435975,-0.0020377705805003643,-0.0002827824209816754,-0.49914923310279846,-0.15133342146873474,-9.967412948608398,0,0,44.0,1,1,272,286
125.10115200,125101152,1,0.0004812047991435975,-0.0020377705805003643,-0.0002827824209816754,-0.49914923310279846,-0.15133342146873474,-9.967412948608398,0,0,44.0,0,0,272,286
125.10447100,125104471,1,0.000171764797414653,-0.0017901661340147257,-0.00039299216587096453,-0.49852868914604187,-0.15144000947475433,-9.967652320861816,0,0,44.0,1,1,272,286
125.10596700,125105967,1,0.000171764797414653,-0.0017901661340147257,-0.00039299216587096453,-0.497958242893219,-0.15154410898685455,-9.967902183532715,0,0,44.0,0,1,272,286
125.10939700,125109397,1,-4.8767677071737126e-05,-0.001563995610922575,-0.0003214806492906064,-0.49736347794532776,-0.15164554119110107,-9.968087196350098,0,0,44.0,1,1,272,286
125.11112300,125111123,1,-4.8767677071737126e-05,-0.001563995610922575,-0.0003214806492906064,-0.49736347794532776,-0.15164554119110107,-9.968087196350098,0,0,44.0,0,0,272,286
125.11419400,125114194,1,-6.182751531014219e-05,-0.0013847450027242303,-8.218621951527894e-05,-0.496748685836792,-0.15174411237239838,-9.96821403503418,0,0,44.0,1,1,272,286
125.11612400,125116124,1,-6.182751531014219e-05,-0.0013847450027242303,-8.218621951527894e-05,-0.496748685836792,-0.15174411237239838,-9.96821403503418,0,0,44.0,0,0,272,286
125.11934300,125119343,1,0.0001617702655494213,-0.0012162589700892568,0.00016492229769937694,-0.4962625801563263,-0.1518397480249405,-9.968286514282227,0,0,44.0,1,1,272,286
125.12097100,125120971,1,0.0001617702655494213,-0.0012162589700892568,0.00016492229769937694,-0.49596840143203735,-0.15193229913711548,-9.968308448791504,0,0,44.0,0,1,272,286
125.12445500,125124455,1,0.0005578363197855651,-0.0009958831360563636,0.0002929619513452053,-0.4957785904407501,-0.15202169120311737,-9.968284606933594,0,0,44.0,1,1,272,286
125.12614400,125126144,1,0.0005578363197855651,-0.0009958831360563636,0.0002929619513452053,-0.4957785904407501,-0.15202169120311737,-9.968284606933594,0,0,44.0,0,0,272,286
125.12922500,125129225,1,0.0010655914666131139,-0.0007831992115825415,0.0002544392482377589,-0.49561262130737305,-0.1521078646183014,-9.968217849731445,0,0,44.0,1,1,272,286
125.13117800,125131178,1,0.0010655914666131139,-0.0007831992115825415,0.0002544392482377589,-0.49561262130737305,-0.1521078646183014,-9.968217849731445,0,0,44.0,0,0,272,286
125.13442600,125134426,1,0.0015515132108703256,-0.0007343117031268775,9.290665184380487e-05,-0.4954691529273987,-0.15211838483810425,-9.968184471130371,0,0,44.0,1,1,272,286
125.13598100,125135981,1,0.0015515132108703256,-0.0007343117031268775,9.290665184380487e-05,-0.4954691529273987,-0.15211838483810425,-9.968184471130371,0,0,44.0,0,0,272,286
125.13937100,125139371,1,0.0018651577411219478,-0.0009469810174778104,-0.00010738903802121058,-0.4952744245529175,-0.15198729932308197,-9.968253135681152,0,0,44.0,1,1,272,286
125.14118800,125141188,1,0.0018651577411219478,-0.0009469810174778104,-0.00010738903802121058,-0.4950335621833801,-0.1517995148897171,-9.968344688415527,0,0,44.0,0,1,272,286
125.14420200,125144202,1,0.0019551238510757685,-0.0013468547258526087,-0.00033836744842119515,-0.4948960244655609,-0.1516329050064087,-9.9683837890625,0,0,44.0,1,1,272,286
125.14609500,125146095,1,0.0019551238510757685,-0.0013468547258526087,-0.00033836744842119515,-0.4948960244655609,-0.1516329050064087,-9.9683837890625,0,0,44.0,0,0,272,286
125.14939200,125149392,1,0.0018298804061487317,-0.0016552049200981855,-0.0005909604951739311,-0.49485358595848083,-0.15148630738258362,-9.968374252319336,0,0,44.0,1,1,272,286
125.15100200,125151002,1,0.0018298804061487317,-0.0016552049200981855,-0.0005909604951739311,-0.49485358595848083,-0.15148630738258362,-9.968374252319336,0,0,44.0,0,0,272,286
125.15434500,125154345,1,0.0015278420178219676,-0.0016146592097356915,-0.0007728917989879847,-0.49482598900794983,-0.15135857462882996,-9.968392372131348,0,0,44.0,1,1,272,286
125.15614500,125156145,1,0.0015278420178219676,-0.0016146592097356915,-0.0007728917989879847,-0.4948844015598297,-0.15117624402046204,-9.968509674072266,0,0,44.0,0,1,272,286
125.15920500,125159205,1,0.0010970033472403884,-0.0012299636146053672,-0.0008050429751165211,-0.49502134323120117,-0.15087226033210754,-9.968644142150879,0,0,44.0,1,1,272,286
125.16109800,125161098,1,0.0010970033472403884,-0.0012299636146053672,-0.0008050429751165211,-0.49502134323120117,-0.15087226033210754,-9.968644142150879,0,0,44.0,0,0,272,286
125.16435500,125164355,1,0.0006669091526418924,-0.0006841386202722788,-0.0006697289645671844,-0.49508488178253174,-0.15053047239780426,-9.968793869018555,0,0,44.0,1,1,272,286
125.16592700,125165927,1,0.0006669091526418924,-0.0006841386202722788,-0.0006697289645671844,-0.49508488178253174,-0.15053047239780426,-9.968793869018555,0,0,44.0,0,0,272,286
125.16935900,125169359,1,0.0004313182143960148,-0.00018238827760796994,-0.00042622003820724785,-0.4950810670852661,-0.15022774040699005,-9.969101905822754,0,0,44.0,1,1,272,286
125.17115800,125171158,1,0.0004313182143960148,-0.00018238827760796994,-0.00042622003820724785,-0.4950810670852661,-0.15022774040699005,-9.969101905822754,0,0,44.0,0,0,272,286
125.17411000,125174110,1,0.00046075385762378573,9.090089588426054e-05,-0.0001646362361498177,-0.4950879216194153,-0.149961918592453,-9.969554901123047,0,0,44.0,1,1,272,286
125.17610300,125176103,1,0.00046075385762378573,9.090089588426054e-05,-0.0001646362361498177,-0.49510458111763,-0.1497308313846588,-9.969991683959961,0,0,44.0,0,1,272,286
125.17936800,125179368,1,0.0006240217480808496,3.3403652196284384e-05,6.507845682790503e-05,-0.49513009190559387,-0.1494600772857666,-9.970343589782715,0,0,44.0,1,1,272,286
125.18095100,125180951,1,0.0006240217480808496,3.3403652196284384e-05,6.507845682790503e-05,-0.49513009190559387,-0.1494600772857666,-9.970343589782715,0,0,44.0,0,0,272,286
125.18440200,125184402,1,0.0007893713191151619,-0.00027197913732379675,0.00019979846547357738,-0.4950912892818451,-0.1490093320608139,-9.970613479614258,0,0,44.0,1,1,272,286
125.18620800,125186208,1,0.0007893713191151619,-0.00027197913732379675,0.00019979846547357738,-0.4950912892818451,-0.1490093320608139,-9.970613479614258,0,0,44.0,0,0,272,286
125.18929000,125189290,1,0.0010138184297829866,-0.0006165933446027339,0.00017948031018022448,-0.49492135643959045,-0.1483956128358841,-9.970807075500488,0,0,44.0,1,1,272,286
125.19142100,125191421,1,0.0010138184297829866,-0.0006165933446027339,0.00017948031018022448,-0.49463215470314026,-0.14777977764606476,-9.970930099487305,0,0,44.0,0,1,272,286
125.19480900,125194809,1,0.0014019458321854472,-0.0008852174505591393,8.136087126331404e-05,-0.4943073093891144,-0.14723670482635498,-9.970990180969238,0,0,44.0,1,1,272,286
125.19607300,125196073,1,0.0014019458321854472,-0.0008852174505591393,8.136087126331404e-05,-0.4943073093891144,-0.14723670482635498,-9.970990180969238,0,0,44.0,0,0,272,286
125.19939600,125199396,1,0.0019404864870011806,-0.0010717097902670503,4.220999835524708e-05,-0.49409571290016174,-0.14676226675510406,-9.971062660217285,0,0,44.0,1,1,272,286
125.20109000,125201090,1,0.0019404864870011806,-0.0010717097902670503,4.220999835524708e-05,-0.49409571290016174,-0.14676226675510406,-9.971062660217285,0,0,44.0,0,0,272,286
125.20417400,125204174,1,0.00247256550937891,-0.001227895263582468,0.00012417913239914924,-0.49398860335350037,-0.1463523954153061,-9.971219062805176,0,0,44.0,1,1,272,286
125.20615700,125206157,1,0.00247256550937891,-0.001227895263582468,0.00012417913239914924,-0.49398860335350037,-0.1463523954153061,-9.971219062805176,0,0,44.0,0,0,272,286
125.20933800,125209338,1,0.0028331095818430185,-0.0014277019072324038,0.0003406143223401159,-0.4938327670097351,-0.14600315690040588,-9.971380233764648,0,0,44.0,1,1,272,286
125.21097400,125210974,1,0.0028331095818430185,-0.0014277019072324038,0.0003406143223401159,-0.4935605823993683,-0.14571072161197662,-9.97147274017334,0,0,44.0,0,1,272,286
125.21435200,125214352,1,0.0030050177592784166,-0.0016608070582151413,0.0006772520137019455,-0.4931829571723938,-0.14547136425971985,-9.971500396728516,0,0,44.0,1,1,272,286
125.21609800,125216098,1,0.0030050177592784166,-0.0016608070582151413,0.0006772520137019455,-0.4931829571723938,-0.14547136425971985,-9.971500396728516,0,0,44.0,0,0,272,286
125.21920400,125219204,1,0.0030512099619954824,-0.0018744954140856862,0.0011076549999415874,-0.4927826523780823,-0.14528147876262665,-9.971468925476074,0,0,44.0,1,1,272,286
125.22114100,125221141,1,0.0030512099619954824,-0.0018744954140856862,0.0011076549999415874,-0.4927826523780823,-0.14528147876262665,-9.971468925476074,0,0,44.0,0,0,272,286
125.22436000,125224360,1,0.0029823556542396545,-0.0020442891400307417,0.001561138080433011,-0.49243542551994324,-0.14513757824897766,-9.971311569213867,0,0,44.0,1,1,272,286
125.22597300,125225973,1,0.0029823556542396545,-0.0020442891400307417,0.001561138080433011,-0.4921380877494812,-0.14503630995750427,-9.970967292785645,0,0,44.0,0,1,272,286
125.22937800,125229378,1,0.0027380750980228186,-0.0021643303334712982,0.0019129972206428647,-0.49195989966392517,-0.14497441053390503,-9.970597267150879,0,0,44.0,1,1,272,286
125.23115700,125231157,1,0.0027380750980228186,-0.0021643303334712982,0.0019129972206428647,-0.49195989966392517,-0.14497441053390503,-9.970597267150879,0,0,44.0,0,0,272,286
125.23412900,125234129,1,0.002356587676331401,-0.0021973541006445885,0.002029997995123267,-0.49189138412475586,-0.1448764204978943,-9.970422744750977,0,0,44.0,1,1,272,286
125.23678700,125236787,1,0.002356587676331401,-0.0021973541006445885,0.002029997995123267,-0.49189138412475586,-0.1448764204978943,-9.970422744750977,0,0,44.0,0,0,272,286
125.23935300,125239353,1,0.0020057198125869036,-0.0020535073708742857,0.0018796153599396348,-0.49177882075309753,-0.1446734070777893,-9.970428466796875,0,0,44.0,1,1,272,286
125.24152200,125241522,1,0.0020057198125869036,-0.0020535073708742857,0.0018796153599396348,-0.4915539622306824,-0.144447460770607,-9.970453262329102,0,0,44.0,0,1,272,286
125.24488200,125244882,1,0.0017683283658698201,-0.001671711914241314,0.0015712087042629719,-0.49122726917266846,-0.14427372813224792,-9.970423698425293,0,0,44.0,1,1,272,286
125.24669000,125246690,1,0.0017683283658698201,-0.001671711914241314,0.0015712087042629719,-0.49122726917266846,-0.14427372813224792,-9.970423698425293,0,0,44.0,0,0,272,286
125.24962800,125249628,1,0.0016277232207357883,-0.0010996963828802109,0.001186878071166575,-0.49080854654312134,-0.14414839446544647,-9.970344543457031,0,0,44.0,1,1,272,286
125.25166500,125251665,1,0.0016277232207357883,-0.0010996963828802109,0.001186878071166575,-0.49080854654312134,-0.14414839446544647,-9.970344543457031,0,0,44.0,0,0,272,286
125.25478600,125254786,1,0.0015598973259329796,-0.0005606917547993362,0.0007394508575089276,-0.4903796911239624,-0.14406786859035492,-9.970220565795898,0,0,44.0,1,1,272,286
125.25661900,125256619,1,0.0015598973259329796,-0.0005606917547993362,0.0007394508575089276,-0.49008774757385254,-0.14402860403060913,-9.970054626464844,0,0,44.0,0,1,272,286
125.26037500,125260375,1,0.0015408119652420282,-0.00037643779069185257,0.0002876573707908392,-0.4899945855140686,-0.14402727782726288,-9.96985149383545,0,0,44.0,1,1,272,286
125.26181900,125261819,1,0.0015408119652420282,-0.00037643779069185257,0.0002876573707908392,-0.4899945855140686,-0.14402727782726288,-9.96985149383545,0,0,44.0,0,0,272,286
125.26429500,125264295,1,0.0016343331662937999,-0.0006590214325115085,-9.506312198936939e-05,-0.4900112748146057,-0.1440606266260147,-9.96961498260498,0,0,44.0,1,1,272,286
125.26687100,125266871,1,0.0016343331662937999,-0.0006590214325115085,-9.506312198936939e-05,-0.4900112748146057,-0.1440606266260147,-9.96961498260498,0,0,44.0,0,0,272,286
125.26945300,125269453,1,0.0019822344183921814,-0.0012250305153429508,-0.00038124623824842274,-0.4899837076663971,-0.14412559568881989,-9.96934986114502,0,0,44.0,1,1,272,286
125.27169900,125271699,1,0.0019822344183921814,-0.0012250305153429508,-0.00038124623824842274,-0.4899837076663971,-0.14412559568881989,-9.96934986114502,0,0,44.0,0,0,272,286
125.27443000,125274430,1,0.002576356753706932,-0.0018076789565384388,-0.0005297259776853025,-0.48991575837135315,-0.14421924948692322,-9.969130516052246,0,0,44.0,1,1,272,286
125.27688300,125276883,1,0.002576356753706932,-0.0018076789565384388,-0.0005297259776853025,-0.4899558424949646,-0.14433877170085907,-9.969026565551758,0,0,44.0,0,1,272,286
125.27968800,125279688,1,0.0032053005415946245,-0.0022228758316487074,-0.0004986782441847026,-0.4900946319103241,-0.14448153972625732,-9.968955039978027,0,0,44.0,1,1,272,286
125.28192600,125281926,1,0.0032053005415946245,-0.0022228758316487074,-0.0004986782441847026,-0.4900946319103241,-0.14448153972625732,-9.968955039978027,0,0,44.0,0,0,272,286
125.28483500,125284835,1,0.003626919351518154,-0.0024429394397884607,-0.0003366655146237463,-0.4901784658432007,-0.14464502036571503,-9.968843460083008,0,0,44.0,1,1,272,286
125.28694100,125286941,1,0.003626919351518154,-0.0024429394397884607,-0.0003366655146237463,-0.4901784658432007,-0.14464502036571503,-9.968843460083008,0,0,44.0,0,0,272,286
125.29029900,125290299,1,0.0037053690757602453,-0.0025262862909585238,-0.0001318088179687038,-0.4901393949985504,-0.14482684433460236,-9.968767166137695,0,0,44.0,1,1,272,286
125.29252600,125292526,1,0.0037053690757602453,-0.0025262862909585238,-0.0001318088179687038,-0.48998793959617615,-0.14502477645874023,-9.968794822692871,0,0,44.0,0,1,272,286
125.29521800,125295218,1,0.003507992485538125,-0.002525032963603735,6.308030424406752e-05,-0.4898066520690918,-0.14523667097091675,-9.968846321105957,0,0,44.0,1,1,272,286
125.29729100,125297291,1,0.003507992485538125,-0.002525032963603735,6.308030424406752e-05,-0.4898066520690918,-0.14523667097091675,-9.968846321105957,0,0,44.0,0,0,272,286
125.29992000,125299920,1,0.0032397264149039984,-0.0024377095978707075,0.000179918875801377,-0.48967108130455017,-0.14538823068141937,-9.968847274780273,0,0,44.0,1,1,272,286
125.30185500,125301855,1,0.0032397264149039984,-0.0024377095978707075,0.000179918875801377,-0.48967108130455017,-0.14538823068141937,-9.968847274780273,0,0,44.0,0,0,272,286
125.30483600,125304836,1,0.0030609131790697575,-0.002193018328398466,0.0001533970789751038,-0.4895778000354767,-0.14541161060333252,-9.968873977661133,0,0,44.0,1,1,272,286
125.30717300,125307173,1,0.0030609131790697575,-0.002193018328398466,0.0001533970789751038,-0.48959600925445557,-0.14539001882076263,-9.969067573547363,0,0,44.0,0,1,272,286
125.31075400,125310754,1,0.002999143674969673,-0.0017785580130293965,5.615561531158164e-05,-0.4897160828113556,-0.14539965987205505,-9.969487190246582,0,0,44.0,1,1,272,286
125.31221300,125312213,1,0.002999143674969673,-0.0017785580130293965,5.615561531158164e-05,-0.4897160828113556,-0.14539965987205505,-9.969487190246582,0,0,44.0,0,0,272,286
125.31481200,125314812,1,0.0029241631273180246,-0.0012987866066396236,2.1444315279950388e-05,-0.48978427052497864,-0.14543786644935608,-9.970039367675781,0,0,44.0,1,1,272,286
125.31705900,125317059,1,0.0029241631273180246,-0.0012987866066396236,2.1444315279950388e-05,-0.48978427052497864,-0.14543786644935608,-9.970039367675781,0,0,44.0,0,0,272,286
125.31980200,125319802,1,0.0027279346249997616,-0.0008606619667261839,6.69505971018225e-05,-0.4898046851158142,-0.14542973041534424,-9.970565795898438,0,0,44.0,1,1,272,286
125.32227300,125322273,1,0.0027279346249997616,-0.0008606619667261839,6.69505971018225e-05,-0.4898046851158142,-0.14542973041534424,-9.970565795898438,0,0,44.0,0,0,272,286
125.32466800,125324668,1,0.002457281341776252,-0.000555556733161211,0.0001471849245717749,-0.4899260103702545,-0.14523448050022125,-9.970995903015137,0,0,44.0,1,1,272,286
125.32724500,125327245,1,0.002457281341776252,-0.000555556733161211,0.0001471849245717749,-0.4902116656303406,-0.14486877620220184,-9.971334457397461,0,0,44.0,0,1,272,286
125.33035200,125330352,1,0.0022325480822473764,-0.0004943304229527712,0.00023289339151233435,-0.4905741512775421,-0.1444932371377945,-9.971587181091309,0,0,44.0,1,1,272,286
125.33207200,125332072,1,0.0022325480822473764,-0.0004943304229527712,0.00023289339151233435,-0.4905741512775421,-0.1444932371377945,-9.971587181091309,0,0,44.0,0,0,272,286
125.33481800,125334818,1,0.002151426626369357,-0.0007384541677311063,0.00030792568577453494,-0.49086087942123413,-0.14418241381645203,-9.971691131591797,0,0,44.0,1,1,272,286
125.33777000,125337770,1,0.002151426626369357,-0.0007384541677311063,0.00030792568577453494,-0.49086087942123413,-0.14418241381645203,-9.971691131591797,0,0,44.0,0,0,272,286
125.33976500,125339765,1,0.002158156828954816,-0.0012718219077214599,0.00040759146213531494,-0.491077184677124,-0.1439320147037506,-9.971583366394043,0,0,44.0,1,1,272,286
125.34290500,125342905,1,0.002158156828954816,-0.0012718219077214599,0.00040759146213531494,-0.4913729429244995,-0.14373783767223358,-9.971357345581055,0,0,44.0,0,1,272,286
125.34594000,125345940,1,0.002083541825413704,-0.001998273655772209,0.0006726368446834385,-0.49174025654792786,-0.1435958594083786,-9.97109317779541,0,0,44.0,1,1,272,286
125.34764000,125347640,1,0.002083541825413704,-0.001998273655772209,0.0006726368446834385,-0.49174025654792786,-0.1435958594083786,-9.97109317779541,0,0,44.0,0,0,272,286
125.34992300,125349923,1,0.001852019689977169,-0.002710882108658552,0.001192547264508903,-0.4920993745326996,-0.1435021609067917,-9.970796585083008,0,0,44.0,1,1,272,286
125.35292400,125352924,1,0.001852019689977169,-0.002710882108658552,0.001192547264508903,-0.4920993745326996,-0.1435021609067917,-9.970796585083008,0,0,44.0,0,0,272,286
125.35459900,125354599,1,0.0015330143505707383,-0.003219586331397295,0.0018055785913020372,-0.4924495816230774,-0.14345300197601318,-9.97047233581543,0,0,44.0,1,1,272,286
125.35751400,125357514,1,0.0015330143505707383,-0.003219586331397295,0.0018055785913020372,-0.492717981338501,-0.1434447467327118,-9.970120429992676,0,0,44.0,0,1,272,286
125.36135300,125361353,1,0.0012186800595372915,-0.003499341430142522,0.002244260860607028,-0.49291056394577026,-0.14347399771213531,-9.96982192993164,0,0,44.0,1,1,272,286
125.36284600,125362846,1,0.0012186800595372915,-0.003499341430142522,0.002244260860607028,-0.49291056394577026,-0.14347399771213531,-9.96982192993164,0,0,44.0,0,0,272,286
125.36534300,125365343,1,0.000998493516817689,-0.0036152831744402647,0.0023543096613138914,-0.49310532212257385,-0.14353741705417633,-9.969642639160156,0,0,44.0,1,1,272,286
125.36801200,125368012,1,0.000998493516817689,-0.0036152831744402647,0.0023543096613138914,-0.49310532212257385,-0.14353741705417633,-9.969642639160156,0,0,44.0,0,0,272,286
125.37018300,125370183,1,0.0009464006288908422,-0.0035852559376507998,0.002107011852785945,-0.49322909116744995,-0.14363187551498413,-9.969501495361328,0,0,44.0,1,1,272,286
125.37313600,125373136,1,0.0009464006288908422,-0.0035852559376507998,0.002107011852785945,-0.49321499466896057,-0.14375437796115875,-9.969324111938477,0,0,44.0,0,1,272,286
125.37684800,125376848,1,0.001032429514452815,-0.0033154503908008337,0.0015858643455430865,-0.49314725399017334,-0.14390206336975098,-9.96911334991455,0,0,44.0,1,1,272,286
125.37818400,125378184,1,0.001032429514452815,-0.0033154503908008337,0.0015858643455430865,-0.49314725399017334,-0.14390206336975098,-9.96911334991455,0,0,44.0,0,0,272,286
125.38086600,125380866,1,0.001177042257040739,-0.002710595028474927,0.0009618712938390672,-0.4931752681732178,-0.1440722644329071,-9.968873023986816,0,0,44.0,1,1,272,286
125.38338100,125383381,1,0.001177042257040739,-0.002710595028474927,0.0009618712938390672,-0.4931752681732178,-0.1440722644329071,-9.968873023986816,0,0,44.0,0,0,272,286
125.38572900,125385729,1,0.0013294266536831856,-0.0018579495372250676,0.00042475282680243254,-0.49329087138175964,-0.1442624032497406,-9.968605995178223,0,0,44.0,1,1,272,286
125.38838000,125388380,1,0.0013294266536831856,-0.0018579495372250676,0.00042475282680243254,-0.49334147572517395,-0.14447008073329926,-9.968316078186035,0,0,44.0,0,1,272,286
125.39241300,125392413,1,0.001419742708094418,-0.001010492560453713,0.00010198295785812661,-0.493259996175766,-0.14469298720359802,-9.96800708770752,0,0,44.0,1,1,272,286
125.39383500,125393835,1,0.001419742708094418,-0.001010492560453713,0.00010198295785812661,-0.493259996175766,-0.14469298720359802,-9.96800708770752,0,0,44.0,0,0,272,286
125.39675100,125396751,1,0.001379238092340529,-0.00038371552363969386,2.6315703507862054e-05,-0.4931303560733795,-0.14492903649806976,-9.967680931091309,0,0,44.0,1,1,272,286
125.39932800,125399328,1,0.001379238092340529,-0.00038371552363969386,2.6315703507862054e-05,-0.4931303560733795,-0.14492903649806976,-9.967680931091309,0,0,44.0,0,0,272,286
125.40131700,125401317,1,0.0012347123119980097,-1.3300789760251064e-05,0.00017583915905561298,-0.49302950501441956,-0.14517617225646973,-9.967341423034668,0,0,44.0,1,1,272,286
125.40397700,125403977,1,0.0012347123119980097,-1.3300789760251064e-05,0.00017583915905561298,-0.49288302659988403,-0.14543256163597107,-9.966989517211914,0,0,44.0,0,1,272,286
125.40792800,125407928,1,0.0011427839053794742,0.00016465810767840594,0.00046147595276124775,-0.49262291193008423,-0.1456240564584732,-9.966700553894043,0,0,44.0,1,1,272,286
125.40917300,125409173,1,0.0011427839053794742,0.00016465810767840594,0.00046147595276124775,-0.49262291193008423,-0.1456240564584732,-9.966700553894043,0,0,44.0,0,0,272,286
125.41190000,125411900,1,0.0013031687121838331,0.00021394916984718293,0.000731059757526964,-0.4922598898410797,-0.14568309485912323,-9.96654224395752,0,0,44.0,1,1,272,286
125.41440700,125414407,1,0.0013031687121838331,0.00021394916984718293,0.000731059757526964,-0.4922598898410797,-0.14568309485912323,-9.96654224395752,0,0,44.0,0,0,272,286
125.41670500,125416705,1,0.0017383102094754577,0.00018822411948349327,0.0008655540295876563,-0.4918764531612396,-0.1456930935382843,-9.966431617736816,0,0,44.0,1,1,272,286
125.41940000,125419400,1,0.0017383102094754577,0.00018822411948349327,0.0008655540295876563,-0.491548091173172,-0.14573054015636444,-9.96622085571289,0,0,44.0,0,1,272,286
125.42349400,125423494,1,0.002290354808792472,0.00012736469216179103,0.0008661578176543117,-0.4911990165710449,-0.14579293131828308,-9.96584701538086,0,0,44.0,1,1,272,286
125.42477600,125424776,1,0.00277423276565969,9.982109622796997e-05,0.000796706008259207,-0.4911990165710449,-0.14579293131828308,-9.96584701538086,0,0,44.0,1,0,272,286
125.42846800,125428468,1,0.00277423276565969,9.982109622796997e-05,0.000796706008259207,-0.49076005816459656,-0.1458779126405716,-9.965396881103516,0,0,44.0,0,1,272,286
125.43138600,125431386,1,0.003061946714296937,0.0001781602477421984,0.0007016178569756448,-0.4902403652667999,-0.1459832340478897,-9.96495246887207,0,0,44.0,1,1,272,286
125.43333200,125433332,1,0.003061946714296937,0.0001781602477421984,0.0007016178569756448,-0.4902403652667999,-0.1459832340478897,-9.96495246887207,0,0,44.0,0,0,272,286
125.43533600,125435336,1,0.003117596497759223,0.0002573902311269194,0.0006081521278247237,-0.4897212088108063,-0.1461068093776703,-9.964513778686523,0,0,44.0,1,1,272,286
125.43858700,125438587,1,0.003117596497759223,0.0002573902311269194,0.0006081521278247237,-0.4897212088108063,-0.1461068093776703,-9.964513778686523,0,0,44.0,0,0,272,286
125.44015300,125440153,1,0.0029590746853500605,0.000114261063572485,0.0005723580252379179,-0.4893491566181183,-0.14624659717082977,-9.964081764221191,0,0,44.0,1,1,272,286
125.44356700,125443567,1,0.0029590746853500605,0.000114261063572485,0.0005723580252379179,-0.48918554186820984,-0.14640067517757416,-9.963728904724121,0,0,44.0,0,1,272,286
125.44680600,125446806,1,0.002671618480235338,-0.0003327607992105186,0.0006564760697074234,-0.4892131984233856,-0.14656728506088257,-9.96352481842041,0,0,44.0,1,1,272,286
125.44834400,125448344,1,0.002671618480235338,-0.0003327607992105186,0.0006564760697074234,-0.4892131984233856,-0.14656728506088257,-9.96352481842041,0,0,44.0,0,0,272,286
125.45084100,125450841,1,0.002404253464192152,-0.0009520956664346159,0.0007899650954641402,-0.48934346437454224,-0.14674469828605652,-9.963383674621582,0,0,44.0,1,1,272,286
125.45358300,125453583,1,0.002404253464192152,-0.0009520956664346159,0.0007899650954641402,-0.48934346437454224,-0.14674469828605652,-9.963383674621582,0,0,44.0,0,0,272,286
125.45572600,125455726,1,0.0022316756658256054,-0.0014795272145420313,0.0008440441451966763,-0.4894947409629822,-0.14693133533000946,-9.963228225708008,0,0,44.0,1,1,272,286
125.45921900,125459219,1,0.0022316756658256054,-0.0014795272145420313,0.0008440441451966763,-0.48973700404167175,-0.147125706076622,-9.963132858276367,0,0,44.0,0,1,272,286
125.46234900,125462349,1,0.002051757415756583,-0.0017494503408670425,0.0008060266845859587,-0.49006161093711853,-0.14732642471790314,-9.963166236877441,0,0,44.0,1,1,272,286
125.46391200,125463912,1,0.002051757415756583,-0.0017494503408670425,0.0008060266845859587,-0.49006161093711853,-0.14732642471790314,-9.963166236877441,0,0,44.0,0,0,272,286
125.46632600,125466326,1,0.0016861080657690763,-0.00184219004586339,0.0007258914993144572,-0.4903879165649414,-0.14753217995166779,-9.963245391845703,0,0,44.0,1,1,272,286
125.46932600,125469326,1,0.0016861080657690763,-0.00184219004586339,0.0007258914993144572,-0.4903879165649414,-0.14753217995166779,-9.963245391845703,0,0,44.0,0,0,272,286
125.47114100,125471141,1,0.0010708486661314964,-0.0019538882188498974,0.000636405311524868,-0.4907146096229553,-0.14774177968502045,-9.96329116821289,0,0,44.0,1,1,272,286
125.47428000,125474280,1,0.0010708486661314964,-0.0019538882188498974,0.000636405311524868,-0.4910404086112976,-0.1479540914297104,-9.963309288024902,0,0,44.0,0,1,272,286
125.47784700,125477847,1,0.00038027315167710185,-0.0022260998375713825,0.0005561661091633141,-0.4914364516735077,-0.14816810190677643,-9.963300704956055,0,0,44.0,1,1,272,286
125.47911500,125479115,1,0.00038027315167710185,-0.0022260998375713825,0.0005561661091633141,-0.4914364516735077,-0.14816810190677643,-9.963300704956055,0,0,44.0,0,0,272,286
125.48181300,125481813,1,-0.00011440287926234305,-0.00262331566773355,0.00045136900735087693,-0.4918953776359558,-0.14838284254074097,-9.96326732635498,0,0,44.0,1,1,272,286
125.48435700,125484357,1,-0.00011440287926234305,-0.00262331566773355,0.00045136900735087693,-0.4918953776359558,-0.14838284254074097,-9.96326732635498,0,0,44.0,0,0,272,286
125.48671300,125486713,1,-0.0002603415341582149,-0.0029810506384819746,0.0002661667240317911,-0.4923376739025116,-0.14859744906425476,-9.963212013244629,0,0,44.0,1,1,272,286
125.48936900,125489369,1,-0.0002603415341582149,-0.0029810506384819746,0.0002661667240317911,-0.4923376739025116,-0.14859744906425476,-9.963212013244629,0,0,44.0,0,0,272,286
125.49185100,125491851,1,-7.482279761461541e-05,-0.003177533159032464,2.613915057736449e-05,-0.49276310205459595,-0.14881110191345215,-9.963135719299316,0,0,44.0,1,1,272,286
125.49430100,125494301,1,-7.482279761461541e-05,-0.003177533159032464,2.613915057736449e-05,-0.4930991530418396,-0.14902310073375702,-9.963042259216309,0,0,44.0,0,1,272,286
125.49718300,125497183,1,0.00029665057081729174,-0.0031325393356382847,-0.0001625643199076876,-0.4932798147201538,-0.14916042983531952,-9.962930679321289,0,0,44.0,1,1,272,286
125.49968100,125499681,1,0.00029665057081729174,-0.0031325393356382847,-0.0001625643199076876,-0.4932798147201538,-0.14916042983531952,-9.962930679321289,0,0,44.0,0,0,272,286
125.50164800,125501648,1,0.0006645572721026838,-0.0028422896284610033,-0.0001684601156739518,-0.49338993430137634,-0.14915655553340912,-9.962803840637207,0,0,44.0,1,1,272,286
125.50453200,125504532,1,0.0006645572721026838,-0.0028422896284610033,-0.0001684601156739518,-0.49338993430137634,-0.14915655553340912,-9.962803840637207,0,0,44.0,0,0,272,286
125.50690600,125506906,1,0.0008883699774742126,-0.0023856053594499826,6.220114300958812e-06,-0.4935075044631958,-0.1490958333015442,-9.962664604187012,0,0,44.0,1,1,272,286
125.50937100,125509371,1,0.0008883699774742126,-0.0023856053594499826,6.220114300958812e-06,-0.49363139271736145,-0.14905571937561035,-9.96251392364502,0,0,44.0,0,1,272,286
125.51287400,125512874,1,0.0009174182778224349,-0.0018299584044143558,0.00020560399570968002,-0.49383294582366943,-0.14903457462787628,-9.962352752685547,0,0,44.0,1,1,272,286
125.51455200,125514552,1,0.0009174182778224349,-0.0018299584044143558,0.00020560399570968002,-0.49383294582366943,-0.14903457462787628,-9.962352752685547,0,0,44.0,0,0,272,286
125.51665500,125516655,1,0.0007559864898212254,-0.001268296386115253,0.00034434377448633313,-0.4941771626472473,-0.1490309089422226,-9.962182998657227,0,0,44.0,1,1,272,286
125.51949400,125519494,1,0.0007559864898212254,-0.001268296386115253,0.00034434377448633313,-0.4941771626472473,-0.1490309089422226,-9.962182998657227,0,0,44.0,0,0,272,286
125.52181200,125521812,1,0.0005205211928114295,-0.0008342601940967143,0.0004715461691375822,-0.4945782721042633,-0.1490432322025299,-9.962007522583008,0,0,44.0,1,1,272,286
125.52446900,125524469,1,0.0005205211928114295,-0.0008342601940967143,0.0004715461691375822,-0.4948851764202118,-0.149070143699646,-9.961824417114258,0,0,44.0,0,1,272,286
125.52834100,125528341,1,0.0003676851629279554,-0.0006195855094119906,0.0006567547097802162,-0.495032399892807,-0.14911028742790222,-9.961638450622559,0,0,44.0,1,1,272,286
125.52984500,125529845,1,0.0003676851629279554,-0.0006195855094119906,0.0006567547097802162,-0.495032399892807,-0.14911028742790222,-9.961638450622559,0,0,44.0,0,0,272,286
125.53217800,125532178,1,0.0003242249949835241,-0.000595498364418745,0.0008430213783867657,-0.4951053559780121,-0.1491623967885971,-9.96144962310791,0,0,44.0,1,1,272,286
125.53496000,125534960,1,0.0003242249949835241,-0.000595498364418745,0.0008430213783867657,-0.4951053559780121,-0.1491623967885971,-9.96144962310791,0,0,44.0,0,0,272,286
125.53734400,125537344,1,0.0003447796334512532,-0.0007168631418608129,0.000916298187803477,-0.4951823651790619,-0.14922526478767395,-9.961258888244629,0,0,44.0,1,1,272,286
125.53973100,125539731,1,0.0003447796334512532,-0.0007168631418608129,0.000916298187803477,-0.49519047141075134,-0.14929771423339844,-9.961067199707031,0,0,44.0,0,1,272,286
125.54386800,125543868,1,0.00043759908294305205,-0.0010212481720373034,0.0008769003325141966,-0.49513548612594604,-0.1493786722421646,-9.9608736038208,0,0,44.0,1,1,272,286
125.54531900,125545319,1,0.0006376430974341929,-0.0014573156367987394,0.0007848503882996738,-0.49513548612594604,-0.1493786722421646,-9.9608736038208,0,0,44.0,1,0,272,286
125.54951100,125549511,1,0.0006376430974341929,-0.0014573156367987394,0.0007848503882996738,-0.4950953722000122,-0.1494671106338501,-9.960680961608887,0,0,44.0,0,1,272,286
125.55138500,125551385,1,0.0008621198358014226,-0.0018091941019520164,0.0007218889077194035,-0.49499669671058655,-0.14948970079421997,-9.960489273071289,0,0,44.0,1,1,272,286
125.55482500,125554825,1,0.0008621198358014226,-0.0018091941019520164,0.0007218889077194035,-0.49499669671058655,-0.14948970079421997,-9.960489273071289,0,0,44.0,0,0,272,286
125.55617700,125556177,1,0.0009797855746001005,-0.0018932591192424297,0.0007261330028995872,-0.4948447346687317,-0.1493072807788849,-9.960298538208008,0,0,44.0,1,1,272,286
125.56031300,125560313,1,0.0009797855746001005,-0.0018932591192424297,0.0007261330028995872,-0.4947894215583801,-0.1489379107952118,-9.960184097290039,0,0,44.0,0,1,272,286
125.56290200,125562902,1,0.0009389322367496789,-0.0016979228239506483,0.0007227605092339218,-0.49482259154319763,-0.14854362607002258,-9.96020793914795,0,0,44.0,1,1,272,286
125.56514900,125565149,1,0.0009389322367496789,-0.0016979228239506483,0.0007227605092339218,-0.49482259154319763,-0.14854362607002258,-9.96020793914795,0,0,44.0,0,0,272,286
125.56683900,125566839,1,0.0006955154240131378,-0.001345382770523429,0.000631816394161433,-0.49479201436042786,-0.1482003778219223,-9.960289001464844,0,0,44.0,1,1,272,286
125.57036700,125570367,1,0.0006955154240131378,-0.001345382770523429,0.000631816394161433,-0.49479201436042786,-0.1482003778219223,-9.960289001464844,0,0,44.0,0,0,272,286
125.57162700,125571627,1,0.0003005752805620432,-0.0010084420209750533,0.00042535338434390724,-0.4946307837963104,-0.1479051262140274,-9.960348129272461,0,0,44.0,1,1,272,286
125.57536000,125575360,1,0.0003005752805620432,-0.0010084420209750533,0.00042535338434390724,-0.4944230318069458,-0.14765489101409912,-9.960387229919434,0,0,44.0,0,1,272,286
125.57846100,125578461,1,-2.703866812225897e-05,-0.0008590540383011103,0.0001490753929829225,-0.4942457675933838,-0.14744681119918823,-9.960409164428711,0,0,44.0,1,1,272,286
125.58018000,125580180,1,-2.703866812225897e-05,-0.0008590540383011103,0.0001490753929829225,-0.4942457675933838,-0.14744681119918823,-9.960409164428711,0,0,44.0,0,0,272,286
125.58239500,125582395,1,-9.948230581358075e-05,-0.0009153841529041529,-0.00012004793825326487,-0.4940248429775238,-0.1472780555486679,-9.96041488647461,0,0,44.0,1,1,272,286
125.58553600,125585536,1,0.0001410956756444648,-0.0009861845755949616,-0.0003429285134188831,-0.4940248429775238,-0.1472780555486679,-9.96041488647461,0,0,44.0,1,0,272,286
125.59025000,125590250,1,0.0006334239151328802,-0.0008851150632835925,-0.0005485077272169292,-0.4936922788619995,-0.14714598655700684,-9.960476875305176,0,0,44.0,1,1,272,286
125.59171000,125591710,1,0.0006334239151328802,-0.0008851150632835925,-0.0005485077272169292,-0.49325892329216003,-0.146975576877594,-9.960738182067871,0,0,44.0,0,1,272,286
125.59537200,125595372,1,0.0011795398313552141,-0.0005840160301886499,-0.0007967027486301959,-0.49273499846458435,-0.14669838547706604,-9.961177825927734,0,0,44.0,1,1,272,286
125.59664800,125596648,1,0.0011795398313552141,-0.0005840160301886499,-0.0007967027486301959,-0.49273499846458435,-0.14669838547706604,-9.961177825927734,0,0,44.0,0,0,272,286
125.60053200,125600532,1,0.0015833846991881728,-0.0001838902971940115,-0.001027966383844614,-0.4921301305294037,-0.14639689028263092,-9.96163558959961,0,0,44.0,1,1,272,286
125.60228100,125602281,1,0.0015833846991881728,-0.0001838902971940115,-0.001027966383844614,-0.49145352840423584,-0.14614666998386383,-9.962035179138184,0,0,44.0,0,1,272,286
125.60564900,125605649,1,0.0017649843357503414,0.00016272217908408493,-0.0010876713786274195,-0.49145352840423584,-0.14614666998386383,-9.962035179138184,0,0,44.0,1,0,272,286
125.61057600,125610576,1,0.0017176507972180843,0.0003425058093853295,-0.00092211744049564,-0.4899192452430725,-0.14578643441200256,-9.96267318725586,0,0,44.0,1,1,272,286
125.61206400,125612064,1,0.0017176507972180843,0.0003425058093853295,-0.00092211744049564,-0.4899192452430725,-0.14578643441200256,-9.96267318725586,0,0,44.0,0,0,272,286
125.61525800,125615258,1,0.001558171701617539,0.00036466174060478806,-0.0006229464197531343,-0.4890773594379425,-0.14566993713378906,-9.96291732788086,0,0,44.0,1,1,272,286
125.61701400,125617014,1,0.001558171701617539,0.00036466174060478806,-0.0006229464197531343,-0.4890773594379425,-0.14566993713378906,-9.96291732788086,0,0,44.0,0,0,272,286
125.62039600,125620396,1,0.0014914681669324636,0.00021683058002963662,-0.0003012078523170203,-0.4881954789161682,-0.14559170603752136,-9.963117599487305,0,0,44.0,1,1,272,286
125.62193000,125621930,1,0.0014914681669324636,0.00021683058002963662,-0.0003012078523170203,-0.4872802793979645,-0.14554879069328308,-9.963275909423828,0,0,44.0,0,1,272,286
125.62549200,125625492,1,0.0016520260833203793,-0.00020678533473983407,2.3570664779981598e-05,-0.4864104390144348,-0.1455383449792862,-9.963395118713379,0,0,44.0,1,1,272,286
125.62700400,125627004,1,0.0016520260833203793,-0.00020678533473983407,2.3570664779981598e-05,-0.4864104390144348,-0.1455383449792862,-9.963395118713379,0,0,44.0,0,0,272,286
125.63019000,125630190,1,0.002032160758972168,-0.0008758485782891512,0.00038276787381619215,-0.48573005199432373,-0.14555767178535461,-9.963479042053223,0,0,44.0,1,1,272,286
125.63200900,125632009,1,0.002032160758972168,-0.0008758485782891512,0.00038276787381619215,-0.48573005199432373,-0.14555767178535461,-9.963479042053223,0,0,44.0,0,0,272,286
125.63539900,125635399,1,0.0024669913109391928,-0.001609555445611477,0.0007452814024873078,-0.4852255880832672,-0.14560414850711823,-9.963529586791992,0,0,44.0,1,1,272,286
125.63686700,125636867,1,0.0024669913109391928,-0.001609555445611477,0.0007452814024873078,-0.4847392439842224,-0.14567530155181885,-9.963550567626953,0,0,44.0,0,1,272,286
125.64080400,125640804,1,0.002735538873821497,-0.0022190986201167107,0.0010102116502821445,-0.484271377325058,-0.14576876163482666,-9.963541984558105,0,0,44.0,1,1,272,286
125.64225600,125642256,1,0.002735538873821497,-0.0022190986201167107,0.0010102116502821445,-0.484271377325058,-0.14576876163482666,-9.963541984558105,0,0,44.0,0,0,272,286
125.64520600,125645206,1,0.0027486009057611227,-0.0025833705440163612,0.0010981860104948282,-0.48389455676078796,-0.1458822786808014,-9.963507652282715,0,0,44.0,1,1,272,286
125.64700100,125647001,1,0.0027486009057611227,-0.0025833705440163612,0.0010981860104948282,-0.48389455676078796,-0.1458822786808014,-9.963507652282715,0,0,44.0,0,0,272,286
125.65033800,125650338,1,0.0025840415619313717,-0.002719889860600233,0.0009956791764125228,-0.4836024045944214,-0.14601372182369232,-9.96345043182373,0,0,44.0,1,1,272,286
125.65189800,125651898,1,0.0025840415619313717,-0.002719889860600233,0.0009956791764125228,-0.4836024045944214,-0.14601372182369232,-9.96345043182373,0,0,44.0,0,0,272,286
125.65533400,125655334,1,0.0023105996660888195,-0.0026737807784229517,0.000725707330275327,-0.48346126079559326,-0.1461610496044159,-9.963371276855469,0,0,44.0,1,1,272,286
125.65707700,125657077,1,0.0023105996660888195,-0.0026737807784229517,0.000725707330275327,-0.4834587275981903,-0.14632238447666168,-9.963273048400879,0,0,44.0,0,1,272,286
125.66019200,125660192,1,0.001939326524734497,-0.0024133403785526752,0.0004108702705707401,-0.48351067304611206,-0.14649590849876404,-9.963086128234863,0,0,44.0,1,1,272,286
125.66204600,125662046,1,0.001939326524734497,-0.0024133403785526752,0.0004108702705707401,-0.48351067304611206,-0.14649590849876404,-9.963086128234863,0,0,44.0,0,0,272,286
125.66539100,125665391,1,0.0015755720669403672,-0.001913792104460299,0.00020643904281314462,-0.4836122691631317,-0.14667993783950806,-9.96274471282959,0,0,44.0,1,1,272,286
125.66691000,125666910,1,0.0015755720669403672,-0.001913792104460299,0.00020643904281314462,-0.4836122691631317,-0.14667993783950806,-9.96274471282959,0,0,44.0,0,0,272,286
125.67033500,125670335,1,0.001399383181706071,-0.0011999531416222453,0.0001340462185908109,-0.4836865961551666,-0.146872878074646,-9.962336540222168,0,0,44.0,1,1,272,286
125.67200400,125672004,1,0.001399383181706071,-0.0011999531416222453,0.0001340462185908109,-0.48366332054138184,-0.14707322418689728,-9.961942672729492,0,0,44.0,0,1,272,286
125.67520400,125675204,1,0.0014752137940376997,-0.0003606976824812591,0.00014207929780241102,-0.4835508465766907,-0.14727962017059326,-9.96156120300293,0,0,44.0,1,1,272,286
125.67700200,125677002,1,0.0014752137940376997,-0.0003606976824812591,0.00014207929780241102,-0.4835508465766907,-0.14727962017059326,-9.96156120300293,0,0,44.0,0,0,272,286
125.68034700,125680347,1,0.0017128154868260026,0.00045360371586866677,0.00019086766405962408,-0.48335710167884827,-0.1474907398223877,-9.961193084716797,0,0,44.0,1,1,272,286
125.68187300,125681873,1,0.0017128154868260026,0.00045360371586866677,0.00019086766405962408,-0.48335710167884827,-0.1474907398223877,-9.961193084716797,0,0,44.0,0,0,272,286
125.68537400,125685374,1,0.0019974191673099995,0.0011262584012001753,0.00025324596208520234,-0.4831622540950775,-0.14770540595054626,-9.960911750793457,0,0,44.0,1,1,272,286
125.68704100,125687041,1,0.0019974191673099995,0.0011262584012001753,0.00025324596208520234,-0.4831622540950775,-0.14770540595054626,-9.960911750793457,0,0,44.0,0,0,272,286
125.69009700,125690097,1,0.002261633286252618,0.0016186636639758945,0.0003128734533675015,-0.48303934931755066,-0.14792248606681824,-9.960782051086426,0,0,44.0,1,1,272,286
125.69201400,125692014,1,0.002261633286252618,0.0016186636639758945,0.0003128734533675015,-0.48291048407554626,-0.14814099669456482,-9.96072006225586,0,0,44.0,0,1,272,286
125.69531800,125695318,1,0.0024734647013247013,0.0018970542587339878,0.00040370854549109936,-0.48277658224105835,-0.1483599841594696,-9.960648536682129,0,0,44.0,1,1,272,286
125.69685200,125696852,1,0.0024734647013247013,0.0018970542587339878,0.00040370854549109936,-0.48277658224105835,-0.1483599841594696,-9.960648536682129,0,0,44.0,0,0,272,286
125.70080400,125700804,1,0.0026244688779115677,0.001851401524618268,0.0005806285189464688,-0.4827832877635956,-0.14857855439186096,-9.960567474365234,0,0,44.0,1,1,272,286
125.70241900,125702419,1,0.0026244688779115677,0.001851401524618268,0.0005806285189464688,-0.4827832877635956,-0.14857855439186096,-9.960567474365234,0,0,44.0,0,0,272,286
125.70570200,125705702,1,0.0026777784805744886,0.0013912668218836188,0.0008166496409103274,-0.4829186201095581,-0.148795947432518,-9.960478782653809,0,0,44.0,1,1,272,286
125.70744200,125707442,1,0.0026777784805744886,0.0013912668218836188,0.0008166496409103274,-0.483026385307312,-0.14901140332221985,-9.960380554199219,0,0,44.0,0,1,272,286
125.71123800,125711238,1,0.002545434981584549,0.0006610429263673723,0.0010462758364155889,-0.4831085801124573,-0.14915192127227783,-9.960277557373047,0,0,44.0,1,1,272,286
125.71257100,125712571,1,0.002545434981584549,0.0006610429263673723,0.0010462758364155889,-0.4831085801124573,-0.14915192127227783,-9.960277557373047,0,0,44.0,0,0,272,286
125.71580500,125715805,1,0.0021687368862330914,-1.0854112588276621e-05,0.001236294279806316,-0.48323941230773926,-0.14915098249912262,-9.96016788482666,0,0,44.0,1,1,272,286
125.71775700,125717757,1,0.0021687368862330914,-1.0854112588276621e-05,0.001236294279806316,-0.48323941230773926,-0.14915098249912262,-9.96016788482666,0,0,44.0,0,0,272,286
125.72066600,125720666,1,0.001597666647285223,-0.00041997074731625617,0.001375606283545494,-0.48334190249443054,-0.1491653472185135,-9.960053443908691,0,0,44.0,1,1,272,286
125.72272000,125722720,1,0.001597666647285223,-0.00041997074731625617,0.001375606283545494,-0.4833456873893738,-0.14933834969997406,-9.959935188293457,0,0,44.0,0,1,272,286
125.72588900,125725889,1,0.0009731638128869236,-0.0005851032328791916,0.0014664207119494677,-0.4832591414451599,-0.14958351850509644,-9.95981502532959,0,0,44.0,1,1,272,286
125.72751600,125727516,1,0.0009731638128869236,-0.0005851032328791916,0.0014664207119494677,-0.4832591414451599,-0.14958351850509644,-9.95981502532959,0,0,44.0,0,0,272,286
125.73079700,125730797,1,0.0004614352947100997,-0.0005966692115180194,0.0015175514854490757,-0.48316264152526855,-0.1498214304447174,-9.95969295501709,0,0,44.0,1,1,272,286
125.73269800,125732698,1,0.0004614352947100997,-0.0005966692115180194,0.0015175514854490757,-0.48316264152526855,-0.1498214304447174,-9.95969295501709,0,0,44.0,0,0,272,286
125.73567000,125735670,1,0.00017357846081722528,-0.0005261671030893922,0.0015398714458569884,-0.4831297695636749,-0.1500517725944519,-9.959568977355957,0,0,44.0,1,1,272,286
125.73771100,125737711,1,0.00017357846081722528,-0.0005261671030893922,0.0015398714458569884,-0.4831297695636749,-0.1500517725944519,-9.959568977355957,0,0,44.0,0,0,272,286
125.74080300,125740803,1,0.00013228617899585515,-0.0004659801779780537,0.0015436119865626097,-0.4830828607082367,-0.1502743661403656,-9.959443092346191,0,0,44.0,1,1,272,286
125.74251900,125742519,1,0.00013228617899585515,-0.0004659801779780537,0.0015436119865626097,-0.48302334547042847,-0.15048901736736298,-9.959317207336426,0,0,44.0,0,1,272,286
125.74582700,125745827,1,0.00031047442462295294,-0.0005468755261972547,0.001494991360232234,-0.4830247759819031,-0.1506955623626709,-9.959190368652344,0,0,44.0,1,1,272,286
125.74767000,125747670,1,0.00031047442462295294,-0.0005468755261972547,0.001494991360232234,-0.4830247759819031,-0.1506955623626709,-9.959190368652344,0,0,44.0,0,0,272,286
125.75074900,125750749,1,0.0006593273719772696,-0.0008148993947543204,0.001342565519735217,-0.4830096960067749,-0.1508939117193222,-9.959065437316895,0,0,44.0,1,1,272,286
125.75269200,125752692,1,0.0006593273719772696,-0.0008148993947543204,0.001342565519735217,-0.4830096960067749,-0.1508939117193222,-9.959065437316895,0,0,44.0,0,0,272,286
125.75591800,125755918,1,0.0010843214113265276,-0.001138370600529015,0.0011179109569638968,-0.48297950625419617,-0.15115639567375183,-9.958868026733398,0,0,44.0,1,1,272,286
125.75756900,125757569,1,0.0010843214113265276,-0.001138370600529015,0.0011179109569638968,-0.48308032751083374,-0.15154889225959778,-9.958462715148926,0,0,44.0,0,1,272,286
125.76098200,125760982,1,0.0014399164356291294,-0.001355601823888719,0.0009330587927252054,-0.48337307572364807,-0.15198653936386108,-9.957866668701172,0,0,44.0,1,1,272,286
125.76277700,125762777,1,0.0014399164356291294,-0.001355601823888719,0.0009330587927252054,-0.48337307572364807,-0.15198653936386108,-9.957866668701172,0,0,44.0,0,0,272,286
125.76565500,125765655,1,0.0016610255697742105,-0.0014409496216103435,0.0008402614621445537,-0.48376792669296265,-0.1523914784193039,-9.957244873046875,0,0,44.0,1,1,272,286
125.76770200,125767702,1,0.0016610255697742105,-0.0014409496216103435,0.0008402614621445537,-0.48376792669296265,-0.1523914784193039,-9.957244873046875,0,0,44.0,0,0,272,286
125.77086600,125770866,1,0.001734880032017827,-0.001485968823544681,0.0007681580609641969,-0.48410993814468384,-0.1527649611234665,-9.956746101379395,0,0,44.0,1,1,272,286
125.77254300,125772543,1,0.001734880032017827,-0.001485968823544681,0.0007681580609641969,-0.48410993814468384,-0.1527649611234665,-9.956746101379395,0,0,44.0,0,0,272,286
125.77584000,125775840,1,0.001678064581938088,-0.0015869298949837685,0.000718255469109863,-0.4844024181365967,-0.15310825407505035,-9.956432342529297,0,0,44.0,1,1,272,286
125.77770200,125777702,1,0.001678064581938088,-0.0015869298949837685,0.000718255469109863,-0.48479312658309937,-0.15335027873516083,-9.956218719482422,0,0,44.0,0,1,272,286
125.78066800,125780668,1,0.0016460694605484605,-0.001701176050119102,0.0007719590794295073,-0.48527225852012634,-0.1534263789653778,-9.956096649169922,0,0,44.0,1,1,272,286
125.78271000,125782710,1,0.0016460694605484605,-0.001701176050119102,0.0007719590794295073,-0.48527225852012634,-0.1534263789653778,-9.956096649169922,0,0,44.0,0,0,272,286
125.78580500,125785805,1,0.001758283469825983,-0.0016781336162239313,0.0009133792482316494,-0.48575809597969055,-0.15342271327972412,-9.956131935119629,0,0,44.0,1,1,272,286
125.78779800,125787798,1,0.001758283469825983,-0.0016781336162239313,0.0009133792482316494,-0.48575809597969055,-0.15342271327972412,-9.956131935119629,0,0,44.0,0,0,272,286
125.79103700,125791037,1,0.002012251177802682,-0.0014608079800382257,0.0010782977333292365,-0.486248254776001,-0.15341845154762268,-9.956239700317383,0,0,44.0,1,1,272,286
125.79271300,125792713,1,0.002012251177802682,-0.0014608079800382257,0.0010782977333292365,-0.4866681396961212,-0.15341363847255707,-9.95641040802002,0,0,44.0,0,1,272,286
125.79566500,125795665,1,0.002342239487916231,-0.001134227029979229,0.0012294478947296739,-0.48702213168144226,-0.15340834856033325,-9.956711769104004,0,0,44.0,1,1,272,286
125.79768300,125797683,1,0.002342239487916231,-0.001134227029979229,0.0012294478947296739,-0.48702213168144226,-0.15340834856033325,-9.956711769104004,0,0,44.0,0,0,272,286
125.80079100,125800791,1,0.002617770340293646,-0.0008441995596513152,0.001349531696178019,-0.4873868227005005,-0.15340262651443481,-9.957058906555176,0,0,44.0,1,1,272,286
125.80274000,125802740,1,0.002617770340293646,-0.0008441995596513152,0.001349531696178019,-0.4873868227005005,-0.15340262651443481,-9.957058906555176,0,0,44.0,0,0,272,286
125.80607600,125806076,1,0.0027372054755687714,-0.0007032022695057094,0.001392355072312057,-0.4877599775791168,-0.15339654684066772,-9.957375526428223,0,0,44.0,1,1,272,286
125.80799500,125807995,1,0.0027372054755687714,-0.0007032022695057094,0.001392355072312057,-0.4877599775791168,-0.15339654684066772,-9.957375526428223,0,0,44.0,0,0,272,286
125.81064400,125810644,1,0.002630028175190091,-0.0006623445660807192,0.0012618581531569362,-0.48821184039115906,-0.15339015424251556,-9.957662582397461,0,0,44.0,1,1,272,286
125.81271000,125812710,1,0.002630028175190091,-0.0006623445660807192,0.0012618581531569362,-0.4887339472770691,-0.15338347852230072,-9.957921028137207,0,0,44.0,0,1,272,286
125.81585400,125815854,1,0.0022531196009367704,-0.0005540776764973998,0.0009352216147817671,-0.48917365074157715,-0.15337660908699036,-9.958151817321777,0,0,44.0,1,1,272,286
125.81749100,125817491,1,0.0022531196009367704,-0.0005540776764973998,0.0009352216147817671,-0.48917365074157715,-0.15337660908699036,-9.958151817321777,0,0,44.0,0,0,272,286
125.82079400,125820794,1,0.0016265497542917728,-0.0003015008114743978,0.000557686376851052,-0.4894639849662781,-0.15329720079898834,-9.958356857299805,0,0,44.0,1,1,272,286
125.82287700,125822877,1,0.0016265497542917728,-0.0003015008114743978,0.000557686376851052,-0.4894639849662781,-0.15329720079898834,-9.958356857299805,0,0,44.0,0,0,272,286
125.82566900,125825669,1,0.0008843611576594412,2.865190981538035e-05,0.0003393688821233809,-0.4896165728569031,-0.15307939052581787,-9.958464622497559,0,0,44.0,1,1,272,286
125.82780000,125827800,1,0.0008843611576594412,2.865190981538035e-05,0.0003393688821233809,-0.48964253067970276,-0.15280809998512268,-9.958412170410156,0,0,44.0,0,1,272,286
125.83091000,125830910,1,0.00028310270863585174,0.00030513410456478596,0.00036491258651949465,-0.48955249786376953,-0.15256129205226898,-9.958284378051758,0,0,44.0,1,1,272,286
125.83315000,125833150,1,0.00028310270863585174,0.00030513410456478596,0.00036491258651949465,-0.48955249786376953,-0.15256129205226898,-9.958284378051758,0,0,44.0,0,0,272,286
125.83588400,125835884,1,6.075452620279975e-05,0.0003837191325146705,0.0005138439009897411,-0.48935666680336,-0.15233778953552246,-9.958162307739258,0,0,44.0,1,1,272,286
125.83837400,125838374,1,6.075452620279975e-05,0.0003837191325146705,0.0005138439009897411,-0.48935666680336,-0.15233778953552246,-9.958162307739258,0,0,44.0,0,0,272,286
125.84065800,125840658,1,0.0003238842764403671,0.00022030110994819552,0.0005775390891358256,-0.4890648424625397,-0.15213645994663239,-9.958044052124023,0,0,44.0,1,1,272,286
125.84301500,125843015,1,0.0003238842764403671,0.00022030110994819552,0.0005775390891358256,-0.48875853419303894,-0.15195618569850922,-9.957930564880371,0,0,44.0,0,1,272,286
125.84636800,125846368,1,0.0009253141470253468,-4.375828939373605e-05,0.00046045021736063063,-0.4885125458240509,-0.1517958790063858,-9.957894325256348,0,0,44.0,1,1,272,286
125.84831000,125848310,1,0.0009253141470253468,-4.375828939373605e-05,0.00046045021736063063,-0.4885125458240509,-0.1517958790063858,-9.957894325256348,0,0,44.0,0,0,272,286
125.85083400,125850834,1,0.0015664619859308004,-0.0002345755638089031,0.00022532875300385058,-0.48825034499168396,-0.1516544222831726,-9.957999229431152,0,0,44.0,1,1,272,286
125.85351800,125853518,1,0.0015664619859308004,-0.0002345755638089031,0.00022532875300385058,-0.48825034499168396,-0.1516544222831726,-9.957999229431152,0,0,44.0,0,0,272,286
125.85566000,125855660,1,0.002042978536337614,-0.00031492329435423017,7.729551725788042e-06,-0.4879019260406494,-0.15153075754642487,-9.958162307739258,0,0,44.0,1,1,272,286
125.85851700,125858517,1,0.002042978536337614,-0.00031492329435423017,7.729551725788042e-06,-0.4875483512878418,-0.15142382681369781,-9.958232879638672,0,0,44.0,0,1,272,286
125.86182500,125861825,1,0.0022740880958735943,-0.00036692110006697476,-4.0160353819373995e-05,-0.48726364970207214,-0.15133263170719147,-9.958147048950195,0,0,44.0,1,1,272,286
125.86346200,125863462,1,0.0022740880958735943,-0.00036692110006697476,-4.0160353819373995e-05,-0.48726364970207214,-0.15133263170719147,-9.958147048950195,0,0,44.0,0,0,272,286
125.86580300,125865803,1,0.0022563431411981583,-0.0005220800521783531,0.00013437625602819026,-0.4870430827140808,-0.15125618875026703,-9.957990646362305,0,0,44.0,1,1,272,286
125.86866000,125868660,1,0.0022563431411981583,-0.0005220800521783531,0.00013437625602819026,-0.4870430827140808,-0.15125618875026703,-9.957990646362305,0,0,44.0,0,0,272,286
125.87066000,125870660,1,0.0020272452384233475,-0.0008328240946866572,0.0003975690924562514,-0.4868820309638977,-0.15119346976280212,-9.957840919494629,0,0,44.0,1,1,272,286
125.87370300,125873703,1,0.0020272452384233475,-0.0008328240946866572,0.0003975690924562514,-0.48670363426208496,-0.15114359557628632,-9.957698822021484,0,0,44.0,0,1,272,286
125.87731100,125877311,1,0.001681832130998373,-0.0012178487377241254,0.0005813942989334464,-0.48651009798049927,-0.15110565721988678,-9.957564353942871,0,0,44.0,1,1,272,286
125.87856600,125878566,1,0.001681832130998373,-0.0012178487377241254,0.0005813942989334464,-0.48651009798049927,-0.15110565721988678,-9.957564353942871,0,0,44.0,0,0,272,286
125.88136300,125881363,1,0.001288133324123919,-0.001580876880325377,0.0006526533979922533,-0.4863757789134979,-0.15107876062393188,-9.957437515258789,0,0,44.0,1,1,272,286
125.88381400,125883814,1,0.001288133324123919,-0.001580876880325377,0.0006526533979922533,-0.4863757789134979,-0.15107876062393188,-9.957437515258789,0,0,44.0,0,0,272,286
125.88614300,125886143,1,0.000847259012516588,-0.0018750762101262808,0.0006538404268212616,-0.48622384667396545,-0.15106210112571716,-9.957319259643555,0,0,44.0,1,1,272,286
125.88882800,125888828,1,0.000847259012516588,-0.0018750762101262808,0.0006538404268212616,-0.48622384667396545,-0.15106210112571716,-9.957319259643555,0,0,44.0,0,0,272,286
125.89133400,125891334,1,0.00040930250543169677,-0.002086846623569727,0.0006602882640436292,-0.48605626821517944,-0.15105482935905457,-9.957207679748535,0,0,44.0,1,1,272,286
125.89361400,125893614,1,0.00040930250543169677,-0.002086846623569727,0.0006602882640436292,-0.4859474003314972,-0.15098387002944946,-9.957104682922363,0,0,44.0,0,1,272,286
125.89689400,125896894,1,4.20397482230328e-05,-0.0022221000399440527,0.0007105289259925485,-0.48582035303115845,-0.1507825255393982,-9.957008361816406,0,0,44.0,1,1,272,286
125.89878300,125898783,1,4.20397482230328e-05,-0.0022221000399440527,0.0007105289259925485,-0.48582035303115845,-0.1507825255393982,-9.957008361816406,0,0,44.0,0,0,272,286
125.90110600,125901106,1,-0.000230280144023709,-0.002296010497957468,0.0007336549460887909,-0.48560473322868347,-0.1505349725484848,-9.956917762756348,0,0,44.0,1,1,272,286
125.90392600,125903926,1,-0.000230280144023709,-0.002296010497957468,0.0007336549460887909,-0.48560473322868347,-0.1505349725484848,-9.956917762756348,0,0,44.0,0,0,272,286
125.90658900,125906589,1,-0.0004099814686924219,-0.0023261953610926867,0.0006968984380364418,-0.4853813052177429,-0.1503184735774994,-9.95683479309082,0,0,44.0,1,1,272,286
125.90863400,125908634,1,-0.0004099814686924219,-0.0023261953610926867,0.0006968984380364418,-0.4852238893508911,-0.15013118088245392,-9.956758499145508,0,0,44.0,0,1,272,286
125.91269100,125912691,1,-0.0005129066412337124,-0.002328765345737338,0.0006346573936752975,-0.485055148601532,-0.14997132122516632,-9.95668888092041,0,0,44.0,1,1,272,286
125.91421300,125914213,1,-0.0005129066412337124,-0.002328765345737338,0.0006346573936752975,-0.485055148601532,-0.14997132122516632,-9.95668888092041,0,0,44.0,0,0,272,286
125.91653300,125916533,1,-0.0005594591493718326,-0.002316500060260296,0.0005689302925020456,-0.4848766326904297,-0.1498371660709381,-9.956624031066895,0,0,44.0,1,1,272,286
125.91921200,125919212,1,-0.0005594591493718326,-0.002316500060260296,0.0005689302925020456,-0.4848766326904297,-0.1498371660709381,-9.956624031066895,0,0,44.0,0,0,272,286
125.92177900,125921779,1,-0.0005271413829177618,-0.002256358042359352,0.00046970011317171156,-0.4847622513771057,-0.14972703158855438,-9.956564903259277,0,0,44.0,1,1,272,286
125.92406000,125924060,1,-0.0005271413829177618,-0.002256358042359352,0.00046970011317171156,-0.4846346080303192,-0.149639293551445,-9.956510543823242,0,0,44.0,0,1,272,286
125.92786800,125927868,1,-0.0003325298603158444,-0.0020965735893696547,0.00028451153775677085,-0.4844229817390442,-0.14957240223884583,-9.956533432006836,0,0,44.0,1,1,272,286
125.92930300,125929303,1,-0.0003325298603158444,-0.0020965735893696547,0.00028451153775677085,-0.4844229817390442,-0.14957240223884583,-9.956533432006836,0,0,44.0,0,0,272,286
125.93159100,125931591,1,4.233370054862462e-05,-0.0019099598284810781,8.365607936866581e-05,-0.4842076003551483,-0.14952479302883148,-9.95669937133789,0,0,44.0,1,1,272,286
125.93422600,125934226,1,4.233370054862462e-05,-0.0019099598284810781,8.365607936866581e-05,-0.4842076003551483,-0.14952479302883148,-9.95669937133789,0,0,44.0,0,0,272,286
125.93670200,125936702,1,0.0004521776572801173,-0.001864987425506115,3.252352689742111e-05,-0.48406198620796204,-0.14949503540992737,-9.95692253112793,0,0,44.0,1,1,272,286
125.93906200,125939062,1,0.0004521776572801173,-0.001864987425506115,3.252352689742111e-05,-0.48406198620796204,-0.14949503540992737,-9.95692253112793,0,0,44.0,0,0,272,286
125.94170100,125941701,1,0.0007314457907341421,-0.00206937687471509,0.00019388638611417264,-0.48398080468177795,-0.14948174357414246,-9.957124710083008,0,0,44.0,1,1,272,286
125.94425800,125944258,1,0.0007314457907341421,-0.00206937687471509,0.00019388638611417264,-0.48403114080429077,-0.14948351681232452,-9.957308769226074,0,0,44.0,0,1,272,286
125.94709700,125947097,1,0.0008563168812543154,-0.002497968962416053,0.0004828591481782496,-0.48420172929763794,-0.14949911832809448,-9.957473754882812,0,0,44.0,1,1,272,286
125.94959300,125949593,1,0.0008563168812543154,-0.002497968962416053,0.0004828591481782496,-0.48420172929763794,-0.14949911832809448,-9.957473754882812,0,0,44.0,0,0,272,286
125.95172900,125951729,1,0.0008807910489849746,-0.0029760203324258327,0.0007508089183829725,-0.4843369126319885,-0.14952728152275085,-9.957622528076172,0,0,44.0,1,1,272,286
125.95456700,125954567,1,0.0008807910489849746,-0.0029760203324258327,0.0007508089183829725,-0.4843369126319885,-0.14952728152275085,-9.957622528076172,0,0,44.0,0,0,272,286
125.95672700,125956727,1,0.0008910029428079724,-0.0032782270573079586,0.000881330284755677,-0.48443928360939026,-0.1495668590068817,-9.95775318145752,0,0,44.0,1,1,272,286
125.95971600,125959716,1,0.0008910029428079724,-0.0032782270573079586,0.000881330284755677,-0.4845834970474243,-0.14961673319339752,-9.957869529724121,0,0,44.0,0,1,272,286
125.96264500,125962645,1,0.0009762742556631565,-0.0032725727651268244,0.0009194287122227252,-0.48476552963256836,-0.14967578649520874,-9.95797061920166,0,0,44.0,1,1,272,286
125.96470300,125964703,1,0.0009762742556631565,-0.0032725727651268244,0.0009194287122227252,-0.48476552963256836,-0.14967578649520874,-9.95797061920166,0,0,44.0,0,0,272,286
125.96687700,125966877,1,0.0011714224237948656,-0.002980762394145131,0.0009452798403799534,-0.4849814772605896,-0.14974308013916016,-9.958057403564453,0,0,44.0,1,1,272,286
125.96962500,125969625,1,0.0011714224237948656,-0.002980762394145131,0.0009452798403799534,-0.4849814772605896,-0.14974308013916016,-9.958057403564453,0,0,44.0,0,0,272,286
125.97165200,125971652,1,0.0014772869180887938,-0.0025434549897909164,0.0009185862145386636,-0.48515525460243225,-0.14981761574745178,-9.958130836486816,0,0,44.0,1,1,272,286
125.97485900,125974859,1,0.0014772869180887938,-0.0025434549897909164,0.0009185862145386636,-0.48521745204925537,-0.14989851415157318,-9.958191871643066,0,0,44.0,0,1,272,286
125.97826800,125978268,1,0.001834757742471993,-0.002057127421721816,0.0008265907526947558,-0.48517730832099915,-0.1499849259853363,-9.95824146270752,0,0,44.0,1,1,272,286
125.97983600,125979836,1,0.001834757742471993,-0.002057127421721816,0.0008265907526947558,-0.48517730832099915,-0.1499849259853363,-9.95824146270752,0,0,44.0,0,0,272,286
125.98243400,125982434,1,0.0021206741221249104,-0.001537869917228818,0.000715003174263984,-0.4850436747074127,-0.15007604658603668,-9.958207130432129,0,0,44.0,1,1,272,286
125.98472900,125984729,1,0.0021206741221249104,-0.001537869917228818,0.000715003174263984,-0.4850436747074127,-0.15007604658603668,-9.958207130432129,0,0,44.0,0,0,272,286
125.98728800,125987288,1,0.00223992089740932,-0.0010413533309474587,0.0006528644007630646,-0.4848973751068115,-0.15017113089561462,-9.958026885986328,0,0,44.0,1,1,272,286
125.98993200,125989932,1,0.00223992089740932,-0.0010413533309474587,0.0006528644007630646,-0.4848123788833618,-0.1502695083618164,-9.957781791687012,0,0,44.0,0,1,272,286
125.99372900,125993729,1,0.002169121755287051,-0.0007192617631517351,0.0007105020340532064,-0.4847838282585144,-0.1503705084323883,-9.95755386352539,0,0,44.0,1,1,272,286
125.99522000,125995220,1,0.002169121755287051,-0.0007192617631517351,0.0007105020340532064,-0.4847838282585144,-0.1503705084323883,-9.95755386352539,0,0,44.0,0,0,272,286
125.99782600,125997826,1,0.0019681397825479507,-0.0007915538153611124,0.000863684166688472,-0.48480698466300964,-0.15047353506088257,-9.957341194152832,0,0,44.0,1,1,272,286
126.00006900,126000069,1,0.0019681397825479507,-0.0007915538153611124,0.000863684166688472,-0.48480698466300964,-0.15047353506088257,-9.957341194152832,0,0,44.0,0,0,272,286
126.00273000,126002730,1,0.0017729394603520632,-0.0013529368443414569,0.0010425971122458577,-0.48480504751205444,-0.15057802200317383,-9.957143783569336,0,0,44.0,1,1,272,286
126.00538500,126005385,1,0.0017729394603520632,-0.0013529368443414569,0.0010425971122458577,-0.48480504751205444,-0.15057802200317383,-9.957143783569336,0,0,44.0,0,0,272,286
126.00757200,126007572,1,0.0016536517068743706,-0.002207402838394046,0.001248760148882866,-0.4847077429294586,-0.1506834477186203,-9.956960678100586,0,0,44.0,1,1,272,286
126.01051500,126010515,1,0.0016536517068743706,-0.002207402838394046,0.001248760148882866,-0.48452359437942505,-0.15078933537006378,-9.956791877746582,0,0,44.0,0,1,272,286
126.01359200,126013592,1,0.0015928694047033787,-0.0029538723174482584,0.0015207258984446526,-0.4842606484889984,-0.15089523792266846,-9.956708908081055,0,0,44.0,1,1,272,286
126.01502900,126015029,1,0.0015928694047033787,-0.0029538723174482584,0.0015207258984446526,-0.4842606484889984,-0.15089523792266846,-9.956708908081055,0,0,44.0,0,0,272,286
126.01773800,126017738,1,0.0014881324023008347,-0.003273643320426345,0.0017841216176748276,-0.48399895429611206,-0.1510007530450821,-9.95677661895752,0,0,44.0,1,1,272,286
126.02026700,126020267,1,0.0014881324023008347,-0.003273643320426345,0.0017841216176748276,-0.48399895429611206,-0.1510007530450821,-9.95677661895752,0,0,44.0,0,0,272,286
126.02257600,126022576,1,0.0012087211944162846,-0.0031517043244093657,0.0018752526957541704,-0.48381176590919495,-0.15110552310943604,-9.956910133361816,0,0,44.0,1,1,272,286
126.02526200,126025262,1,0.0012087211944162846,-0.0031517043244093657,0.0018752526957541704,-0.48362112045288086,-0.15120922029018402,-9.957029342651367,0,0,44.0,0,1,272,286
126.02886300,126028863,1,0.0007559817750006914,-0.002776159904897213,0.001693730358965695,-0.48335570096969604,-0.15131153166294098,-9.957137107849121,0,0,44.0,1,1,272,286
126.03018200,126030182,1,0.0007559817750006914,-0.002776159904897213,0.001693730358965695,-0.48335570096969604,-0.15131153166294098,-9.957137107849121,0,0,44.0,0,0,272,286
126.03281600,126032816,1,0.00024211699201259762,-0.002285351976752281,0.00127222400624305,-0.4830951392650604,-0.15141218900680542,-9.957304000854492,0,0,44.0,1,1,272,286
126.03525600,126035256,1,0.00024211699201259762,-0.002285351976752281,0.00127222400624305,-0.4830951392650604,-0.15141218900680542,-9.957304000854492,0,0,44.0,0,0,272,286
126.03755900,126037559,1,-0.0001384045899612829,-0.0017697708681225777,0.0007918925257399678,-0.4829123914241791,-0.15151095390319824,-9.957598686218262,0,0,44.0,1,1,272,286
126.04026800,126040268,1,-0.0001384045899612829,-0.0017697708681225777,0.0007918925257399678,-0.4829123914241791,-0.15151095390319824,-9.957598686218262,0,0,44.0,0,0,272,286
126.04273900,126042739,1,-0.00022090472339186817,-0.0013647362357005477,0.00039874797221273184,-0.4827291965484619,-0.15160763263702393,-9.95793628692627,0,0,44.0,1,1,272,286
126.04509500,126045095,1,-0.00022090472339186817,-0.0013647362357005477,0.00039874797221273184,-0.48254626989364624,-0.15170201659202576,-9.958240509033203,0,0,44.0,0,1,272,286
126.04832100,126048321,1,3.359555557835847e-05,-0.001081434078514576,7.118970825104043e-05,-0.4824366569519043,-0.1517939567565918,-9.95858383178711,0,0,44.0,1,1,272,286
126.05087700,126050877,1,3.359555557835847e-05,-0.001081434078514576,7.118970825104043e-05,-0.4824366569519043,-0.1517939567565918,-9.95858383178711,0,0,44.0,0,0,272,286
126.05259300,126052593,1,0.0005501766572706401,-0.0008223582990467548,-0.0002124275197274983,-0.48232215642929077,-0.1518833041191101,-9.959035873413086,0,0,44.0,1,1,272,286
126.05591300,126055913,1,0.0005501766572706401,-0.0008223582990467548,-0.0002124275197274983,-0.48232215642929077,-0.1518833041191101,-9.959035873413086,0,0,44.0,0,0,272,286
126.05768400,126057684,1,0.0011221128515899181,-0.0005747965769842267,-0.00038622907595708966,-0.4822036027908325,-0.15196993947029114,-9.959511756896973,0,0,44.0,1,1,272,286
126.06074300,126060743,1,0.0011221128515899181,-0.0005747965769842267,-0.00038622907595708966,-0.4821542203426361,-0.15205377340316772,-9.959935188293457,0,0,44.0,0,1,272,286
126.06379900,126063799,1,0.0015485191252082586,-0.00041441229404881597,-0.0003910758241545409,-0.4820959270000458,-0.1521347314119339,-9.960309028625488,0,0,44.0,1,1,272,286
126.06590400,126065904,1,0.0015485191252082586,-0.00041441229404881597,-0.0003910758241545409,-0.4820959270000458,-0.1521347314119339,-9.960309028625488,0,0,44.0,0,0,272,286
126.06769600,126067696,1,0.0017894761404022574,-0.0004510971484705806,-0.0001806884101824835,-0.4820297062397003,-0.1522127240896225,-9.960637092590332,0,0,44.0,1,1,272,286
126.07098800,126070988,1,0.0017894761404022574,-0.0004510971484705806,-0.0001806884101824835,-0.4820297062397003,-0.1522127240896225,-9.960637092590332,0,0,44.0,0,0,272,286
126.07271400,126072714,1,0.001895476714707911,-0.0007111470913514495,0.000277184066362679,-0.482101172208786,-0.152215376496315,-9.960994720458984,0,0,44.0,1,1,272,286
126.07590700,126075907,1,0.001895476714707911,-0.0007111470913514495,0.000277184066362679,-0.4822983741760254,-0.15207673609256744,-9.961448669433594,0,0,44.0,0,1,272,286
126.07940200,126079402,1,0.0019142187666147947,-0.00113096262793988,0.0008761818171478808,-0.48246511816978455,-0.15188169479370117,-9.961917877197266,0,0,44.0,1,1,272,286
126.08105900,126081059,1,0.0019142187666147947,-0.00113096262793988,0.0008761818171478808,-0.48246511816978455,-0.15188169479370117,-9.961917877197266,0,0,44.0,0,0,272,286
126.08323400,126083234,1,0.0018844065489247441,-0.0016520790522918105,0.0014122544089332223,-0.4825310707092285,-0.15170814096927643,-9.962327003479004,0,0,44.0,1,1,272,286
126.08608900,126086089,1,0.0018844065489247441,-0.0016520790522918105,0.0014122544089332223,-0.4825310707092285,-0.15170814096927643,-9.962327003479004,0,0,44.0,0,0,272,286
126.08846500,126088465,1,0.0018339324742555618,-0.002185886027291417,0.0017466578865423799,-0.4825045168399811,-0.1515548974275589,-9.962678909301758,0,0,44.0,1,1,272,286
126.09097000,126090970,1,0.0018339324742555618,-0.002185886027291417,0.0017466578865423799,-0.48239341378211975,-0.15142081677913666,-9.962979316711426,0,0,44.0,0,1,272,286
126.09481200,126094812,1,0.0017806336982175708,-0.002642016625031829,0.0018387463642284274,-0.4822777807712555,-0.15130476653575897,-9.963229179382324,0,0,44.0,1,1,272,286
126.09626100,126096261,1,0.0017342768842354417,-0.002943458268418908,0.0016634900821372867,-0.4822777807712555,-0.15130476653575897,-9.963229179382324,0,0,44.0,1,0,272,286
126.10098300,126100983,1,0.0017342768842354417,-0.002943458268418908,0.0016634900821372867,-0.48230305314064026,-0.1512056589126587,-9.963505744934082,0,0,44.0,0,1,272,286
126.10241900,126102419,1,0.0017409308347851038,-0.002990276552736759,0.0012500337325036526,-0.48252955079078674,-0.15112245082855225,-9.963878631591797,0,0,44.0,1,1,272,286
126.10623200,126106232,1,0.0017409308347851038,-0.002990276552736759,0.0012500337325036526,-0.48252955079078674,-0.15112245082855225,-9.963878631591797,0,0,44.0,0,0,272,286
126.10763500,126107635,1,0.0018162955529987812,-0.0027284063398838043,0.000777413253672421,-0.48286691308021545,-0.15098170936107635,-9.964262962341309,0,0,44.0,1,1,272,286
126.11154200,126111542,1,0.0018162955529987812,-0.0027284063398838043,0.000777413253672421,-0.48315975069999695,-0.15071652829647064,-9.964587211608887,0,0,44.0,0,1,272,286
126.11457600,126114576,1,0.0018315353663638234,-0.0022204129491001368,0.0004326468915678561,-0.4833384156227112,-0.15041086077690125,-9.964852333068848,0,0,44.0,1,1,272,286
126.11608000,126116080,1,0.0018315353663638234,-0.0022204129491001368,0.0004326468915678561,-0.4833384156227112,-0.15041086077690125,-9.964852333068848,0,0,44.0,0,0,272,286
126.11856200,126118562,1,0.001644702977500856,-0.001621983596123755,0.0002932622446678579,-0.4834119379520416,-0.1501416265964508,-9.96506404876709,0,0,44.0,1,1,272,286
126.12131900,126121319,1,0.001644702977500856,-0.001621983596123755,0.0002932622446678579,-0.4834119379520416,-0.1501416265964508,-9.96506404876709,0,0,44.0,0,0,272,286
126.12338600,126123386,1,0.0012556049041450024,-0.0010708138579502702,0.0003673316678032279,-0.48346129059791565,-0.14990673959255219,-9.965224266052246,0,0,44.0,1,1,272,286
126.12631600,126126316,1,0.0012556049041450024,-0.0010708138579502702,0.0003673316678032279,-0.4835607707500458,-0.1497041881084442,-9.965337753295898,0,0,44.0,0,1,272,286
126.12996900,126129969,1,0.0007802097243256867,-0.0006313874037005007,0.0005412364844232798,-0.4836333692073822,-0.14953197538852692,-9.965409278869629,0,0,44.0,1,1,272,286
126.13129900,126131299,1,0.0003348049067426473,-0.0003197504847776145,0.0006557167507708073,-0.4836333692073822,-0.14953197538852692,-9.965409278869629,0,0,44.0,1,0,272,286
126.13649900,126136499,1,0.0003348049067426473,-0.0003197504847776145,0.0006557167507708073,-0.4836086928844452,-0.14938819408416748,-9.96544075012207,0,0,44.0,0,1,272,286
126.13791600,126137916,1,1.747840542520862e-05,-0.00020822901569772512,0.0006790037150494754,-0.48349514603614807,-0.1492709517478943,-9.965435981750488,0,0,44.0,1,1,272,286
126.14125900,126141259,1,-9.868298366200179e-05,-0.00042919619590975344,0.0006509627564810216,-0.4833730459213257,-0.14917844533920288,-9.965469360351562,0,0,44.0,1,1,272,286
126.14293500,126142935,1,-9.868298366200179e-05,-0.00042919619590975344,0.0006509627564810216,-0.4833730459213257,-0.14917844533920288,-9.965469360351562,0,0,44.0,0,0,272,286
126.14631800,126146318,1,-4.932359297527e-05,-0.000999307376332581,0.000600530591327697,-0.48338833451271057,-0.14910893142223358,-9.965611457824707,0,0,44.0,1,1,272,286
126.14778100,126147781,1,-4.932359297527e-05,-0.000999307376332581,0.000600530591327697,-0.48338833451271057,-0.14910893142223358,-9.965611457824707,0,0,44.0,0,0,272,286
126.15165900,126151659,1,-4.932359297527e-05,-0.000999307376332581,0.000600530591327697,-0.48360154032707214,-0.1490607112646103,-9.965779304504395,0,0,44.0,0,1,272,286
126.15308300,126153083,1,7.87277749623172e-05,-0.0017459358787164092,0.0005043014534749091,-0.4839227497577667,-0.1490321159362793,-9.965898513793945,0,0,44.0,1,1,272,286
126.15657400,126156574,1,7.87277749623172e-05,-0.0017459358787164092,0.0005043014534749091,-0.4839227497577667,-0.1490321159362793,-9.965898513793945,0,0,44.0,0,0,272,286
126.15806800,126158068,1,0.00026973546482622623,-0.00238275364972651,0.0003152161370962858,-0.48419681191444397,-0.14909398555755615,-9.965971946716309,0,0,44.0,1,1,272,286
126.16174400,126161744,1,0.00026973546482622623,-0.00238275364972651,0.0003152161370962858,-0.48442670702934265,-0.14931070804595947,-9.966005325317383,0,0,44.0,0,1,272,286
126.16469200,126164692,1,0.000547596369870007,-0.0026513056363910437,0.00010747518535936251,-0.4846876859664917,-0.1495959609746933,-9.965998649597168,0,0,44.0,1,1,272,286
126.16670200,126166702,1,0.000547596369870007,-0.0026513056363910437,0.00010747518535936251,-0.4846876859664917,-0.1495959609746933,-9.965998649597168,0,0,44.0,0,0,272,286
126.16868500,126168685,1,0.0009110799874179065,-0.002432644134387374,6.9206835178192705e-06,-0.4849761724472046,-0.14987051486968994,-9.965957641601562,0,0,44.0,1,1,272,286
126.17171200,126171712,1,0.0009110799874179065,-0.002432644134387374,6.9206835178192705e-06,-0.4849761724472046,-0.14987051486968994,-9.965957641601562,0,0,44.0,0,0,272,286
126.17366000,126173660,1,0.0013460202608257532,-0.0018256905023008585,2.031650728895329e-05,-0.4853609800338745,-0.15006186068058014,-9.9658842086792,0,0,44.0,1,1,272,286
126.17680900,126176809,1,0.0013460202608257532,-0.0018256905023008585,2.031650728895329e-05,-0.4858325123786926,-0.15010401606559753,-9.965781211853027,0,0,44.0,0,1,272,286
126.18024900,126180249,1,0.0017496050568297505,-0.001111706835217774,9.113776468439028e-05,-0.48623690009117126,-0.1500818431377411,-9.965652465820312,0,0,44.0,1,1,272,286
126.18184300,126181843,1,0.0017496050568297505,-0.001111706835217774,9.113776468439028e-05,-0.48623690009117126,-0.1500818431377411,-9.965652465820312,0,0,44.0,0,0,272,286
126.18427300,126184273,1,0.0019889408722519875,-0.0005807488923892379,0.00018077959248330444,-0.4865783751010895,-0.15007326006889343,-9.965500831604004,0,0,44.0,1,1,272,286
126.18717400,126187174,1,0.0020205294713377953,-0.00035546941217035055,0.0002660978352651,-0.4865783751010895,-0.15007326006889343,-9.965500831604004,0,0,44.0,1,0,272,286
126.19198100,126191981,1,0.0018965150229632854,-0.00032549232128076255,0.00029361978522501886,-0.48700571060180664,-0.15007711946964264,-9.965327262878418,0,0,44.0,1,1,272,286
126.19343000,126193430,1,0.0018965150229632854,-0.00032549232128076255,0.00029361978522501886,-0.48750996589660645,-0.15009237825870514,-9.965136528015137,0,0,44.0,0,1,272,286
126.19631800,126196318,1,0.0017528438474982977,-0.0003181741922162473,0.00016040867194533348,-0.4879379868507385,-0.15011797845363617,-9.96492862701416,0,0,44.0,1,1,272,286
126.19840900,126198409,1,0.0017528438474982977,-0.0003181741922162473,0.00016040867194533348,-0.4879379868507385,-0.15011797845363617,-9.96492862701416,0,0,44.0,0,0,272,286
126.20190600,126201906,1,0.001705717178992927,-0.00023972704366315156,-0.0001619363174540922,-0.4882223308086395,-0.15015298128128052,-9.964706420898438,0,0,44.0,1,1,272,286
126.20326400,126203264,1,0.001705717178992927,-0.00023972704366315156,-0.0001619363174540922,-0.4884464740753174,-0.15019644796848297,-9.964471817016602,0,0,44.0,0,1,272,286
126.20708400,126207084,1,0.0017585419118404388,-9.444110764889047e-05,-0.0005742594948969781,-0.4884464740753174,-0.15019644796848297,-9.964471817016602,0,0,44.0,1,0,272,286
126.21188100,126211881,1,0.0018131878459826112,2.0761150153703056e-05,-0.0009264149121008813,-0.48915237188339233,-0.15030525624752045,-9.96397590637207,0,0,44.0,1,1,272,286
126.21316300,126213163,1,0.0018131878459826112,2.0761150153703056e-05,-0.0009264149121008813,-0.48915237188339233,-0.15030525624752045,-9.96397590637207,0,0,44.0,0,0,272,286
126.21691000,126216910,1,0.0018180928891524673,5.9987269196426496e-05,-0.0010653267381712794,-0.489472359418869,-0.15036895871162415,-9.963717460632324,0,0,44.0,1,1,272,286
126.21866000,126218660,1,0.0018180928891524673,5.9987269196426496e-05,-0.0010653267381712794,-0.489472359418869,-0.15036895871162415,-9.963717460632324,0,0,44.0,0,0,272,286
126.22158200,126221582,1,0.0017962323036044836,9.538151061860844e-05,-0.0009446889162063599,-0.48965200781822205,-0.1504378765821457,-9.963454246520996,0,0,44.0,1,1,272,286
126.22365200,126223652,1,0.0017962323036044836,9.538151061860844e-05,-0.0009446889162063599,-0.4897025525569916,-0.15051127970218658,-9.963188171386719,0,0,44.0,0,1,272,286
126.22686900,126226869,1,0.0017638391582295299,0.00020730799587909132,-0.0006654224707745016,-0.48963484168052673,-0.1505885273218155,-9.962919235229492,0,0,44.0,1,1,272,286
126.22812700,126228127,1,0.0017638391582295299,0.00020730799587909132,-0.0006654224707745016,-0.48963484168052673,-0.1505885273218155,-9.962919235229492,0,0,44.0,0,0,272,286
126.23186000,126231860,1,0.0017310583498328924,0.0003836090036202222,-0.00034737607347778976,-0.48945915699005127,-0.15066899359226227,-9.96264934539795,0,0,44.0,1,1,272,286
126.23331700,126233317,1,0.0017310583498328924,0.0003836090036202222,-0.00034737607347778976,-0.48945915699005127,-0.15066899359226227,-9.96264934539795,0,0,44.0,0,0,272,286
126.23673100,126236731,1,0.001661190064623952,0.0005236402503214777,-1.723511923046317e-05,-0.48918527364730835,-0.15075209736824036,-9.962379455566406,0,0,44.0,1,1,272,286
126.23833800,126238338,1,0.001661190064623952,0.0005236402503214777,-1.723511923046317e-05,-0.48918527364730835,-0.15075209736824036,-9.962379455566406,0,0,44.0,0,0,272,286
126.24190000,126241900,1,0.001498853089287877,0.000496417167596519,0.000351208756910637,-0.48882272839546204,-0.15083731710910797,-9.962109565734863,0,0,44.0,1,1,272,286
126.24320900,126243209,1,0.001498853089287877,0.000496417167596519,0.000351208756910637,-0.4883803129196167,-0.15092411637306213,-9.96184253692627,0,0,44.0,0,1,272,286
126.24696500,126246965,1,0.0012717761564999819,0.000259913329500705,0.0007235382799990475,-0.4878665804862976,-0.15101206302642822,-9.961505889892578,0,0,44.0,1,1,272,286
126.24840200,126248402,1,0.0012717761564999819,0.000259913329500705,0.0007235382799990475,-0.4878665804862976,-0.15101206302642822,-9.961505889892578,0,0,44.0,0,0,272,286
126.25169900,126251699,1,0.0010467350948601961,-4.859092950937338e-05,0.0009970314567908645,-0.4872894585132599,-0.15110072493553162,-9.961034774780273,0,0,44.0,1,1,272,286
126.25335700,126253357,1,0.0010467350948601961,-4.859092950937338e-05,0.0009970314567908645,-0.4872894585132599,-0.15110072493553162,-9.961034774780273,0,0,44.0,0,0,272,286
126.25681800,126256818,1,0.0008582998998463154,-0.00026186820468865335,0.0010915619786828756,-0.48665651679039,-0.1511896848678589,-9.960515022277832,0,0,44.0,1,1,272,286
126.25817200,126258172,1,0.0008582998998463154,-0.00026186820468865335,0.0010915619786828756,-0.4859749376773834,-0.15127861499786377,-9.960023880004883,0,0,44.0,0,1,272,286
126.26187400,126261874,1,0.0007608149317093194,-0.00034964122460223734,0.0009935268899425864,-0.4853237271308899,-0.1513671576976776,-9.959562301635742,0,0,44.0,1,1,272,286
126.26333500,126263335,1,0.0007608149317093194,-0.00034964122460223734,0.0009935268899425864,-0.4853237271308899,-0.1513671576976776,-9.959562301635742,0,0,44.0,0,0,272,286
126.26659700,126266597,1,0.0008103740983642638,-0.0003579733893275261,0.0007262314902618527,-0.48484745621681213,-0.15145501494407654,-9.959128379821777,0,0,44.0,1,1,272,286
126.26831200,126268312,1,0.0008103740983642638,-0.0003579733893275261,0.0007262314902618527,-0.48484745621681213,-0.15145501494407654,-9.959128379821777,0,0,44.0,0,0,272,286
126.27179000,126271790,1,0.0009710014564916492,-0.000365542626241222,0.0003706479037646204,-0.4845331013202667,-0.15154193341732025,-9.958722114562988,0,0,44.0,1,1,272,286
126.27317600,126273176,1,0.0009710014564916492,-0.000365542626241222,0.0003706479037646204,-0.484223335981369,-0.15162764489650726,-9.958342552185059,0,0,44.0,0,1,272,286
126.27741200,126277412,1,0.0011222328757867217,-0.0004556422936730087,6.715388735756278e-05,-0.4839189350605011,-0.15171194076538086,-9.957988739013672,0,0,44.0,1,1,272,286
126.27886000,126278860,1,0.0011222328757867217,-0.0004556422936730087,6.715388735756278e-05,-0.4839189350605011,-0.15171194076538086,-9.957988739013672,0,0,44.0,0,0,272,286
126.28165200,126281652,1,0.0011184830218553543,-0.0006166978273540735,-7.706513133598492e-05,-0.48369300365448,-0.15179461240768433,-9.957660675048828,0,0,44.0,1,1,272,286
126.28388200,126283882,1,0.0011184830218553543,-0.0006166978273540735,-7.706513133598492e-05,-0.48369300365448,-0.15179461240768433,-9.957660675048828,0,0,44.0,0,0,272,286
126.28682000,126286820,1,0.0009081581374630332,-0.0007893926813267171,-7.322042074520141e-05,-0.48346734046936035,-0.15187548100948334,-9.957283020019531,0,0,44.0,1,1,272,286
126.28906500,126289065,1,0.0009081581374630332,-0.0007893926813267171,-7.322042074520141e-05,-0.48317041993141174,-0.15195441246032715,-9.956863403320312,0,0,44.0,0,1,272,286
126.29309600,126293096,1,0.0005810496513731778,-0.0009408944169990718,7.383068805211224e-06,-0.4828818440437317,-0.15203127264976501,-9.956549644470215,0,0,44.0,1,1,272,286
