timestamp,TimeUS,ACCx
timestamp,TimeUS,ACCx,TimeUS,ACCx
124.58076100,124580761,-0.5361295938491821,124580761,-0.5361295938491821
124.58465500,124584655,-0.5361295938491821,124584655,-0.5361295938491821
124.58815600,124588156,-0.45953965187072754,124588156,-0.45953965187072754
124.59215400,124592154,-0.5361295938491821,124592154,-0.5361295938491821
124.59615300,124596153,-0.45953965187072754,124596153,-0.45953965187072754
124.60015100,124600151,-0.45953965187072754,124600151,-0.45953965187072754
124.60415100,124604151,-0.5361295938491821,124604151,-0.5361295938491821
124.60767800,124607678,-0.5361295938491821,124607678,-0.5361295938491821
124.61165800,124611658,-0.45953965187072754,124611658,-0.45953965187072754
124.61565100,124615651,-0.5361295938491821,124615651,-0.5361295938491821
124.61965600,124619656,-0.45953965187072754,124619656,-0.45953965187072754
124.62315800,124623158,-0.5361295938491821,124623158,-0.5361295938491821
124.62716200,124627162,-0.5361295938491821,124627162,-0.5361295938491821
124.63117900,124631179,-0.45953965187072754,124631179,-0.45953965187072754
124.63471900,124634719,-0.45953965187072754,124634719,-0.45953965187072754
124.63871600,124638716,-0.45953965187072754,124638716,-0.45953965187072754
124.64277200,124642772,-0.45953965187072754,124642772,-0.45953965187072754
124.64676300,124646763,-0.45953965187072754,124646763,-0.45953965187072754
124.65065100,124650651,-0.5361295938491821,124650651,-0.5361295938491821
124.65415100,124654151,-0.5361295938491821,124654151,-0.5361295938491821
124.65815300,124658153,-0.45953965187072754,124658153,-0.45953965187072754
124.66215300,124662153,-0.5361295938491821,124662153,-0.5361295938491821
124.66615000,124666150,-0.5361295938491821,124666150,-0.5361295938491821
124.66965700,124669657,-0.5361295938491821,124669657,-0.5361295938491821
124.67365900,124673659,-0.5361295938491821,124673659,-0.5361295938491821
124.67768700,124677687,-0.45953965187072754,124677687,-0.45953965187072754
124.68165400,124681654,-0.45953965187072754,124681654,-0.45953965187072754
124.68565600,124685656,-0.5361295938491821,124685656,-0.5361295938491821
124.68915400,124689154,-0.5361295938491821,124689154,-0.5361295938491821
124.69315100,124693151,-0.5361295938491821,124693151,-0.5361295938491821
124.69718700,124697187,-0.5361295938491821,124697187,-0.5361295938491821
124.70071800,124700718,-0.5361295938491821,124700718,-0.5361295938491821
124.70476600,124704766,-0.45953965187072754,124704766,-0.45953965187072754
124.70872600,124708726,-0.5361295938491821,124708726,-0.5361295938491821
124.71277900,124712779,-0.45953965187072754,124712779,-0.45953965187072754
124.71665200,124716652,-0.45953965187072754,124716652,-0.45953965187072754
124.72015800,124720158,-0.5361295938491821,124720158,-0.5361295938491821
124.72415500,124724155,-0.5361295938491821,124724155,-0.5361295938491821
124.72815200,124728152,-0.45953965187072754,124728152,-0.45953965187072754
124.73215100,124732151,-0.5361295938491821,124732151,-0.5361295938491821
124.73566000,124735660,-0.5361295938491821,124735660,-0.5361295938491821
124.73965400,124739654,-0.5361295938491821,124739654,-0.5361295938491821
124.74365100,124743651,-0.45953965187072754,124743651,-0.45953965187072754
124.74768000,124747680,-0.45953965187072754,124747680,-0.45953965187072754
124.75115700,124751157,-0.5361295938491821,124751157,-0.5361295938491821
124.75515200,124755152,-0.5361295938491821,124755152,-0.5361295938491821
124.75915200,124759152,-0.5361295938491821,124759152,-0.5361295938491821
124.76315900,124763159,-0.45953965187072754,124763159,-0.45953965187072754
124.76666000,124766660,-0.5361295938491821,124766660,-0.5361295938491821
124.77075300,124770753,-0.45953965187072754,124770753,-0.45953965187072754
124.77467900,124774679,-0.45953965187072754,124774679,-0.45953965187072754
124.77870800,124778708,-0.45953965187072754,124778708,-0.45953965187072754
124.78222900,124782229,-0.45953965187072754,124782229,-0.45953965187072754
124.78626700,124786267,-0.45953965187072754,124786267,-0.45953965187072754
124.79026700,124790267,-0.45953965187072754,124790267,-0.45953965187072754
124.79415000,124794150,-0.5361295938491821,124794150,-0.5361295938491821
124.79817900,124798179,-0.45953965187072754,124798179,-0.45953965187072754
124.80165500,124801655,-0.45953965187072754,124801655,-0.45953965187072754
124.80565600,124805656,-0.45953965187072754,124805656,-0.45953965187072754
124.80965200,124809652,-0.5361295938491821,124809652,-0.5361295938491821
124.81366400,124813664,-0.5361295938491821,124813664,-0.5361295938491821
124.81715500,124817155,-0.5361295938491821,124817155,-0.5361295938491821
124.82122000,124821220,-0.5361295938491821,124821220,-0.5361295938491821
124.82515000,124825150,-0.5361295938491821,124825150,-0.5361295938491821
124.82915200,124829152,-0.45953965187072754,124829152,-0.45953965187072754
124.83265300,124832653,-0.45953965187072754,124832653,-0.45953965187072754
124.83666100,124836661,-0.5361295938491821,124836661,-0.5361295938491821
124.84066100,124840661,-0.45953965187072754,124840661,-0.45953965187072754
124.84465800,124844658,-0.5361295938491821,124844658,-0.5361295938491821
124.84820200,124848202,-0.45953965187072754,124848202,-0.45953965187072754
124.85221300,124852213,-0.5361295938491821,124852213,-0.5361295938491821
124.85620600,124856206,-0.5361295938491821,124856206,-0.5361295938491821
124.86023200,124860232,-0.45953965187072754,124860232,-0.45953965187072754
124.86376600,124863766,-0.45953965187072754,124863766,-0.45953965187072754
124.86765500,124867655,-0.5361295938491821,124867655,-0.5361295938491821
124.87165100,124871651,-0.45953965187072754,124871651,-0.45953965187072754
124.87564900,124875649,-0.45953965187072754,124875649,-0.45953965187072754
124.87965100,124879651,-0.45953965187072754,124879651,-0.45953965187072754
124.88317900,124883179,-0.45953965187072754,124883179,-0.45953965187072754
124.88715300,124887153,-0.5361295938491821,124887153,-0.5361295938491821
124.89115800,124891158,-0.5361295938491821,124891158,-0.5361295938491821
124.89515500,124895155,-0.5361295938491821,124895155,-0.5361295938491821
124.89865000,124898650,-0.45953965187072754,124898650,-0.45953965187072754
124.90265700,124902657,-0.45953965187072754,124902657,-0.45953965187072754
124.90665300,124906653,-0.45953965187072754,124906653,-0.45953965187072754
124.91065900,124910659,-0.5361295938491821,124910659,-0.5361295938491821
124.91417900,124914179,-0.5361295938491821,124914179,-0.5361295938491821
124.91823400,124918234,-0.45953965187072754,124918234,-0.45953965187072754
124.92226600,124922266,-0.45953965187072754,124922266,-0.45953965187072754
124.92622900,124926229,-0.5361295938491821,124926229,-0.5361295938491821
124.92976000,124929760,-0.5361295938491821,124929760,-0.5361295938491821
124.93365100,124933651,-0.5361295938491821,124933651,-0.5361295938491821
124.93765800,124937658,-0.5361295938491821,124937658,-0.5361295938491821
124.94165100,124941651,-0.45953965187072754,124941651,-0.45953965187072754
124.94565700,124945657,-0.5361295938491821,124945657,-0.5361295938491821
124.94914900,124949149,-0.45953965187072754,124949149,-0.45953965187072754
124.95318200,124953182,-0.5361295938491821,124953182,-0.5361295938491821
124.95715100,124957151,-0.5361295938491821,124957151,-0.5361295938491821
124.96115400,124961154,-0.5361295938491821,124961154,-0.5361295938491821
124.96465200,124964652,-0.5361295938491821,124964652,-0.5361295938491821
124.96865500,124968655,-0.5361295938491821,124968655,-0.5361295938491821
124.97265300,124972653,-0.45953965187072754,124972653,-0.45953965187072754
124.97665100,124976651,-0.5361295938491821,124976651,-0.5361295938491821
124.98015300,124980153,-0.5361295938491821,124980153,-0.5361295938491821
124.98416400,124984164,-0.45953965187072754,124984164,-0.45953965187072754
124.98825900,124988259,-0.5361295938491821,124988259,-0.5361295938491821
124.99220100,124992201,-0.5361295938491821,124992201,-0.5361295938491821
124.99571500,124995715,-0.5361295938491821,124995715,-0.5361295938491821
124.99973900,124999739,-0.45953965187072754,124999739,-0.45953965187072754
125.00377100,125003771,-0.45953965187072754,125003771,-0.45953965187072754
125.00727600,125007276,-0.45953965187072754,125007276,-0.45953965187072754
125.01115300,125011153,-0.45953965187072754,125011153,-0.45953965187072754
125.01515600,125015156,-0.5361295938491821,125015156,-0.5361295938491821
125.01915900,125019159,-0.5361295938491821,125019159,-0.5361295938491821
125.02315500,125023155,-0.5361295938491821,125023155,-0.5361295938491821
125.02716200,125027162,-0.5361295938491821,125027162,-0.5361295938491821
125.03065500,125030655,-0.45953965187072754,125030655,-0.45953965187072754
125.03465500,125034655,-0.45953965187072754,125034655,-0.45953965187072754
125.03871900,125038719,-0.5361295938491821,125038719,-0.5361295938491821
125.04265300,125042653,-0.45953965187072754,125042653,-0.45953965187072754
125.04615500,125046155,-0.45953965187072754,125046155,-0.45953965187072754
125.05021600,125050216,-0.45953965187072754,125050216,-0.45953965187072754
125.05418200,125054182,-0.5361295938491821,125054182,-0.5361295938491821
125.05817300,125058173,-0.45953965187072754,125058173,-0.45953965187072754
125.06170400,125061704,-0.45953965187072754,125061704,-0.45953965187072754
125.06572600,125065726,-0.5361295938491821,125065726,-0.5361295938491821
125.06975500,125069755,-0.45953965187072754,125069755,-0.45953965187072754
125.07325900,125073259,-0.5361295938491821,125073259,-0.5361295938491821
125.07715100,125077151,-0.45953965187072754,125077151,-0.45953965187072754
125.08115000,125081150,-0.45953965187072754,125081150,-0.45953965187072754
125.08515500,125085155,-0.45953965187072754,125085155,-0.45953965187072754
125.08917200,125089172,-0.5361295938491821,125089172,-0.5361295938491821
125.09265400,125092654,-0.45953965187072754,125092654,-0.45953965187072754
125.09665100,125096651,-0.45953965187072754,125096651,-0.45953965187072754
125.10066300,125100663,-0.5361295938491821,125100663,-0.5361295938491821
125.10466200,125104662,-0.45953965187072754,125104662,-0.45953965187072754
125.10815900,125108159,-0.45953965187072754,125108159,-0.45953965187072754
125.11218700,125112187,-0.5361295938491821,125112187,-0.5361295938491821
125.11623200,125116232,-0.5361295938491821,125116232,-0.5361295938491821
125.11979400,125119794,-0.5361295938491821,125119794,-0.5361295938491821
125.12378100,125123781,-0.45953965187072754,125123781,-0.45953965187072754
125.12765300,125127653,-0.5361295938491821,125127653,-0.5361295938491821
125.13165200,125131652,-0.45953965187072754,125131652,-0.45953965187072754
125.13565600,125135656,-0.45953965187072754,125135656,-0.45953965187072754
125.13965500,125139655,-0.5361295938491821,125139655,-0.5361295938491821
125.14315400,125143154,-0.5361295938491821,125143154,-0.5361295938491821
125.14715100,125147151,-0.45953965187072754,125147151,-0.45953965187072754
125.15115400,125151154,-0.5361295938491821,125151154,-0.5361295938491821
125.15515300,125155153,-0.5361295938491821,125155153,-0.5361295938491821
125.15868100,125158681,-0.45953965187072754,125158681,-0.45953965187072754
125.16265200,125162652,-0.45953965187072754,125162652,-0.45953965187072754
125.16665300,125166653,-0.5361295938491821,125166653,-0.5361295938491821
125.17066000,125170660,-0.45953965187072754,125170660,-0.45953965187072754
125.17415400,125174154,-0.5361295938491821,125174154,-0.5361295938491821
125.17816000,125178160,-0.45953965187072754,125178160,-0.45953965187072754
125.18218100,125182181,-0.45953965187072754,125182181,-0.45953965187072754
125.18576300,125185763,-0.45953965187072754,125185763,-0.45953965187072754
125.18972400,125189724,-0.45953965187072754,125189724,-0.45953965187072754
125.19376600,125193766,-0.5361295938491821,125193766,-0.5361295938491821
125.19776500,125197765,-0.5361295938491821,125197765,-0.5361295938491821
125.20165500,125201655,-0.45953965187072754,125201655,-0.45953965187072754
125.20566000,125205660,-0.45953965187072754,125205660,-0.45953965187072754
125.20915700,125209157,-0.45953965187072754,125209157,-0.45953965187072754
125.21315500,125213155,-0.45953965187072754,125213155,-0.45953965187072754
125.21715100,125217151,-0.5361295938491821,125217151,-0.5361295938491821
125.22115500,125221155,-0.45953965187072754,125221155,-0.45953965187072754
125.22465500,125224655,-0.5361295938491821,125224655,-0.5361295938491821
125.22868600,125228686,-0.5361295938491821,125228686,-0.5361295938491821
125.23265700,125232657,-0.45953965187072754,125232657,-0.45953965187072754
125.23670600,125236706,-0.45953965187072754,125236706,-0.45953965187072754
125.24015300,125240153,-0.45953965187072754,125240153,-0.45953965187072754
125.24415300,125244153,-0.45953965187072754,125244153,-0.45953965187072754
125.24815600,125248156,-0.45953965187072754,125248156,-0.45953965187072754
125.25216900,125252169,-0.5361295938491821,125252169,-0.5361295938491821
125.25566600,125255666,-0.5361295938491821,125255666,-0.5361295938491821
125.25969000,125259690,-0.5361295938491821,125259690,-0.5361295938491821
125.26374400,125263744,-0.45953965187072754,125263744,-0.45953965187072754
125.26773700,125267737,-0.45953965187072754,125267737,-0.45953965187072754
125.27133100,125271331,-0.5361295938491821,125271331,-0.5361295938491821
125.27526200,125275262,-0.5361295938491821,125275262,-0.5361295938491821
125.27918200,125279182,-0.45953965187072754,125279182,-0.45953965187072754
125.28315500,125283155,-0.45953965187072754,125283155,-0.45953965187072754
125.28665700,125286657,-0.45953965187072754,125286657,-0.45953965187072754
125.29065600,125290656,-0.45953965187072754,125290656,-0.45953965187072754
125.29466500,125294665,-0.5361295938491821,125294665,-0.5361295938491821
125.29865600,125298656,-0.45953965187072754,125298656,-0.45953965187072754
125.30265200,125302652,-0.5361295938491821,125302652,-0.5361295938491821
125.30615600,125306156,-0.5361295938491821,125306156,-0.5361295938491821
125.31015400,125310154,-0.45953965187072754,125310154,-0.45953965187072754
125.31417600,125314176,-0.45953965187072754,125314176,-0.45953965187072754
125.31816100,125318161,-0.5361295938491821,125318161,-0.5361295938491821
125.32171800,125321718,-0.5361295938491821,125321718,-0.5361295938491821
125.32565200,125325652,-0.5361295938491821,125325652,-0.5361295938491821
125.32965900,125329659,-0.45953965187072754,125329659,-0.45953965187072754
125.33369000,125333690,-0.45953965187072754,125333690,-0.45953965187072754
125.33725800,125337258,-0.5361295938491821,125337258,-0.5361295938491821
125.34121700,125341217,-0.5361295938491821,125341217,-0.5361295938491821
125.34524200,125345242,-0.45953965187072754,125345242,-0.45953965187072754
125.34876400,125348764,-0.5361295938491821,125348764,-0.5361295938491821
125.35265900,125352659,-0.45953965187072754,125352659,-0.45953965187072754
125.35665300,125356653,-0.45953965187072754,125356653,-0.45953965187072754
125.36066500,125360665,-0.5361295938491821,125360665,-0.5361295938491821
125.36465900,125364659,-0.45953965187072754,125364659,-0.45953965187072754
125.36815900,125368159,-0.45953965187072754,125368159,-0.45953965187072754
125.37215200,125372152,-0.45953965187072754,125372152,-0.45953965187072754
125.37615200,125376152,-0.5361295938491821,125376152,-0.5361295938491821
125.38015400,125380154,-0.5361295938491821,125380154,-0.5361295938491821
125.38417500,125384175,-0.45953965187072754,125384175,-0.45953965187072754
125.38765200,125387652,-0.45953965187072754,125387652,-0.45953965187072754
125.39165000,125391650,-0.45953965187072754,125391650,-0.45953965187072754
125.39564900,125395649,-0.5361295938491821,125395649,-0.5361295938491821
125.39966100,125399661,-0.45953965187072754,125399661,-0.45953965187072754
125.40318500,125403185,-0.45953965187072754,125403185,-0.45953965187072754
125.40718800,125407188,-0.45953965187072754,125407188,-0.45953965187072754
125.41122900,125411229,-0.45953965187072754,125411229,-0.45953965187072754
125.41475500,125414755,-0.5361295938491821,125414755,-0.5361295938491821
125.41865100,125418651,-0.45953965187072754,125418651,-0.45953965187072754
125.42265700,125422657,-0.45953965187072754,125422657,-0.45953965187072754
125.42665500,125426655,-0.45953965187072754,125426655,-0.45953965187072754
125.43065600,125430656,-0.45953965187072754,125430656,-0.45953965187072754
125.43419100,125434191,-0.5361295938491821,125434191,-0.5361295938491821
125.43815800,125438158,-0.5361295938491821,125438158,-0.5361295938491821
125.44215400,125442154,-0.5361295938491821,125442154,-0.5361295938491821
125.44615400,125446154,-0.5361295938491821,125446154,-0.5361295938491821
125.44965400,125449654,-0.45953965187072754,125449654,-0.45953965187072754
125.45365500,125453655,-0.5361295938491821,125453655,-0.5361295938491821
125.45765400,125457654,-0.5361295938491821,125457654,-0.5361295938491821
125.46165200,125461652,-0.45953965187072754,125461652,-0.45953965187072754
125.46565600,125465656,-0.5361295938491821,125465656,-0.5361295938491821
125.46918100,125469181,-0.45953965187072754,125469181,-0.45953965187072754
125.47315600,125473156,-0.5361295938491821,125473156,-0.5361295938491821
125.47716600,125477166,-0.5361295938491821,125477166,-0.5361295938491821
125.48069500,125480695,-0.45953965187072754,125480695,-0.45953965187072754
125.48472000,125484720,-0.5361295938491821,125484720,-0.5361295938491821
125.48880900,125488809,-0.45953965187072754,125488809,-0.45953965187072754
125.49274800,125492748,-0.45953965187072754,125492748,-0.45953965187072754
125.49627300,125496273,-0.45953965187072754,125496273,-0.45953965187072754
125.50015300,125500153,-0.5361295938491821,125500153,-0.5361295938491821
125.50415900,125504159,-0.45953965187072754,125504159,-0.45953965187072754
125.50815400,125508154,-0.5361295938491821,125508154,-0.5361295938491821
125.51215500,125512155,-0.5361295938491821,125512155,-0.5361295938491821
125.51565800,125515658,-0.5361295938491821,125515658,-0.5361295938491821
125.51968200,125519682,-0.45953965187072754,125519682,-0.45953965187072754
125.52365900,125523659,-0.45953965187072754,125523659,-0.45953965187072754
125.52765400,125527654,-0.45953965187072754,125527654,-0.45953965187072754
125.53116100,125531161,-0.5361295938491821,125531161,-0.5361295938491821
125.53515400,125535154,-0.45953965187072754,125535154,-0.45953965187072754
125.53915400,125539154,-0.45953965187072754,125539154,-0.45953965187072754
125.54315600,125543156,-0.5361295938491821,125543156,-0.5361295938491821
125.54715300,125547153,-0.45953965187072754,125547153,-0.45953965187072754
125.55065700,125550657,-0.45953965187072754,125550657,-0.45953965187072754
125.55471300,125554713,-0.5361295938491821,125554713,-0.5361295938491821
125.55867700,125558677,-0.5361295938491821,125558677,-0.5361295938491821
125.56220100,125562201,-0.45953965187072754,125562201,-0.45953965187072754
125.56622100,125566221,-0.45953965187072754,125566221,-0.45953965187072754
125.57025500,125570255,-0.45953965187072754,125570255,-0.45953965187072754
125.57425500,125574255,-0.5361295938491821,125574255,-0.5361295938491821
125.57778500,125577785,-0.45953965187072754,125577785,-0.45953965187072754
125.58165500,125581655,-0.45953965187072754,125581655,-0.45953965187072754
125.58566600,125585666,-0.45953965187072754,125585666,-0.45953965187072754
125.58975800,125589758,-0.45953965187072754,125589758,-0.45953965187072754
125.59364900,125593649,-0.45953965187072754,125593649,-0.45953965187072754
125.59715200,125597152,-0.45953965187072754,125597152,-0.45953965187072754
125.60115300,125601153,-0.45953965187072754,125601153,-0.45953965187072754
125.60522300,125605223,-0.45953965187072754,125605223,-0.45953965187072754
125.60915900,125609159,-0.45953965187072754,125609159,-0.45953965187072754
125.61268300,125612683,-0.45953965187072754,125612683,-0.45953965187072754
125.61673300,125616733,-0.45953965187072754,125616733,-0.45953965187072754
125.62076600,125620766,-0.45953965187072754,125620766,-0.45953965187072754
125.62478100,125624781,-0.5361295938491821,125624781,-0.5361295938491821
125.62865300,125628653,-0.5361295938491821,125628653,-0.5361295938491821
125.63215400,125632154,-0.45953965187072754,125632154,-0.45953965187072754
125.63615500,125636155,-0.45953965187072754,125636155,-0.45953965187072754
125.64021000,125640210,-0.5361295938491821,125640210,-0.5361295938491821
125.64415200,125644152,-0.45953965187072754,125644152,-0.45953965187072754
125.64765200,125647652,-0.5361295938491821,125647652,-0.5361295938491821
125.65165900,125651659,-0.5361295938491821,125651659,-0.5361295938491821
125.65566500,125655665,-0.45953965187072754,125655665,-0.45953965187072754
125.65968700,125659687,-0.5361295938491821,125659687,-0.5361295938491821
125.66316300,125663163,-0.45953965187072754,125663163,-0.45953965187072754
125.66717600,125667176,-0.45953965187072754,125667176,-0.45953965187072754
125.67120100,125671201,-0.45953965187072754,125671201,-0.45953965187072754
125.67473000,125674730,-0.45953965187072754,125674730,-0.45953965187072754
125.67872300,125678723,-0.45953965187072754,125678723,-0.45953965187072754
125.68274900,125682749,-0.5361295938491821,125682749,-0.5361295938491821
125.68666000,125686660,-0.45953965187072754,125686660,-0.45953965187072754
125.69066300,125690663,-0.45953965187072754,125690663,-0.45953965187072754
125.69415700,125694157,-0.5361295938491821,125694157,-0.5361295938491821
125.69816200,125698162,-0.5361295938491821,125698162,-0.5361295938491821
125.70215700,125702157,-0.45953965187072754,125702157,-0.45953965187072754
125.70615400,125706154,-0.45953965187072754,125706154,-0.45953965187072754
125.71018700,125710187,-0.5361295938491821,125710187,-0.5361295938491821
125.71366100,125713661,-0.45953965187072754,125713661,-0.45953965187072754
125.71765600,125717656,-0.45953965187072754,125717656,-0.45953965187072754
125.72165100,125721651,-0.45953965187072754,125721651,-0.45953965187072754
125.72518600,125725186,-0.45953965187072754,125725186,-0.45953965187072754
125.72915500,125729155,-0.5361295938491821,125729155,-0.5361295938491821
125.73315700,125733157,-0.45953965187072754,125733157,-0.45953965187072754
125.73718300,125737183,-0.45953965187072754,125737183,-0.45953965187072754
125.74118000,125741180,-0.5361295938491821,125741180,-0.5361295938491821
125.74470100,125744701,-0.45953965187072754,125744701,-0.45953965187072754
125.74872600,125748726,-0.45953965187072754,125748726,-0.45953965187072754
125.75276200,125752762,-0.5361295938491821,125752762,-0.5361295938491821
125.75625600,125756256,-0.5361295938491821,125756256,-0.5361295938491821
125.76013900,125760139,-0.5361295938491821,125760139,-0.5361295938491821
125.76415400,125764154,-0.45953965187072754,125764154,-0.45953965187072754
125.76815300,125768153,-0.45953965187072754,125768153,-0.45953965187072754
125.77218400,125772184,-0.5361295938491821,125772184,-0.5361295938491821
125.77566700,125775667,-0.5361295938491821,125775667,-0.5361295938491821
125.77965200,125779652,-0.45953965187072754,125779652,-0.45953965187072754
125.78365700,125783657,-0.5361295938491821,125783657,-0.5361295938491821
125.78765900,125787659,-0.45953965187072754,125787659,-0.45953965187072754
125.79115600,125791156,-0.45953965187072754,125791156,-0.45953965187072754
125.79518200,125795182,-0.5361295938491821,125795182,-0.5361295938491821
125.79915100,125799151,-0.45953965187072754,125799151,-0.45953965187072754
125.80315100,125803151,-0.5361295938491821,125803151,-0.5361295938491821
125.80718400,125807184,-0.5361295938491821,125807184,-0.5361295938491821
125.81065800,125810658,-0.45953965187072754,125810658,-0.45953965187072754
125.81465400,125814654,-0.45953965187072754,125814654,-0.45953965187072754
125.81868300,125818683,-0.45953965187072754,125818683,-0.45953965187072754
125.82228900,125822289,-0.45953965187072754,125822289,-0.45953965187072754
125.82620800,125826208,-0.45953965187072754,125826208,-0.45953965187072754
125.83025800,125830258,-0.45953965187072754,125830258,-0.45953965187072754
125.83426400,125834264,-0.45953965187072754,125834264,-0.45953965187072754
125.83782900,125837829,-0.45953965187072754,125837829,-0.45953965187072754
125.84165300,125841653,-0.5361295938491821,125841653,-0.5361295938491821
125.84565300,125845653,-0.45953965187072754,125845653,-0.45953965187072754
125.84965200,125849652,-0.45953965187072754,125849652,-0.45953965187072754
125.85365500,125853655,-0.45953965187072754,125853655,-0.45953965187072754
125.85715500,125857155,-0.5361295938491821,125857155,-0.5361295938491821
125.86115200,125861152,-0.45953965187072754,125861152,-0.45953965187072754
125.86518200,125865182,-0.5361295938491821,125865182,-0.5361295938491821
125.86915200,125869152,-0.45953965187072754,125869152,-0.45953965187072754
125.87265100,125872651,-0.45953965187072754,125872651,-0.45953965187072754
125.87666000,125876660,-0.5361295938491821,125876660,-0.5361295938491821
125.88066600,125880666,-0.45953965187072754,125880666,-0.45953965187072754
125.88465000,125884650,-0.45953965187072754,125884650,-0.45953965187072754
125.88825500,125888255,-0.5361295938491821,125888255,-0.5361295938491821
125.89215100,125892151,-0.45953965187072754,125892151,-0.45953965187072754
125.89617400,125896174,-0.45953965187072754,125896174,-0.45953965187072754
125.90022700,125900227,-0.45953965187072754,125900227,-0.45953965187072754
125.90373100,125903731,-0.5361295938491821,125903731,-0.5361295938491821
125.90772400,125907724,-0.45953965187072754,125907724,-0.45953965187072754
125.91176000,125911760,-0.45953965187072754,125911760,-0.45953965187072754
125.91565500,125915655,-0.5361295938491821,125915655,-0.5361295938491821
125.91965900,125919659,-0.45953965187072754,125919659,-0.45953965187072754
125.92315300,125923153,-0.45953965187072754,125923153,-0.45953965187072754
125.92715900,125927159,-0.45953965187072754,125927159,-0.45953965187072754
125.93115100,125931151,-0.5361295938491821,125931151,-0.5361295938491821
125.93515000,125935150,-0.45953965187072754,125935150,-0.45953965187072754
125.93868900,125938689,-0.5361295938491821,125938689,-0.5361295938491821
125.94265100,125942651,-0.5361295938491821,125942651,-0.5361295938491821
125.94664900,125946649,-0.45953965187072754,125946649,-0.45953965187072754
125.95067900,125950679,-0.45953965187072754,125950679,-0.45953965187072754
125.95419700,125954197,-0.5361295938491821,125954197,-0.5361295938491821
125.95815200,125958152,-0.45953965187072754,125958152,-0.45953965187072754
125.96215200,125962152,-0.5361295938491821,125962152,-0.5361295938491821
125.96618000,125966180,-0.45953965187072754,125966180,-0.45953965187072754
125.96971300,125969713,-0.45953965187072754,125969713,-0.45953965187072754
125.97370600,125973706,-0.45953965187072754,125973706,-0.45953965187072754
125.97773300,125977733,-0.45953965187072754,125977733,-0.45953965187072754
125.98175300,125981753,-0.45953965187072754,125981753,-0.45953965187072754
125.98567900,125985679,-0.5361295938491821,125985679,-0.5361295938491821
125.98915300,125989153,-0.45953965187072754,125989153,-0.45953965187072754
125.99316700,125993167,-0.5361295938491821,125993167,-0.5361295938491821
125.99715300,125997153,-0.45953965187072754,125997153,-0.45953965187072754
126.00116300,126001163,-0.45953965187072754,126001163,-0.45953965187072754
126.00470800,126004708,-0.45953965187072754,126004708,-0.45953965187072754
126.00865200,126008652,-0.45953965187072754,126008652,-0.45953965187072754
126.01265700,126012657,-0.45953965187072754,126012657,-0.45953965187072754
126.01665200,126016652,-0.5361295938491821,126016652,-0.5361295938491821
126.02015900,126020159,-0.45953965187072754,126020159,-0.45953965187072754
126.02415000,126024150,-0.45953965187072754,126024150,-0.45953965187072754
126.02815900,126028159,-0.45953965187072754,126028159,-0.45953965187072754
126.03215400,126032154,-0.5361295938491821,126032154,-0.5361295938491821
126.03568900,126035689,-0.45953965187072754,126035689,-0.45953965187072754
126.03971600,126039716,-0.45953965187072754,126039716,-0.45953965187072754
126.04366900,126043669,-0.5361295938491821,126043669,-0.5361295938491821
126.04769800,126047698,-0.45953965187072754,126047698,-0.45953965187072754
126.05122700,126051227,-0.45953965187072754,126051227,-0.45953965187072754
126.05533900,126055339,-0.5361295938491821,126055339,-0.5361295938491821
126.05925500,126059255,-0.45953965187072754,126059255,-0.45953965187072754
126.06316200,126063162,-0.45953965187072754,126063162,-0.45953965187072754
126.06715900,126067159,-0.5361295938491821,126067159,-0.5361295938491821
126.07070500,126070705,-0.5361295938491821,126070705,-0.5361295938491821
126.07465400,126074654,-0.45953965187072754,126074654,-0.45953965187072754
126.07865300,126078653,-0.45953965187072754,126078653,-0.45953965187072754
126.08265100,126082651,-0.45953965187072754,126082651,-0.45953965187072754
126.08615700,126086157,-0.45953965187072754,126086157,-0.45953965187072754
126.09015300,126090153,-0.45953965187072754,126090153,-0.45953965187072754
126.09415400,126094154,-0.5361295938491821,126094154,-0.5361295938491821
126.09815200,126098152,-0.5361295938491821,126098152,-0.5361295938491821
126.10165300,126101653,-0.5361295938491821,126101653,-0.5361295938491821
126.10570000,126105700,-0.45953965187072754,126105700,-0.45953965187072754
126.10965600,126109656,-0.45953965187072754,126109656,-0.45953965187072754
126.11366300,126113663,-0.45953965187072754,126113663,-0.45953965187072754
126.11718400,126117184,-0.45953965187072754,126117184,-0.45953965187072754
126.12121500,126121215,-0.5361295938491821,126121215,-0.5361295938491821
126.12521000,126125210,-0.45953965187072754,126125210,-0.45953965187072754
126.12923300,126129233,-0.45953965187072754,126129233,-0.45953965187072754
126.13275600,126132756,-0.45953965187072754,126132756,-0.45953965187072754
126.13666100,126136661,-0.45953965187072754,126136661,-0.45953965187072754
126.14068100,126140681,-0.5361295938491821,126140681,-0.5361295938491821
126.14465600,126144656,-0.5361295938491821,126144656,-0.5361295938491821
126.14864900,126148649,-0.5361295938491821,126148649,-0.5361295938491821
126.15215200,126152152,-0.45953965187072754,126152152,-0.45953965187072754
126.15620700,126156207,-0.45953965187072754,126156207,-0.45953965187072754
126.16016400,126160164,-0.5361295938491821,126160164,-0.5361295938491821
126.16415200,126164152,-0.45953965187072754,126164152,-0.45953965187072754
126.16765200,126167652,-0.5361295938491821,126167652,-0.5361295938491821
126.17168000,126171680,-0.5361295938491821,126171680,-0.5361295938491821
126.17567300,126175673,-0.45953965187072754,126175673,-0.45953965187072754
126.17969700,126179697,-0.45953965187072754,126179697,-0.45953965187072754
126.18322100,126183221,-0.5361295938491821,126183221,-0.5361295938491821
126.18724700,126187247,-0.5361295938491821,126187247,-0.5361295938491821
126.19133900,126191339,-0.45953965187072754,126191339,-0.45953965187072754
126.19527200,126195272,-0.45953965187072754,126195272,-0.45953965187072754
126.19865700,126198657,-0.45953965187072754,126198657,-0.45953965187072754
126.20265700,126202657,-0.5361295938491821,126202657,-0.5361295938491821
126.20666200,126206662,-0.5361295938491821,126206662,-0.5361295938491821
126.21066000,126210660,-0.45953965187072754,126210660,-0.45953965187072754
126.21415100,126214151,-0.45953965187072754,126214151,-0.45953965187072754
126.21815500,126218155,-0.45953965187072754,126218155,-0.45953965187072754
126.22219900,126222199,-0.45953965187072754,126222199,-0.45953965187072754
126.22618800,126226188,-0.45953965187072754,126226188,-0.45953965187072754
126.22968800,126229688,-0.45953965187072754,126229688,-0.45953965187072754
126.23371900,126233719,-0.45953965187072754,126233719,-0.45953965187072754
126.23780400,126237804,-0.45953965187072754,126237804,-0.45953965187072754
126.24133500,126241335,-0.45953965187072754,126241335,-0.45953965187072754
126.24528300,126245283,-0.45953965187072754,126245283,-0.45953965187072754
126.24915200,126249152,-0.45953965187072754,126249152,-0.45953965187072754
126.25315800,126253158,-0.45953965187072754,126253158,-0.45953965187072754
126.25715700,126257157,-0.45953965187072754,126257157,-0.45953965187072754
126.26118000,126261180,-0.5361295938491821,126261180,-0.5361295938491821
126.26465600,126264656,-0.5361295938491821,126264656,-0.5361295938491821
126.26865100,126268651,-0.45953965187072754,126268651,-0.45953965187072754
126.27265600,126272656,-0.45953965187072754,126272656,-0.45953965187072754
126.27665100,126276651,-0.5361295938491821,126276651,-0.5361295938491821
126.28015600,126280156,-0.45953965187072754,126280156,-0.45953965187072754
126.28415500,126284155,-0.45953965187072754,126284155,-0.45953965187072754
126.28815200,126288152,-0.45953965187072754,126288152,-0.45953965187072754
126.29215200,126292152,-0.5361295938491821,126292152,-0.5361295938491821
126.29564900,126295649,-0.45953965187072754,126295649,-0.45953965187072754
126.29967200,126299672,-0.5361295938491821,126299672,-0.5361295938491821
126.30369900,126303699,-0.45953965187072754,126303699,-0.45953965187072754
126.30783100,126307831,-0.45953965187072754,126307831,-0.45953965187072754
126.31124400,126311244,-0.45953965187072754,126311244,-0.45953965187072754
126.31524600,126315246,-0.5361295938491821,126315246,-0.5361295938491821
126.31926300,126319263,-0.45953965187072754,126319263,-0.45953965187072754
126.32333700,126323337,-0.45953965187072754,126323337,-0.45953965187072754
126.32715600,126327156,-0.5361295938491821,126327156,-0.5361295938491821
126.33065700,126330657,-0.45953965187072754,126330657,-0.45953965187072754
126.33465200,126334652,-0.5361295938491821,126334652,-0.5361295938491821
126.33865600,126338656,-0.45953965187072754,126338656,-0.45953965187072754
126.34265200,126342652,-0.45953965187072754,126342652,-0.45953965187072754
126.34618600,126346186,-0.45953965187072754,126346186,-0.45953965187072754
126.35015800,126350158,-0.5361295938491821,126350158,-0.5361295938491821
126.35415800,126354158,-0.45953965187072754,126354158,-0.45953965187072754
126.35815700,126358157,-0.5361295938491821,126358157,-0.5361295938491821
126.36165100,126361651,-0.45953965187072754,126361651,-0.45953965187072754
126.36565100,126365651,-0.45953965187072754,126365651,-0.45953965187072754
126.36965100,126369651,-0.45953965187072754,126369651,-0.45953965187072754
126.37369000,126373690,-0.5361295938491821,126373690,-0.5361295938491821
126.37715900,126377159,-0.5361295938491821,126377159,-0.5361295938491821
126.38119900,126381199,-0.45953965187072754,126381199,-0.45953965187072754
126.38520800,126385208,-0.45953965187072754,126385208,-0.45953965187072754
126.38923100,126389231,-0.5361295938491821,126389231,-0.5361295938491821
126.39271700,126392717,-0.45953965187072754,126392717,-0.45953965187072754
126.39674600,126396746,-0.45953965187072754,126396746,-0.45953965187072754
126.40065600,126400656,-0.45953965187072754,126400656,-0.45953965187072754
126.40465600,126404656,-0.45953965187072754,126404656,-0.45953965187072754
126.40865200,126408652,-0.45953965187072754,126408652,-0.45953965187072754
126.41215400,126412154,-0.45953965187072754,126412154,-0.45953965187072754
126.41615200,126416152,-0.45953965187072754,126416152,-0.45953965187072754
126.42015600,126420156,-0.45953965187072754,126420156,-0.45953965187072754
126.42416400,126424164,-0.45953965187072754,126424164,-0.45953965187072754
126.42765100,126427651,-0.5361295938491821,126427651,-0.5361295938491821
126.43167700,126431677,-0.5361295938491821,126431677,-0.5361295938491821
126.43565200,126435652,-0.45953965187072754,126435652,-0.45953965187072754
126.43965500,126439655,-0.45953965187072754,126439655,-0.45953965187072754
126.44315300,126443153,-0.45953965187072754,126443153,-0.45953965187072754
126.44715400,126447154,-0.45953965187072754,126447154,-0.45953965187072754
126.45116500,126451165,-0.5361295938491821,126451165,-0.5361295938491821
126.45478200,126454782,-0.45953965187072754,126454782,-0.45953965187072754
126.45868000,126458680,-0.5361295938491821,126458680,-0.5361295938491821
126.46270600,126462706,-0.45953965187072754,126462706,-0.45953965187072754
126.46676000,126466760,-0.45953965187072754,126466760,-0.45953965187072754
126.47076300,126470763,-0.45953965187072754,126470763,-0.45953965187072754
126.47425700,126474257,-0.5361295938491821,126474257,-0.5361295938491821
126.47815300,126478153,-0.5361295938491821,126478153,-0.5361295938491821
126.48215600,126482156,-0.45953965187072754,126482156,-0.45953965187072754
126.48615000,126486150,-0.5361295938491821,126486150,-0.5361295938491821
126.49015800,126490158,-0.45953965187072754,126490158,-0.45953965187072754
126.49365200,126493652,-0.45953965187072754,126493652,-0.45953965187072754
126.49765600,126497656,-0.45953965187072754,126497656,-0.45953965187072754
126.50169100,126501691,-0.5361295938491821,126501691,-0.5361295938491821
126.50566200,126505662,-0.5361295938491821,126505662,-0.5361295938491821
126.50915200,126509152,-0.45953965187072754,126509152,-0.45953965187072754
126.51315700,126513157,-0.5361295938491821,126513157,-0.5361295938491821
126.51715100,126517151,-0.5361295938491821,126517151,-0.5361295938491821
126.52115200,126521152,-0.45953965187072754,126521152,-0.45953965187072754
126.52465100,126524651,-0.45953965187072754,126524651,-0.45953965187072754
126.52866700,126528667,-0.45953965187072754,126528667,-0.45953965187072754
126.53268600,126532686,-0.45953965187072754,126532686,-0.45953965187072754
126.53675100,126536751,-0.5361295938491821,126536751,-0.5361295938491821
126.54021000,126540210,-0.5361295938491821,126540210,-0.5361295938491821
126.54423500,126544235,-0.45953965187072754,126544235,-0.45953965187072754
126.54825700,126548257,-0.5361295938491821,126548257,-0.5361295938491821
126.55215900,126552159,-0.45953965187072754,126552159,-0.45953965187072754
126.55565300,126555653,-0.45953965187072754,126555653,-0.45953965187072754
126.55965700,126559657,-0.5361295938491821,126559657,-0.5361295938491821
126.56365300,126563653,-0.5361295938491821,126563653,-0.5361295938491821
126.56764900,126567649,-0.45953965187072754,126567649,-0.45953965187072754
126.57168300,126571683,-0.45953965187072754,126571683,-0.45953965187072754
126.57515200,126575152,-0.45953965187072754,126575152,-0.45953965187072754
126.57915700,126579157,-0.45953965187072754,126579157,-0.45953965187072754
126.58315900,126583159,-0.5361295938491821,126583159,-0.5361295938491821
126.58715100,126587151,-0.5361295938491821,126587151,-0.5361295938491821
126.59065400,126590654,-0.45953965187072754,126590654,-0.45953965187072754
126.59465000,126594650,-0.45953965187072754,126594650,-0.45953965187072754
126.59865400,126598654,-0.45953965187072754,126598654,-0.45953965187072754
126.60266000,126602660,-0.5361295938491821,126602660,-0.5361295938491821
126.60628400,126606284,-0.5361295938491821,126606284,-0.5361295938491821
126.61018500,126610185,-0.45953965187072754,126610185,-0.45953965187072754
126.61421000,126614210,-0.5361295938491821,126614210,-0.5361295938491821
126.61823600,126618236,-0.45953965187072754,126618236,-0.45953965187072754
126.62179300,126621793,-0.5361295938491821,126621793,-0.5361295938491821
126.62576800,126625768,-0.45953965187072754,126625768,-0.45953965187072754
126.62965500,126629655,-0.45953965187072754,126629655,-0.45953965187072754
126.63365300,126633653,-0.45953965187072754,126633653,-0.45953965187072754
126.63719200,126637192,-0.45953965187072754,126637192,-0.45953965187072754
126.64115400,126641154,-0.5361295938491821,126641154,-0.5361295938491821
126.64515200,126645152,-0.5361295938491821,126645152,-0.5361295938491821
126.64915300,126649153,-0.45953965187072754,126649153,-0.45953965187072754
126.65315100,126653151,-0.45953965187072754,126653151,-0.45953965187072754
126.65665700,126656657,-0.5361295938491821,126656657,-0.5361295938491821
126.66065200,126660652,-0.45953965187072754,126660652,-0.45953965187072754
126.66465400,126664654,-0.5361295938491821,126664654,-0.5361295938491821
126.66864900,126668649,-0.5361295938491821,126668649,-0.5361295938491821
126.67220800,126672208,-0.5361295938491821,126672208,-0.5361295938491821
126.67616200,126676162,-0.45953965187072754,126676162,-0.45953965187072754
126.68015700,126680157,-0.45953965187072754,126680157,-0.45953965187072754
126.68418000,126684180,-0.45953965187072754,126684180,-0.45953965187072754
126.68771900,126687719,-0.45953965187072754,126687719,-0.45953965187072754
126.69171000,126691710,-0.45953965187072754,126691710,-0.45953965187072754
126.69579300,126695793,-0.5361295938491821,126695793,-0.5361295938491821
126.69926400,126699264,-0.45953965187072754,126699264,-0.45953965187072754
126.70315300,126703153,-0.5361295938491821,126703153,-0.5361295938491821
126.70717900,126707179,-0.45953965187072754,126707179,-0.45953965187072754
126.71115300,126711153,-0.45953965187072754,126711153,-0.45953965187072754
126.71515600,126715156,-0.45953965187072754,126715156,-0.45953965187072754
126.71865100,126718651,-0.45953965187072754,126718651,-0.45953965187072754
126.72268000,126722680,-0.45953965187072754,126722680,-0.45953965187072754
126.72665200,126726652,-0.45953965187072754,126726652,-0.45953965187072754
126.73065800,126730658,-0.5361295938491821,126730658,-0.5361295938491821
126.73423800,126734238,-0.5361295938491821,126734238,-0.5361295938491821
126.73822900,126738229,-0.45953965187072754,126738229,-0.45953965187072754
126.74225600,126742256,-0.45953965187072754,126742256,-0.45953965187072754
126.74626400,126746264,-0.5361295938491821,126746264,-0.5361295938491821
126.75015200,126750152,-0.45953965187072754,126750152,-0.45953965187072754
126.75365800,126753658,-0.5361295938491821,126753658,-0.5361295938491821
126.75765400,126757654,-0.45953965187072754,126757654,-0.45953965187072754
126.76165200,126761652,-0.45953965187072754,126761652,-0.45953965187072754
126.76565300,126765653,-0.45953965187072754,126765653,-0.45953965187072754
126.76915700,126769157,-0.45953965187072754,126769157,-0.45953965187072754
126.77316800,126773168,-0.5361295938491821,126773168,-0.5361295938491821
126.77718100,126777181,-0.5361295938491821,126777181,-0.5361295938491821
126.78115500,126781155,-0.5361295938491821,126781155,-0.5361295938491821
126.78469100,126784691,-0.5361295938491821,126784691,-0.5361295938491821
126.78871200,126788712,-0.45953965187072754,126788712,-0.45953965187072754
126.79270200,126792702,-0.5361295938491821,126792702,-0.5361295938491821
126.79673500,126796735,-0.45953965187072754,126796735,-0.45953965187072754
126.80025900,126800259,-0.5361295938491821,126800259,-0.5361295938491821
126.80415900,126804159,-0.45953965187072754,126804159,-0.45953965187072754
126.80815800,126808158,-0.5361295938491821,126808158,-0.5361295938491821
126.81218200,126812182,-0.45953965187072754,126812182,-0.45953965187072754
126.81616200,126816162,-0.45953965187072754,126816162,-0.45953965187072754
126.81965900,126819659,-0.45953965187072754,126819659,-0.45953965187072754
126.82365600,126823656,-0.45953965187072754,126823656,-0.45953965187072754
126.82768300,126827683,-0.45953965187072754,126827683,-0.45953965187072754
126.83165000,126831650,-0.45953965187072754,126831650,-0.45953965187072754
126.83515600,126835156,-0.45953965187072754,126835156,-0.45953965187072754
126.83915800,126839158,-0.5361295938491821,126839158,-0.5361295938491821
126.84315200,126843152,-0.5361295938491821,126843152,-0.5361295938491821
126.84671400,126846714,-0.45953965187072754,126846714,-0.45953965187072754
126.85073500,126850735,-0.5361295938491821,126850735,-0.5361295938491821
126.85477400,126854774,-0.45953965187072754,126854774,-0.45953965187072754
126.85876600,126858766,-0.5361295938491821,126858766,-0.5361295938491821
126.86268200,126862682,-0.45953965187072754,126862682,-0.45953965187072754
126.86615200,126866152,-0.5361295938491821,126866152,-0.5361295938491821
126.87015400,126870154,-0.45953965187072754,126870154,-0.45953965187072754
126.87415300,126874153,-0.5361295938491821,126874153,-0.5361295938491821
126.87815200,126878152,-0.45953965187072754,126878152,-0.45953965187072754
126.88165400,126881654,-0.45953965187072754,126881654,-0.45953965187072754
126.88565100,126885651,-0.45953965187072754,126885651,-0.45953965187072754
126.88967200,126889672,-0.5361295938491821,126889672,-0.5361295938491821
126.89365400,126893654,-0.5361295938491821,126893654,-0.5361295938491821
126.89768200,126897682,-0.45953965187072754,126897682,-0.45953965187072754
126.90115200,126901152,-0.45953965187072754,126901152,-0.45953965187072754
126.90518700,126905187,-0.45953965187072754,126905187,-0.45953965187072754
126.90915400,126909154,-0.5361295938491821,126909154,-0.5361295938491821
126.91270500,126912705,-0.5361295938491821,126912705,-0.5361295938491821
126.91670300,126916703,-0.45953965187072754,126916703,-0.45953965187072754
126.92072500,126920725,-0.5361295938491821,126920725,-0.5361295938491821
126.92479400,126924794,-0.45953965187072754,126924794,-0.45953965187072754
126.92825500,126928255,-0.5361295938491821,126928255,-0.5361295938491821
126.93227200,126932272,-0.45953965187072754,126932272,-0.45953965187072754
126.93615400,126936154,-0.45953965187072754,126936154,-0.45953965187072754
126.94016800,126940168,-0.45953965187072754,126940168,-0.45953965187072754
126.94415300,126944153,-0.5361295938491821,126944153,-0.5361295938491821
126.94768700,126947687,-0.5361295938491821,126947687,-0.5361295938491821
126.95165400,126951654,-0.5361295938491821,126951654,-0.5361295938491821
126.95565500,126955655,-0.5361295938491821,126955655,-0.5361295938491821
126.95965600,126959656,-0.5361295938491821,126959656,-0.5361295938491821
126.96315200,126963152,-0.5361295938491821,126963152,-0.5361295938491821
126.96715600,126967156,-0.5361295938491821,126967156,-0.5361295938491821
126.97115200,126971152,-0.45953965187072754,126971152,-0.45953965187072754
126.97515500,126975155,-0.45953965187072754,126975155,-0.45953965187072754
126.97865400,126978654,-0.5361295938491821,126978654,-0.5361295938491821
126.98267800,126982678,-0.45953965187072754,126982678,-0.45953965187072754
126.98666900,126986669,-0.45953965187072754,126986669,-0.45953965187072754
126.99073200,126990732,-0.45953965187072754,126990732,-0.45953965187072754
126.99418800,126994188,-0.45953965187072754,126994188,-0.45953965187072754
126.99821500,126998215,-0.45953965187072754,126998215,-0.45953965187072754
127.00224200,127002242,-0.5361295938491821,127002242,-0.5361295938491821
127.00582100,127005821,-0.5361295938491821,127005821,-0.5361295938491821
127.00976500,127009765,-0.45953965187072754,127009765,-0.45953965187072754
127.01365300,127013653,-0.5361295938491821,127013653,-0.5361295938491821
127.01767900,127017679,-0.45953965187072754,127017679,-0.45953965187072754
127.02166100,127021661,-0.45953965187072754,127021661,-0.45953965187072754
127.02566600,127025666,-0.45953965187072754,127025666,-0.45953965187072754
127.02915200,127029152,-0.5361295938491821,127029152,-0.5361295938491821
127.03315500,127033155,-0.45953965187072754,127033155,-0.45953965187072754
127.03715000,127037150,-0.45953965187072754,127037150,-0.45953965187072754
127.04115600,127041156,-0.45953965187072754,127041156,-0.45953965187072754
127.04465100,127044651,-0.5361295938491821,127044651,-0.5361295938491821
127.04865400,127048654,-0.5361295938491821,127048654,-0.5361295938491821
127.05268900,127052689,-0.45953965187072754,127052689,-0.45953965187072754
127.05665500,127056655,-0.5361295938491821,127056655,-0.5361295938491821
127.06015300,127060153,-0.5361295938491821,127060153,-0.5361295938491821
127.06416500,127064165,-0.5361295938491821,127064165,-0.5361295938491821
127.06819800,127068198,-0.5361295938491821,127068198,-0.5361295938491821
127.07222900,127072229,-0.45953965187072754,127072229,-0.45953965187072754
127.07572200,127075722,-0.45953965187072754,127075722,-0.45953965187072754
127.07975100,127079751,-0.45953965187072754,127079751,-0.45953965187072754
127.08365300,127083653,-0.5361295938491821,127083653,-0.5361295938491821
127.08765700,127087657,-0.45953965187072754,127087657,-0.45953965187072754
127.09166900,127091669,-0.45953965187072754,127091669,-0.45953965187072754
127.09515300,127095153,-0.45953965187072754,127095153,-0.45953965187072754
127.09915500,127099155,-0.45953965187072754,127099155,-0.45953965187072754
127.10318800,127103188,-0.5361295938491821,127103188,-0.5361295938491821
127.10715800,127107158,-0.45953965187072754,127107158,-0.45953965187072754
127.11066600,127110666,-0.45953965187072754,127110666,-0.45953965187072754
127.11465500,127114655,-0.5361295938491821,127114655,-0.5361295938491821
127.11865300,127118653,-0.45953965187072754,127118653,-0.45953965187072754
127.12265500,127122655,-0.5361295938491821,127122655,-0.5361295938491821
127.12615300,127126153,-0.45953965187072754,127126153,-0.45953965187072754
127.13015300,127130153,-0.45953965187072754,127130153,-0.45953965187072754
127.13415800,127134158,-0.5361295938491821,127134158,-0.5361295938491821
127.13820100,127138201,-0.5361295938491821,127138201,-0.5361295938491821
127.14165700,127141657,-0.45953965187072754,127141657,-0.45953965187072754
127.14569300,127145693,-0.5361295938491821,127145693,-0.5361295938491821
127.14970600,127149706,-0.45953965187072754,127149706,-0.45953965187072754
127.15373100,127153731,-0.5361295938491821,127153731,-0.5361295938491821
127.15735200,127157352,-0.45953965187072754,127157352,-0.45953965187072754
127.16125100,127161251,-0.45953965187072754,127161251,-0.45953965187072754
127.16519900,127165199,-0.45953965187072754,127165199,-0.45953965187072754
127.16915500,127169155,-0.45953965187072754,127169155,-0.45953965187072754
127.17318200,127173182,-0.5361295938491821,127173182,-0.5361295938491821
127.17665700,127176657,-0.45953965187072754,127176657,-0.45953965187072754
127.18065000,127180650,-0.45953965187072754,127180650,-0.45953965187072754
127.18465200,127184652,-0.45953965187072754,127184652,-0.45953965187072754
127.18865400,127188654,-0.5361295938491821,127188654,-0.5361295938491821
127.19215400,127192154,-0.45953965187072754,127192154,-0.45953965187072754
127.19615400,127196154,-0.45953965187072754,127196154,-0.45953965187072754
127.20015200,127200152,-0.45953965187072754,127200152,-0.45953965187072754
127.20415200,127204152,-0.5361295938491821,127204152,-0.5361295938491821
127.20765000,127207650,-0.45953965187072754,127207650,-0.45953965187072754
127.21165200,127211652,-0.5361295938491821,127211652,-0.5361295938491821
127.21565600,127215656,-0.45953965187072754,127215656,-0.45953965187072754
127.21965000,127219650,-0.5361295938491821,127219650,-0.5361295938491821
127.22318100,127223181,-0.5361295938491821,127223181,-0.5361295938491821
127.22715300,127227153,-0.45953965187072754,127227153,-0.45953965187072754
127.23117400,127231174,-0.5361295938491821,127231174,-0.5361295938491821
127.23516800,127235168,-0.45953965187072754,127235168,-0.45953965187072754
127.23874100,127238741,-0.5361295938491821,127238741,-0.5361295938491821
127.24269400,127242694,-0.45953965187072754,127242694,-0.45953965187072754
127.24669200,127246692,-0.45953965187072754,127246692,-0.45953965187072754
127.25072400,127250724,-0.45953965187072754,127250724,-0.45953965187072754
127.25421300,127254213,-0.5361295938491821,127254213,-0.5361295938491821
127.25824500,127258245,-0.45953965187072754,127258245,-0.45953965187072754
127.26225600,127262256,-0.45953965187072754,127262256,-0.45953965187072754
127.26626000,127266260,-0.45953965187072754,127266260,-0.45953965187072754
127.27015600,127270156,-0.5361295938491821,127270156,-0.5361295938491821
127.27365900,127273659,-0.5361295938491821,127273659,-0.5361295938491821
127.27765100,127277651,-0.45953965187072754,127277651,-0.45953965187072754
127.28165800,127281658,-0.45953965187072754,127281658,-0.45953965187072754
127.28565600,127285656,-0.45953965187072754,127285656,-0.45953965187072754
127.28916100,127289161,-0.45953965187072754,127289161,-0.45953965187072754
127.29315700,127293157,-0.45953965187072754,127293157,-0.45953965187072754
127.29715800,127297158,-0.5361295938491821,127297158,-0.5361295938491821
127.30115500,127301155,-0.5361295938491821,127301155,-0.5361295938491821
127.30466300,127304663,-0.45953965187072754,127304663,-0.45953965187072754
127.30868000,127308680,-0.45953965187072754,127308680,-0.45953965187072754
127.31265300,127312653,-0.45953965187072754,127312653,-0.45953965187072754
127.31665200,127316652,-0.45953965187072754,127316652,-0.45953965187072754
127.32065500,127320655,-0.45953965187072754,127320655,-0.45953965187072754
127.32415700,127324157,-0.45953965187072754,127324157,-0.45953965187072754
127.32815100,127328151,-0.45953965187072754,127328151,-0.45953965187072754
127.33215100,127332151,-0.45953965187072754,127332151,-0.45953965187072754
127.33615300,127336153,-0.45953965187072754,127336153,-0.45953965187072754
127.33968200,127339682,-0.5361295938491821,127339682,-0.5361295938491821
127.34368500,127343685,-0.5361295938491821,127343685,-0.5361295938491821
127.34765300,127347653,-0.5361295938491821,127347653,-0.5361295938491821
127.35166700,127351667,-0.45953965187072754,127351667,-0.45953965187072754
127.35516700,127355167,-0.45953965187072754,127355167,-0.45953965187072754
127.35917600,127359176,-0.45953965187072754,127359176,-0.45953965187072754
127.36320000,127363200,-0.45953965187072754,127363200,-0.45953965187072754
127.36720900,127367209,-0.5361295938491821,127367209,-0.5361295938491821
127.37073700,127370737,-0.45953965187072754,127370737,-0.45953965187072754
127.37473400,127374734,-0.45953965187072754,127374734,-0.45953965187072754
127.37882300,127378823,-0.45953965187072754,127378823,-0.45953965187072754
127.38226600,127382266,-0.5361295938491821,127382266,-0.5361295938491821
127.38625900,127386259,-0.45953965187072754,127386259,-0.45953965187072754
127.39015100,127390151,-0.45953965187072754,127390151,-0.45953965187072754
127.39416100,127394161,-0.45953965187072754,127394161,-0.45953965187072754
127.39815300,127398153,-0.5361295938491821,127398153,-0.5361295938491821
127.40215800,127402158,-0.45953965187072754,127402158,-0.45953965187072754
127.40565300,127405653,-0.5361295938491821,127405653,-0.5361295938491821
127.40965500,127409655,-0.5361295938491821,127409655,-0.5361295938491821
127.41367700,127413677,-0.45953965187072754,127413677,-0.45953965187072754
127.41765700,127417657,-0.45953965187072754,127417657,-0.45953965187072754
127.42115400,127421154,-0.45953965187072754,127421154,-0.45953965187072754
127.42515300,127425153,-0.45953965187072754,127425153,-0.45953965187072754
127.42916000,127429160,-0.45953965187072754,127429160,-0.45953965187072754
127.43315200,127433152,-0.5361295938491821,127433152,-0.5361295938491821
127.43665300,127436653,-0.5361295938491821,127436653,-0.5361295938491821
127.44066300,127440663,-0.45953965187072754,127440663,-0.45953965187072754
127.44466200,127444662,-0.5361295938491821,127444662,-0.5361295938491821
127.44873900,127448739,-0.5361295938491821,127448739,-0.5361295938491821
127.45215600,127452156,-0.5361295938491821,127452156,-0.5361295938491821
127.45615200,127456152,-0.5361295938491821,127456152,-0.5361295938491821
127.46015400,127460154,-0.5361295938491821,127460154,-0.5361295938491821
127.46415500,127464155,-0.5361295938491821,127464155,-0.5361295938491821
127.46765200,127467652,-0.5361295938491821,127467652,-0.5361295938491821
127.47166100,127471661,-0.5361295938491821,127471661,-0.5361295938491821
127.47567200,127475672,-0.45953965187072754,127475672,-0.45953965187072754
127.47966200,127479662,-0.45953965187072754,127479662,-0.45953965187072754
127.48368200,127483682,-0.45953965187072754,127483682,-0.45953965187072754
127.48715400,127487154,-0.45953965187072754,127487154,-0.45953965187072754
127.49120600,127491206,-0.5361295938491821,127491206,-0.5361295938491821
127.49515900,127495159,-0.45953965187072754,127495159,-0.45953965187072754
127.49874300,127498743,-0.5361295938491821,127498743,-0.5361295938491821
127.50268700,127502687,-0.5361295938491821,127502687,-0.5361295938491821
127.50668300,127506683,-0.45953965187072754,127506683,-0.45953965187072754
127.51068100,127510681,-0.5361295938491821,127510681,-0.5361295938491821
127.51420900,127514209,-0.45953965187072754,127514209,-0.45953965187072754
127.51821200,127518212,-0.45953965187072754,127518212,-0.45953965187072754
127.52224000,127522240,-0.5361295938491821,127522240,-0.5361295938491821
127.52623100,127526231,-0.45953965187072754,127526231,-0.45953965187072754
127.52974400,127529744,-0.5361295938491821,127529744,-0.5361295938491821
127.53379000,127533790,-0.5361295938491821,127533790,-0.5361295938491821
127.53776100,127537761,-0.5361295938491821,127537761,-0.5361295938491821
127.54183900,127541839,-0.45953965187072754,127541839,-0.45953965187072754
127.54566000,127545660,-0.5361295938491821,127545660,-0.5361295938491821
127.54923900,127549239,-0.45953965187072754,127549239,-0.45953965187072754
127.55315200,127553152,-0.45953965187072754,127553152,-0.45953965187072754
127.55715300,127557153,-0.45953965187072754,127557153,-0.45953965187072754
127.56115500,127561155,-0.45953965187072754,127561155,-0.45953965187072754
127.56465300,127564653,-0.45953965187072754,127564653,-0.45953965187072754
127.56865500,127568655,-0.45953965187072754,127568655,-0.45953965187072754
127.57266000,127572660,-0.5361295938491821,127572660,-0.5361295938491821
127.57665100,127576651,-0.45953965187072754,127576651,-0.45953965187072754
127.58065500,127580655,-0.5361295938491821,127580655,-0.5361295938491821
127.58418100,127584181,-0.45953965187072754,127584181,-0.45953965187072754
127.58815600,127588156,-0.5361295938491821,127588156,-0.5361295938491821
127.59215500,127592155,-0.5361295938491821,127592155,-0.5361295938491821
127.59615800,127596158,-0.45953965187072754,127596158,-0.45953965187072754
127.59965200,127599652,-0.5361295938491821,127599652,-0.5361295938491821
127.60365100,127603651,-0.45953965187072754,127603651,-0.45953965187072754
127.60765200,127607652,-0.45953965187072754,127607652,-0.45953965187072754
127.61165200,127611652,-0.45953965187072754,127611652,-0.45953965187072754
127.61516000,127615160,-0.45953965187072754,127615160,-0.45953965187072754
127.61919300,127619193,-0.5361295938491821,127619193,-0.5361295938491821
127.62315900,127623159,-0.45953965187072754,127623159,-0.45953965187072754
127.62715400,127627154,-0.45953965187072754,127627154,-0.45953965187072754
127.63065400,127630654,-0.45953965187072754,127630654,-0.45953965187072754
127.63465200,127634652,-0.5361295938491821,127634652,-0.5361295938491821
127.63865300,127638653,-0.45953965187072754,127638653,-0.45953965187072754
127.64271100,127642711,-0.5361295938491821,127642711,-0.5361295938491821
127.64617500,127646175,-0.5361295938491821,127646175,-0.5361295938491821
127.65017000,127650170,-0.45953965187072754,127650170,-0.45953965187072754
127.65423200,127654232,-0.5361295938491821,127654232,-0.5361295938491821
127.65819200,127658192,-0.45953965187072754,127658192,-0.45953965187072754
127.66168700,127661687,-0.45953965187072754,127661687,-0.45953965187072754
127.66572500,127665725,-0.5361295938491821,127665725,-0.5361295938491821
127.66973900,127669739,-0.45953965187072754,127669739,-0.45953965187072754
127.67375400,127673754,-0.45953965187072754,127673754,-0.45953965187072754
127.67724300,127677243,-0.5361295938491821,127677243,-0.5361295938491821
127.68124900,127681249,-0.45953965187072754,127681249,-0.45953965187072754
127.68527500,127685275,-0.5361295938491821,127685275,-0.5361295938491821
127.68930100,127689301,-0.5361295938491821,127689301,-0.5361295938491821
127.69276900,127692769,-0.5361295938491821,127692769,-0.5361295938491821
127.69665100,127696651,-0.5361295938491821,127696651,-0.5361295938491821
127.70066100,127700661,-0.5361295938491821,127700661,-0.5361295938491821
127.70465000,127704650,-0.5361295938491821,127704650,-0.5361295938491821
127.70865800,127708658,-0.45953965187072754,127708658,-0.45953965187072754
127.71215500,127712155,-0.45953965187072754,127712155,-0.45953965187072754
127.71615500,127716155,-0.5361295938491821,127716155,-0.5361295938491821
127.72015300,127720153,-0.45953965187072754,127720153,-0.45953965187072754
127.72419400,127724194,-0.45953965187072754,127724194,-0.45953965187072754
127.72765600,127727656,-0.45953965187072754,127727656,-0.45953965187072754
127.73165200,127731652,-0.45953965187072754,127731652,-0.45953965187072754
127.73565300,127735653,-0.5361295938491821,127735653,-0.5361295938491821
127.73969500,127739695,-0.5361295938491821,127739695,-0.5361295938491821
127.74365800,127743658,-0.5361295938491821,127743658,-0.5361295938491821
127.74715200,127747152,-0.45953965187072754,127747152,-0.45953965187072754
127.75115400,127751154,-0.45953965187072754,127751154,-0.45953965187072754
127.75515100,127755151,-0.45953965187072754,127755151,-0.45953965187072754
127.75915500,127759155,-0.5361295938491821,127759155,-0.5361295938491821
127.76265600,127762656,-0.5361295938491821,127762656,-0.5361295938491821
127.76665100,127766651,-0.45953965187072754,127766651,-0.45953965187072754
127.77066700,127770667,-0.5361295938491821,127770667,-0.5361295938491821
127.77421700,127774217,-0.45953965187072754,127774217,-0.45953965187072754
127.77815400,127778154,-0.45953965187072754,127778154,-0.45953965187072754
127.78215200,127782152,-0.5361295938491821,127782152,-0.5361295938491821
127.78615200,127786152,-0.45953965187072754,127786152,-0.45953965187072754
127.79015200,127790152,-0.45953965187072754,127790152,-0.45953965187072754
127.79365200,127793652,-0.45953965187072754,127793652,-0.45953965187072754
127.79765100,127797651,-0.45953965187072754,127797651,-0.45953965187072754
127.80165100,127801651,-0.45953965187072754,127801651,-0.45953965187072754
127.80568300,127805683,-0.45953965187072754,127805683,-0.45953965187072754
127.80919000,127809190,-0.45953965187072754,127809190,-0.45953965187072754
127.81317800,127813178,-0.5361295938491821,127813178,-0.5361295938491821
127.81720200,127817202,-0.5361295938491821,127817202,-0.5361295938491821
127.82120100,127821201,-0.5361295938491821,127821201,-0.5361295938491821
127.82486300,127824863,-0.45953965187072754,127824863,-0.45953965187072754
127.82874400,127828744,-0.45953965187072754,127828744,-0.45953965187072754
127.83272900,127832729,-0.45953965187072754,127832729,-0.45953965187072754
127.83631500,127836315,-0.45953965187072754,127836315,-0.45953965187072754
127.84026600,127840266,-0.45953965187072754,127840266,-0.45953965187072754
127.84426100,127844261,-0.45953965187072754,127844261,-0.45953965187072754
127.84815600,127848156,-0.45953965187072754,127848156,-0.45953965187072754
127.85215200,127852152,-0.45953965187072754,127852152,-0.45953965187072754
127.85615600,127856156,-0.45953965187072754,127856156,-0.45953965187072754
127.85973400,127859734,-0.5361295938491821,127859734,-0.5361295938491821
127.86365400,127863654,-0.45953965187072754,127863654,-0.45953965187072754
127.86764900,127867649,-0.45953965187072754,127867649,-0.45953965187072754
127.87165300,127871653,-0.45953965187072754,127871653,-0.45953965187072754
127.87515800,127875158,-0.45953965187072754,127875158,-0.45953965187072754
127.87915500,127879155,-0.45953965187072754,127879155,-0.45953965187072754
127.88315900,127883159,-0.45953965187072754,127883159,-0.45953965187072754
127.88715400,127887154,-0.45953965187072754,127887154,-0.45953965187072754
127.89065600,127890656,-0.45953965187072754,127890656,-0.45953965187072754
127.89468000,127894680,-0.45953965187072754,127894680,-0.45953965187072754
127.89865100,127898651,-0.45953965187072754,127898651,-0.45953965187072754
127.90265000,127902650,-0.45953965187072754,127902650,-0.45953965187072754
127.90665500,127906655,-0.45953965187072754,127906655,-0.45953965187072754
127.91016200,127910162,-0.45953965187072754,127910162,-0.45953965187072754
127.91415600,127914156,-0.45953965187072754,127914156,-0.45953965187072754
127.91815000,127918150,-0.45953965187072754,127918150,-0.45953965187072754
127.92215500,127922155,-0.45953965187072754,127922155,-0.45953965187072754
127.92565500,127925655,-0.45953965187072754,127925655,-0.45953965187072754
127.92968000,127929680,-0.5361295938491821,127929680,-0.5361295938491821
127.93365500,127933655,-0.5361295938491821,127933655,-0.5361295938491821
127.93765400,127937654,-0.45953965187072754,127937654,-0.45953965187072754
127.94115900,127941159,-0.45953965187072754,127941159,-0.45953965187072754
127.94515800,127945158,-0.5361295938491821,127945158,-0.5361295938491821
127.94916900,127949169,-0.45953965187072754,127949169,-0.45953965187072754
127.95316700,127953167,-0.5361295938491821,127953167,-0.5361295938491821
127.95669700,127956697,-0.5361295938491821,127956697,-0.5361295938491821
127.96069300,127960693,-0.5361295938491821,127960693,-0.5361295938491821
127.96479000,127964790,-0.45953965187072754,127964790,-0.45953965187072754
127.96871800,127968718,-0.5361295938491821,127968718,-0.5361295938491821
127.97221900,127972219,-0.5361295938491821,127972219,-0.5361295938491821
127.97621700,127976217,-0.45953965187072754,127976217,-0.45953965187072754
127.98025800,127980258,-0.45953965187072754,127980258,-0.45953965187072754
127.98426200,127984262,-0.45953965187072754,127984262,-0.45953965187072754
127.98777400,127987774,-0.45953965187072754,127987774,-0.45953965187072754
127.99177700,127991777,-0.45953965187072754,127991777,-0.45953965187072754
127.99577300,127995773,-0.45953965187072754,127995773,-0.45953965187072754
127.99966200,127999662,-0.45953965187072754,127999662,-0.45953965187072754
128.00365300,128003653,-0.45953965187072754,128003653,-0.45953965187072754
128.00716100,128007161,-0.45953965187072754,128007161,-0.45953965187072754
128.01115900,128011159,-0.5361295938491821,128011159,-0.5361295938491821
128.01518100,128015181,-0.45953965187072754,128015181,-0.45953965187072754
128.01915200,128019152,-0.45953965187072754,128019152,-0.45953965187072754
128.02265100,128022651,-0.5361295938491821,128022651,-0.5361295938491821
128.02665300,128026653,-0.5361295938491821,128026653,-0.5361295938491821
128.03065200,128030652,-0.45953965187072754,128030652,-0.45953965187072754
128.03465300,128034653,-0.5361295938491821,128034653,-0.5361295938491821
128.03815800,128038158,-0.5361295938491821,128038158,-0.5361295938491821
128.04215900,128042159,-0.45953965187072754,128042159,-0.45953965187072754
128.04615700,128046157,-0.45953965187072754,128046157,-0.45953965187072754
128.05018500,128050185,-0.45953965187072754,128050185,-0.45953965187072754
128.05365600,128053656,-0.5361295938491821,128053656,-0.5361295938491821
128.05765900,128057659,-0.45953965187072754,128057659,-0.45953965187072754
128.06165400,128061654,-0.45953965187072754,128061654,-0.45953965187072754
128.06565800,128065658,-0.5361295938491821,128065658,-0.5361295938491821
128.06965600,128069656,-0.45953965187072754,128069656,-0.45953965187072754
128.07315500,128073155,-0.45953965187072754,128073155,-0.45953965187072754
128.07715600,128077156,-0.5361295938491821,128077156,-0.5361295938491821
128.08114900,128081149,-0.45953965187072754,128081149,-0.45953965187072754
128.08518100,128085181,-0.45953965187072754,128085181,-0.45953965187072754
128.08865500,128088655,-0.45953965187072754,128088655,-0.45953965187072754
128.09265300,128092653,-0.5361295938491821,128092653,-0.5361295938491821
128.09665100,128096651,-0.5361295938491821,128096651,-0.5361295938491821
128.10066000,128100660,-0.5361295938491821,128100660,-0.5361295938491821
128.10416100,128104161,-0.5361295938491821,128104161,-0.5361295938491821
128.10826600,128108266,-0.45953965187072754,128108266,-0.45953965187072754
128.11218600,128112186,-0.5361295938491821,128112186,-0.5361295938491821
128.11618800,128116188,-0.45953965187072754,128116188,-0.45953965187072754
128.11971500,128119715,-0.45953965187072754,128119715,-0.45953965187072754
128.12372300,128123723,-0.45953965187072754,128123723,-0.45953965187072754
128.12771500,128127715,-0.5361295938491821,128127715,-0.5361295938491821
128.13174800,128131748,-0.45953965187072754,128131748,-0.45953965187072754
128.13528000,128135280,-0.45953965187072754,128135280,-0.45953965187072754
128.13928000,128139280,-0.45953965187072754,128139280,-0.45953965187072754
128.14315500,128143155,-0.45953965187072754,128143155,-0.45953965187072754
128.14728000,128147280,-0.45953965187072754,128147280,-0.45953965187072754
128.15115700,128151157,-0.45953965187072754,128151157,-0.45953965187072754
128.15465500,128154655,-0.5361295938491821,128154655,-0.5361295938491821
128.15866600,128158666,-0.5361295938491821,128158666,-0.5361295938491821
128.16265300,128162653,-0.45953965187072754,128162653,-0.45953965187072754
128.16665200,128166652,-0.5361295938491821,128166652,-0.5361295938491821
128.17018600,128170186,-0.5361295938491821,128170186,-0.5361295938491821
128.17415800,128174158,-0.45953965187072754,128174158,-0.45953965187072754
128.17815900,128178159,-0.45953965187072754,128178159,-0.45953965187072754
128.18215100,128182151,-0.45953965187072754,128182151,-0.45953965187072754
128.18568100,128185681,-0.45953965187072754,128185681,-0.45953965187072754
128.18965700,128189657,-0.45953965187072754,128189657,-0.45953965187072754
128.19365800,128193658,-0.45953965187072754,128193658,-0.45953965187072754
128.19765700,128197657,-0.5361295938491821,128197657,-0.5361295938491821
128.20115200,128201152,-0.5361295938491821,128201152,-0.5361295938491821
128.20515300,128205153,-0.5361295938491821,128205153,-0.5361295938491821
128.20915800,128209158,-0.5361295938491821,128209158,-0.5361295938491821
128.21315100,128213151,-0.5361295938491821,128213151,-0.5361295938491821
128.21665500,128216655,-0.5361295938491821,128216655,-0.5361295938491821
128.22067900,128220679,-0.45953965187072754,128220679,-0.45953965187072754
128.22465900,128224659,-0.45953965187072754,128224659,-0.45953965187072754
128.22865100,128228651,-0.45953965187072754,128228651,-0.45953965187072754
128.23265400,128232654,-0.45953965187072754,128232654,-0.45953965187072754
128.23615200,128236152,-0.45953965187072754,128236152,-0.45953965187072754
128.24016400,128240164,-0.5361295938491821,128240164,-0.5361295938491821
128.24415600,128244156,-0.45953965187072754,128244156,-0.45953965187072754
128.24815500,128248155,-0.45953965187072754,128248155,-0.45953965187072754
128.25167800,128251678,-0.5361295938491821,128251678,-0.5361295938491821
128.25571300,128255713,-0.45953965187072754,128255713,-0.45953965187072754
128.25975000,128259750,-0.5361295938491821,128259750,-0.5361295938491821
128.26370700,128263707,-0.45953965187072754,128263707,-0.45953965187072754
128.26720400,128267204,-0.45953965187072754,128267204,-0.45953965187072754
128.27123100,128271231,-0.45953965187072754,128271231,-0.45953965187072754
128.27523100,128275231,-0.45953965187072754,128275231,-0.45953965187072754
128.27923000,128279230,-0.5361295938491821,128279230,-0.5361295938491821
128.28275000,128282750,-0.45953965187072754,128282750,-0.45953965187072754
128.28675700,128286757,-0.45953965187072754,128286757,-0.45953965187072754
128.29068600,128290686,-0.5361295938491821,128290686,-0.5361295938491821
128.29465400,128294654,-0.5361295938491821,128294654,-0.5361295938491821
128.29816300,128298163,-0.45953965187072754,128298163,-0.45953965187072754
128.30215000,128302150,-0.5361295938491821,128302150,-0.5361295938491821
128.30615200,128306152,-0.5361295938491821,128306152,-0.5361295938491821
128.31015600,128310156,-0.5361295938491821,128310156,-0.5361295938491821
128.31415000,128314150,-0.5361295938491821,128314150,-0.5361295938491821
128.31765500,128317655,-0.45953965187072754,128317655,-0.45953965187072754
128.32165300,128321653,-0.45953965187072754,128321653,-0.45953965187072754
128.32568300,128325683,-0.45953965187072754,128325683,-0.45953965187072754
128.32965600,128329656,-0.5361295938491821,128329656,-0.5361295938491821
128.33315200,128333152,-0.5361295938491821,128333152,-0.5361295938491821
128.33715300,128337153,-0.45953965187072754,128337153,-0.45953965187072754
128.34115500,128341155,-0.5361295938491821,128341155,-0.5361295938491821
128.34515200,128345152,-0.45953965187072754,128345152,-0.45953965187072754
128.34865300,128348653,-0.45953965187072754,128348653,-0.45953965187072754
128.35265400,128352654,-0.5361295938491821,128352654,-0.5361295938491821
128.35666100,128356661,-0.5361295938491821,128356661,-0.5361295938491821
128.36068100,128360681,-0.5361295938491821,128360681,-0.5361295938491821
128.36415400,128364154,-0.45953965187072754,128364154,-0.45953965187072754
128.36815100,128368151,-0.45953965187072754,128368151,-0.45953965187072754
128.37215300,128372153,-0.45953965187072754,128372153,-0.45953965187072754
128.37615100,128376151,-0.45953965187072754,128376151,-0.45953965187072754
128.37965000,128379650,-0.5361295938491821,128379650,-0.5361295938491821
128.38367100,128383671,-0.5361295938491821,128383671,-0.5361295938491821
128.38767500,128387675,-0.5361295938491821,128387675,-0.5361295938491821
128.39171400,128391714,-0.5361295938491821,128391714,-0.5361295938491821
128.39521000,128395210,-0.45953965187072754,128395210,-0.45953965187072754
128.39921200,128399212,-0.45953965187072754,128399212,-0.45953965187072754
128.40325300,128403253,-0.5361295938491821,128403253,-0.5361295938491821
128.40725900,128407259,-0.45953965187072754,128407259,-0.45953965187072754
128.41078000,128410780,-0.45953965187072754,128410780,-0.45953965187072754
128.41465100,128414651,-0.45953965187072754,128414651,-0.45953965187072754
128.41865300,128418653,-0.45953965187072754,128418653,-0.45953965187072754
128.42265600,128422656,-0.5361295938491821,128422656,-0.5361295938491821
128.42665200,128426652,-0.5361295938491821,128426652,-0.5361295938491821
128.43016000,128430160,-0.45953965187072754,128430160,-0.45953965187072754
128.43415000,128434150,-0.5361295938491821,128434150,-0.5361295938491821
128.43815400,128438154,-0.5361295938491821,128438154,-0.5361295938491821
128.44215600,128442156,-0.45953965187072754,128442156,-0.45953965187072754
128.44565600,128445656,-0.5361295938491821,128445656,-0.5361295938491821
128.44965200,128449652,-0.5361295938491821,128449652,-0.5361295938491821
128.45365400,128453654,-0.45953965187072754,128453654,-0.45953965187072754
128.45766200,128457662,-0.5361295938491821,128457662,-0.5361295938491821
128.46117700,128461177,-0.45953965187072754,128461177,-0.45953965187072754
128.46515100,128465151,-0.5361295938491821,128465151,-0.5361295938491821
128.46915500,128469155,-0.45953965187072754,128469155,-0.45953965187072754
128.47315900,128473159,-0.5361295938491821,128473159,-0.5361295938491821
128.47715500,128477155,-0.45953965187072754,128477155,-0.45953965187072754
128.48065600,128480656,-0.45953965187072754,128480656,-0.45953965187072754
128.48465500,128484655,-0.5361295938491821,128484655,-0.5361295938491821
128.48865400,128488654,-0.5361295938491821,128488654,-0.5361295938491821
128.49221900,128492219,-0.45953965187072754,128492219,-0.45953965187072754
128.49620200,128496202,-0.45953965187072754,128496202,-0.45953965187072754
128.50017600,128500176,-0.45953965187072754,128500176,-0.45953965187072754
128.50420000,128504200,-0.45953965187072754,128504200,-0.45953965187072754
128.50820800,128508208,-0.5361295938491821,128508208,-0.5361295938491821
128.51170700,128511707,-0.45953965187072754,128511707,-0.45953965187072754
128.51572600,128515726,-0.5361295938491821,128515726,-0.5361295938491821
128.51972600,128519726,-0.5361295938491821,128519726,-0.5361295938491821
128.52326100,128523261,-0.5361295938491821,128523261,-0.5361295938491821
128.52725300,128527253,-0.5361295938491821,128527253,-0.5361295938491821
128.53128100,128531281,-0.5361295938491821,128531281,-0.5361295938491821
128.53527000,128535270,-0.5361295938491821,128535270,-0.5361295938491821
128.53877000,128538770,-0.45953965187072754,128538770,-0.45953965187072754
128.54288900,128542889,-0.45953965187072754,128542889,-0.45953965187072754
128.54665600,128546656,-0.45953965187072754,128546656,-0.45953965187072754
128.55065300,128550653,-0.45953965187072754,128550653,-0.45953965187072754
128.55465900,128554659,-0.5361295938491821,128554659,-0.5361295938491821
128.55865100,128558651,-0.45953965187072754,128558651,-0.45953965187072754
128.56215500,128562155,-0.5361295938491821,128562155,-0.5361295938491821
128.56619600,128566196,-0.5361295938491821,128566196,-0.5361295938491821
128.57015300,128570153,-0.45953965187072754,128570153,-0.45953965187072754
128.57415600,128574156,-0.5361295938491821,128574156,-0.5361295938491821
128.57765600,128577656,-0.45953965187072754,128577656,-0.45953965187072754
128.58165800,128581658,-0.45953965187072754,128581658,-0.45953965187072754
128.58565300,128585653,-0.45953965187072754,128585653,-0.45953965187072754
128.58965500,128589655,-0.45953965187072754,128589655,-0.45953965187072754
128.59316200,128593162,-0.5361295938491821,128593162,-0.5361295938491821
128.59715500,128597155,-0.5361295938491821,128597155,-0.5361295938491821
128.60118700,128601187,-0.5361295938491821,128601187,-0.5361295938491821
128.60514900,128605149,-0.45953965187072754,128605149,-0.45953965187072754
128.60865600,128608656,-0.45953965187072754,128608656,-0.45953965187072754
128.61265100,128612651,-0.5361295938491821,128612651,-0.5361295938491821
128.61666300,128616663,-0.45953965187072754,128616663,-0.45953965187072754
128.62065000,128620650,-0.45953965187072754,128620650,-0.45953965187072754
128.62417300,128624173,-0.45953965187072754,128624173,-0.45953965187072754
128.62815000,128628150,-0.45953965187072754,128628150,-0.45953965187072754
128.63215600,128632156,-0.45953965187072754,128632156,-0.45953965187072754
128.63615100,128636151,-0.45953965187072754,128636151,-0.45953965187072754
128.64015200,128640152,-0.45953965187072754,128640152,-0.45953965187072754
128.64365400,128643654,-0.45953965187072754,128643654,-0.45953965187072754
128.64765700,128647657,-0.45953965187072754,128647657,-0.45953965187072754
128.65169100,128651691,-0.45953965187072754,128651691,-0.45953965187072754
128.65568200,128655682,-0.45953965187072754,128655682,-0.45953965187072754
128.65918400,128659184,-0.5361295938491821,128659184,-0.5361295938491821
128.66318700,128663187,-0.45953965187072754,128663187,-0.45953965187072754
128.66720500,128667205,-0.45953965187072754,128667205,-0.45953965187072754
128.67120900,128671209,-0.45953965187072754,128671209,-0.45953965187072754
128.67474000,128674740,-0.45953965187072754,128674740,-0.45953965187072754
128.67873400,128678734,-0.45953965187072754,128678734,-0.45953965187072754
128.68273700,128682737,-0.45953965187072754,128682737,-0.45953965187072754
128.68630000,128686300,-0.5361295938491821,128686300,-0.5361295938491821
128.69027200,128690272,-0.5361295938491821,128690272,-0.5361295938491821
128.69427300,128694273,-0.45953965187072754,128694273,-0.45953965187072754
128.69815500,128698155,-0.5361295938491821,128698155,-0.5361295938491821
128.70215200,128702152,-0.45953965187072754,128702152,-0.45953965187072754
128.70566200,128705662,-0.45953965187072754,128705662,-0.45953965187072754
128.70965100,128709651,-0.45953965187072754,128709651,-0.45953965187072754
128.71365500,128713655,-0.45953965187072754,128713655,-0.45953965187072754
128.71765400,128717654,-0.45953965187072754,128717654,-0.45953965187072754
128.72168900,128721689,-0.5361295938491821,128721689,-0.5361295938491821
128.72517100,128725171,-0.5361295938491821,128725171,-0.5361295938491821
128.72915500,128729155,-0.45953965187072754,128729155,-0.45953965187072754
128.73315300,128733153,-0.5361295938491821,128733153,-0.5361295938491821
128.73715700,128737157,-0.45953965187072754,128737157,-0.45953965187072754
128.74065200,128740652,-0.45953965187072754,128740652,-0.45953965187072754
128.74465300,128744653,-0.45953965187072754,128744653,-0.45953965187072754
128.74865200,128748652,-0.5361295938491821,128748652,-0.5361295938491821
128.75265600,128752656,-0.5361295938491821,128752656,-0.5361295938491821
128.75615500,128756155,-0.45953965187072754,128756155,-0.45953965187072754
128.76015400,128760154,-0.45953965187072754,128760154,-0.45953965187072754
128.76415200,128764152,-0.5361295938491821,128764152,-0.5361295938491821
128.76814900,128768149,-0.45953965187072754,128768149,-0.45953965187072754
128.77168900,128771689,-0.5361295938491821,128771689,-0.5361295938491821
128.77565800,128775658,-0.45953965187072754,128775658,-0.45953965187072754
128.77966200,128779662,-0.45953965187072754,128779662,-0.45953965187072754
128.78366700,128783667,-0.45953965187072754,128783667,-0.45953965187072754
128.78715000,128787150,-0.45953965187072754,128787150,-0.45953965187072754
128.79115300,128791153,-0.45953965187072754,128791153,-0.45953965187072754
128.79515300,128795153,-0.5361295938491821,128795153,-0.5361295938491821
128.79915500,128799155,-0.45953965187072754,128799155,-0.45953965187072754
128.80315800,128803158,-0.5361295938491821,128803158,-0.5361295938491821
128.80671100,128806711,-0.45953965187072754,128806711,-0.45953965187072754
128.81067900,128810679,-0.45953965187072754,128810679,-0.45953965187072754
128.81468600,128814686,-0.45953965187072754,128814686,-0.45953965187072754
128.81820100,128818201,-0.5361295938491821,128818201,-0.5361295938491821
128.82220100,128822201,-0.45953965187072754,128822201,-0.45953965187072754
128.82627600,128826276,-0.45953965187072754,128826276,-0.45953965187072754
128.83024000,128830240,-0.5361295938491821,128830240,-0.5361295938491821
128.83372900,128833729,-0.45953965187072754,128833729,-0.45953965187072754
128.83775200,128837752,-0.5361295938491821,128837752,-0.5361295938491821
128.84178600,128841786,-0.5361295938491821,128841786,-0.5361295938491821
128.84576000,128845760,-0.5361295938491821,128845760,-0.5361295938491821
128.84927600,128849276,-0.5361295938491821,128849276,-0.5361295938491821
128.85315800,128853158,-0.5361295938491821,128853158,-0.5361295938491821
128.85715900,128857159,-0.5361295938491821,128857159,-0.5361295938491821
128.86115300,128861153,-0.5361295938491821,128861153,-0.5361295938491821
128.86515500,128865155,-0.45953965187072754,128865155,-0.45953965187072754
128.86865100,128868651,-0.45953965187072754,128868651,-0.45953965187072754
128.87265300,128872653,-0.5361295938491821,128872653,-0.5361295938491821
128.87982300,128879823,-0.5361295938491821,128879823,-0.5361295938491821
128.88066300,128880663,-0.45953965187072754,128880663,-0.45953965187072754
128.88416200,128884162,-0.45953965187072754,128884162,-0.45953965187072754
128.88815400,128888154,-0.45953965187072754,128888154,-0.45953965187072754
128.89218100,128892181,-0.45953965187072754,128892181,-0.45953965187072754
128.89615600,128896156,-0.45953965187072754,128896156,-0.45953965187072754
128.90015900,128900159,-0.45953965187072754,128900159,-0.45953965187072754
128.90365300,128903653,-0.5361295938491821,128903653,-0.5361295938491821
128.90766100,128907661,-0.45953965187072754,128907661,-0.45953965187072754
128.91165400,128911654,-0.45953965187072754,128911654,-0.45953965187072754
128.91565500,128915655,-0.45953965187072754,128915655,-0.45953965187072754
128.91915000,128919150,-0.45953965187072754,128919150,-0.45953965187072754
128.92315700,128923157,-0.45953965187072754,128923157,-0.45953965187072754
128.92725400,128927254,-0.5361295938491821,128927254,-0.5361295938491821
128.93117100,128931171,-0.45953965187072754,128931171,-0.45953965187072754
128.93465400,128934654,-0.45953965187072754,128934654,-0.45953965187072754
128.93867500,128938675,-0.45953965187072754,128938675,-0.45953965187072754
128.94267100,128942671,-0.5361295938491821,128942671,-0.5361295938491821
128.94667700,128946677,-0.45953965187072754,128946677,-0.45953965187072754
128.95020400,128950204,-0.45953965187072754,128950204,-0.45953965187072754
128.95420700,128954207,-0.45953965187072754,128954207,-0.45953965187072754
128.95825200,128958252,-0.45953965187072754,128958252,-0.45953965187072754
128.96227000,128962270,-0.5361295938491821,128962270,-0.5361295938491821
128.96573700,128965737,-0.45953965187072754,128965737,-0.45953965187072754
128.96976600,128969766,-0.45953965187072754,128969766,-0.45953965187072754
128.97376600,128973766,-0.45953965187072754,128973766,-0.45953965187072754
128.97784000,128977840,-0.45953965187072754,128977840,-0.45953965187072754
128.98166000,128981660,-0.45953965187072754,128981660,-0.45953965187072754
128.98515700,128985157,-0.45953965187072754,128985157,-0.45953965187072754
128.98915600,128989156,-0.45953965187072754,128989156,-0.45953965187072754
128.99315900,128993159,-0.45953965187072754,128993159,-0.45953965187072754
128.99718100,128997181,-0.5361295938491821,128997181,-0.5361295938491821
129.00065200,129000652,-0.45953965187072754,129000652,-0.45953965187072754
129.00465400,129004654,-0.45953965187072754,129004654,-0.45953965187072754
129.00865200,129008652,-0.45953965187072754,129008652,-0.45953965187072754
129.01265000,129012650,-0.5361295938491821,129012650,-0.5361295938491821
129.01615000,129016150,-0.5361295938491821,129016150,-0.5361295938491821
129.02016000,129020160,-0.45953965187072754,129020160,-0.45953965187072754
129.02415100,129024151,-0.5361295938491821,129024151,-0.5361295938491821
129.02815500,129028155,-0.5361295938491821,129028155,-0.5361295938491821
129.03165600,129031656,-0.45953965187072754,129031656,-0.45953965187072754
129.03565500,129035655,-0.5361295938491821,129035655,-0.5361295938491821
129.03965100,129039651,-0.45953965187072754,129039651,-0.45953965187072754
129.04365900,129043659,-0.45953965187072754,129043659,-0.45953965187072754
129.04718000,129047180,-0.45953965187072754,129047180,-0.45953965187072754
129.05115400,129051154,-0.5361295938491821,129051154,-0.5361295938491821
129.05516500,129055165,-0.5361295938491821,129055165,-0.5361295938491821
129.05918900,129059189,-0.45953965187072754,129059189,-0.45953965187072754
129.06269100,129062691,-0.45953965187072754,129062691,-0.45953965187072754
129.06668000,129066680,-0.45953965187072754,129066680,-0.45953965187072754
129.07071600,129070716,-0.5361295938491821,129070716,-0.5361295938491821
129.07470700,129074707,-0.45953965187072754,129074707,-0.45953965187072754
129.07821700,129078217,-0.5361295938491821,129078217,-0.5361295938491821
129.08226200,129082262,-0.45953965187072754,129082262,-0.45953965187072754
129.08623300,129086233,-0.5361295938491821,129086233,-0.5361295938491821
129.09026200,129090262,-0.5361295938491821,129090262,-0.5361295938491821
129.09376600,129093766,-0.5361295938491821,129093766,-0.5361295938491821
129.09776600,129097766,-0.5361295938491821,129097766,-0.5361295938491821
129.10165100,129101651,-0.45953965187072754,129101651,-0.45953965187072754
129.10565500,129105655,-0.5361295938491821,129105655,-0.5361295938491821
129.10965400,129109654,-0.45953965187072754,129109654,-0.45953965187072754
129.11315900,129113159,-0.5361295938491821,129113159,-0.5361295938491821
129.11715400,129117154,-0.45953965187072754,129117154,-0.45953965187072754
129.12116600,129121166,-0.45953965187072754,129121166,-0.45953965187072754
129.12515500,129125155,-0.45953965187072754,129125155,-0.45953965187072754
129.12866100,129128661,-0.45953965187072754,129128661,-0.45953965187072754
129.13268300,129132683,-0.45953965187072754,129132683,-0.45953965187072754
129.13666400,129136664,-0.5361295938491821,129136664,-0.5361295938491821
129.14065100,129140651,-0.5361295938491821,129140651,-0.5361295938491821
129.14465600,129144656,-0.45953965187072754,129144656,-0.45953965187072754
129.14815800,129148158,-0.45953965187072754,129148158,-0.45953965187072754
129.15215200,129152152,-0.5361295938491821,129152152,-0.5361295938491821
129.15615100,129156151,-0.45953965187072754,129156151,-0.45953965187072754
129.16016000,129160160,-0.45953965187072754,129160160,-0.45953965187072754
129.16365800,129163658,-0.5361295938491821,129163658,-0.5361295938491821
129.16767700,129167677,-0.5361295938491821,129167677,-0.5361295938491821
129.17166300,129171663,-0.5361295938491821,129171663,-0.5361295938491821
129.17566000,129175660,-0.45953965187072754,129175660,-0.45953965187072754
129.17915300,129179153,-0.45953965187072754,129179153,-0.45953965187072754
129.18315600,129183156,-0.45953965187072754,129183156,-0.45953965187072754
129.18715200,129187152,-0.45953965187072754,129187152,-0.45953965187072754
129.19115500,129191155,-0.45953965187072754,129191155,-0.45953965187072754
129.19466100,129194661,-0.45953965187072754,129194661,-0.45953965187072754
129.19865500,129198655,-0.45953965187072754,129198655,-0.45953965187072754
129.20269900,129202699,-0.45953965187072754,129202699,-0.45953965187072754
129.20666500,129206665,-0.5361295938491821,129206665,-0.5361295938491821
129.21016800,129210168,-0.5361295938491821,129210168,-0.5361295938491821
129.21419200,129214192,-0.45953965187072754,129214192,-0.45953965187072754
129.21819000,129218190,-0.5361295938491821,129218190,-0.5361295938491821
129.22222200,129222222,-0.5361295938491821,129222222,-0.5361295938491821
129.22572100,129225721,-0.45953965187072754,129225721,-0.45953965187072754
129.22972000,129229720,-0.45953965187072754,129229720,-0.45953965187072754
129.23374300,129233743,-0.45953965187072754,129233743,-0.45953965187072754
129.23777500,129237775,-0.45953965187072754,129237775,-0.45953965187072754
129.24127600,129241276,-0.45953965187072754,129241276,-0.45953965187072754
129.24526800,129245268,-0.5361295938491821,129245268,-0.5361295938491821
129.24926900,129249269,-0.45953965187072754,129249269,-0.45953965187072754
129.25315300,129253153,-0.45953965187072754,129253153,-0.45953965187072754
129.25715200,129257152,-0.5361295938491821,129257152,-0.5361295938491821
129.26065900,129260659,-0.45953965187072754,129260659,-0.45953965187072754
129.26465800,129264658,-0.45953965187072754,129264658,-0.45953965187072754
129.26865600,129268656,-0.45953965187072754,129268656,-0.45953965187072754
129.27268500,129272685,-0.5361295938491821,129272685,-0.5361295938491821
129.27615200,129276152,-0.5361295938491821,129276152,-0.5361295938491821
129.28015200,129280152,-0.45953965187072754,129280152,-0.45953965187072754
129.28414900,129284149,-0.45953965187072754,129284149,-0.45953965187072754
129.28816100,129288161,-0.45953965187072754,129288161,-0.45953965187072754
129.29166000,129291660,-0.45953965187072754,129291660,-0.45953965187072754
129.29565500,129295655,-0.5361295938491821,129295655,-0.5361295938491821
129.29965600,129299656,-0.45953965187072754,129299656,-0.45953965187072754
129.30365500,129303655,-0.5361295938491821,129303655,-0.5361295938491821
129.30715400,129307154,-0.5361295938491821,129307154,-0.5361295938491821
129.31115300,129311153,-0.5361295938491821,129311153,-0.5361295938491821
129.31515800,129315158,-0.45953965187072754,129315158,-0.45953965187072754
129.31915400,129319154,-0.5361295938491821,129319154,-0.5361295938491821
129.32265200,129322652,-0.5361295938491821,129322652,-0.5361295938491821
129.32665300,129326653,-0.5361295938491821,129326653,-0.5361295938491821
129.33066500,129330665,-0.5361295938491821,129330665,-0.5361295938491821
129.33465200,129334652,-0.45953965187072754,129334652,-0.45953965187072754
129.33818000,129338180,-0.45953965187072754,129338180,-0.45953965187072754
129.34225600,129342256,-0.5361295938491821,129342256,-0.5361295938491821
129.34617200,129346172,-0.45953965187072754,129346172,-0.45953965187072754
129.35017600,129350176,-0.5361295938491821,129350176,-0.5361295938491821
129.35369600,129353696,-0.5361295938491821,129353696,-0.5361295938491821
129.35769700,129357697,-0.5361295938491821,129357697,-0.5361295938491821
129.36169500,129361695,-0.45953965187072754,129361695,-0.45953965187072754
129.36572200,129365722,-0.45953965187072754,129365722,-0.45953965187072754
129.36923100,129369231,-0.5361295938491821,129369231,-0.5361295938491821
129.37327700,129373277,-0.45953965187072754,129373277,-0.45953965187072754
129.37724800,129377248,-0.45953965187072754,129377248,-0.45953965187072754
129.38125100,129381251,-0.45953965187072754,129381251,-0.45953965187072754
129.38477400,129384774,-0.45953965187072754,129384774,-0.45953965187072754
129.38877500,129388775,-0.45953965187072754,129388775,-0.45953965187072754
129.39267100,129392671,-0.45953965187072754,129392671,-0.45953965187072754
129.39665600,129396656,-0.45953965187072754,129396656,-0.45953965187072754
129.40066000,129400660,-0.5361295938491821,129400660,-0.5361295938491821
129.40415600,129404156,-0.5361295938491821,129404156,-0.5361295938491821
129.40819300,129408193,-0.5361295938491821,129408193,-0.5361295938491821
129.41216300,129412163,-0.45953965187072754,129412163,-0.45953965187072754
129.41615300,129416153,-0.45953965187072754,129416153,-0.45953965187072754
129.42015500,129420155,-0.45953965187072754,129420155,-0.45953965187072754
129.42366000,129423660,-0.45953965187072754,129423660,-0.45953965187072754
129.42765700,129427657,-0.5361295938491821,129427657,-0.5361295938491821
129.43165000,129431650,-0.45953965187072754,129431650,-0.45953965187072754
129.43565100,129435651,-0.5361295938491821,129435651,-0.5361295938491821
129.43915100,129439151,-0.5361295938491821,129439151,-0.5361295938491821
129.44319900,129443199,-0.45953965187072754,129443199,-0.45953965187072754
129.44715500,129447155,-0.5361295938491821,129447155,-0.5361295938491821
129.45115900,129451159,-0.5361295938491821,129451159,-0.5361295938491821
129.45465800,129454658,-0.5361295938491821,129454658,-0.5361295938491821
129.45866600,129458666,-0.45953965187072754,129458666,-0.45953965187072754
129.46265700,129462657,-0.5361295938491821,129462657,-0.5361295938491821
129.46665600,129466656,-0.5361295938491821,129466656,-0.5361295938491821
129.47015300,129470153,-0.45953965187072754,129470153,-0.45953965187072754
129.47415600,129474156,-0.5361295938491821,129474156,-0.5361295938491821
129.47824300,129478243,-0.5361295938491821,129478243,-0.5361295938491821
129.48565300,129485653,-0.45953965187072754,129485653,-0.45953965187072754
129.49368900,129493689,-0.45953965187072754,129493689,-0.45953965187072754
129.50165500,129501655,-0.45953965187072754,129501655,-0.45953965187072754
129.50916800,129509168,-0.45953965187072754,129509168,-0.45953965187072754
129.51669300,129516693,-0.45953965187072754,129516693,-0.45953965187072754
129.52472400,129524724,-0.45953965187072754,129524724,-0.45953965187072754
129.53221900,129532219,-0.45953965187072754,129532219,-0.45953965187072754
129.54025200,129540252,-0.45953965187072754,129540252,-0.45953965187072754
129.54776400,129547764,-0.45953965187072754,129547764,-0.45953965187072754
129.55565100,129555651,-0.45953965187072754,129555651,-0.45953965187072754
129.56365300,129563653,-0.45953965187072754,129563653,-0.45953965187072754
129.57115900,129571159,-0.5361295938491821,129571159,-0.5361295938491821
129.57915500,129579155,-0.5361295938491821,129579155,-0.5361295938491821
129.58665400,129586654,-0.45953965187072754,129586654,-0.45953965187072754
129.59465700,129594657,-0.45953965187072754,129594657,-0.45953965187072754
129.60215000,129602150,-0.45953965187072754,129602150,-0.45953965187072754
129.61015600,129610156,-0.45953965187072754,129610156,-0.45953965187072754
129.61764900,129617649,-0.5361295938491821,129617649,-0.5361295938491821
129.62565600,129625656,-0.5361295938491821,129625656,-0.5361295938491821
129.63315100,129633151,-0.45953965187072754,129633151,-0.45953965187072754
129.64114900,129641149,-0.45953965187072754,129641149,-0.45953965187072754
129.64867900,129648679,-0.45953965187072754,129648679,-0.45953965187072754
129.65667000,129656670,-0.5361295938491821,129656670,-0.5361295938491821
129.66416500,129664165,-0.45953965187072754,129664165,-0.45953965187072754
129.67219200,129672192,-0.45953965187072754,129672192,-0.45953965187072754
129.67971000,129679710,-0.45953965187072754,129679710,-0.45953965187072754
129.68773400,129687734,-0.45953965187072754,129687734,-0.45953965187072754
129.69523600,129695236,-0.45953965187072754,129695236,-0.45953965187072754
129.70326200,129703262,-0.45953965187072754,129703262,-0.45953965187072754
129.71115300,129711153,-0.45953965187072754,129711153,-0.45953965187072754
129.71868400,129718684,-0.45953965187072754,129718684,-0.45953965187072754
129.72665800,129726658,-0.5361295938491821,129726658,-0.5361295938491821
129.73415100,129734151,-0.45953965187072754,129734151,-0.45953965187072754
129.74215000,129742150,-0.45953965187072754,129742150,-0.45953965187072754
129.74965300,129749653,-0.45953965187072754,129749653,-0.45953965187072754
129.75765100,129757651,-0.5361295938491821,129757651,-0.5361295938491821
129.76515500,129765155,-0.5361295938491821,129765155,-0.5361295938491821
129.77315800,129773158,-0.45953965187072754,129773158,-0.45953965187072754
129.78065400,129780654,-0.5361295938491821,129780654,-0.5361295938491821
129.78865600,129788656,-0.5361295938491821,129788656,-0.5361295938491821
129.79616100,129796161,-0.5361295938491821,129796161,-0.5361295938491821
129.80414900,129804149,-0.45953965187072754,129804149,-0.45953965187072754
129.81166800,129811668,-0.45953965187072754,129811668,-0.45953965187072754
129.81968600,129819686,-0.5361295938491821,129819686,-0.5361295938491821
129.82731600,129827316,-0.45953965187072754,129827316,-0.45953965187072754
129.83521400,129835214,-0.5361295938491821,129835214,-0.5361295938491821
129.84273800,129842738,-0.45953965187072754,129842738,-0.45953965187072754
129.85076000,129850760,-0.45953965187072754,129850760,-0.45953965187072754
129.85866500,129858665,-0.45953965187072754,129858665,-0.45953965187072754
129.86615200,129866152,-0.45953965187072754,129866152,-0.45953965187072754
129.87415200,129874152,-0.45953965187072754,129874152,-0.45953965187072754
129.88165400,129881654,-0.5361295938491821,129881654,-0.5361295938491821
129.88966400,129889664,-0.45953965187072754,129889664,-0.45953965187072754
129.89715300,129897153,-0.5361295938491821,129897153,-0.5361295938491821
129.90515000,129905150,-0.5361295938491821,129905150,-0.5361295938491821
129.91265200,129912652,-0.45953965187072754,129912652,-0.45953965187072754
129.92065300,129920653,-0.5361295938491821,129920653,-0.5361295938491821
129.92815500,129928155,-0.5361295938491821,129928155,-0.5361295938491821
129.93616400,129936164,-0.45953965187072754,129936164,-0.45953965187072754
129.94365400,129943654,-0.5361295938491821,129943654,-0.5361295938491821
129.95165100,129951651,-0.45953965187072754,129951651,-0.45953965187072754
129.95919900,129959199,-0.45953965187072754,129959199,-0.45953965187072754
129.96716400,129967164,-0.45953965187072754,129967164,-0.45953965187072754
129.97468300,129974683,-0.45953965187072754,129974683,-0.45953965187072754
129.98270700,129982707,-0.45953965187072754,129982707,-0.45953965187072754
129.99023800,129990238,-0.45953965187072754,129990238,-0.45953965187072754
129.99823600,129998236,-0.45953965187072754,129998236,-0.45953965187072754
130.00575100,130005751,-0.45953965187072754,130005751,-0.45953965187072754
130.01365300,130013653,-0.45953965187072754,130013653,-0.45953965187072754
130.02165300,130021653,-0.45953965187072754,130021653,-0.45953965187072754
130.02915400,130029154,-0.5361295938491821,130029154,-0.5361295938491821
130.03715600,130037156,-0.5361295938491821,130037156,-0.5361295938491821
130.04465900,130044659,-0.45953965187072754,130044659,-0.45953965187072754
130.05265100,130052651,-0.45953965187072754,130052651,-0.45953965187072754
130.06015700,130060157,-0.45953965187072754,130060157,-0.45953965187072754
130.06816600,130068166,-0.45953965187072754,130068166,-0.45953965187072754
130.07565000,130075650,-0.45953965187072754,130075650,-0.45953965187072754
130.08365100,130083651,-0.5361295938491821,130083651,-0.5361295938491821
130.09115300,130091153,-0.45953965187072754,130091153,-0.45953965187072754
130.09915800,130099158,-0.45953965187072754,130099158,-0.45953965187072754
130.10665500,130106655,-0.45953965187072754,130106655,-0.45953965187072754
130.11465700,130114657,-0.45953965187072754,130114657,-0.45953965187072754
130.12217900,130122179,-0.45953965187072754,130122179,-0.45953965187072754
130.13018800,130130188,-0.45953965187072754,130130188,-0.45953965187072754
130.13771000,130137710,-0.45953965187072754,130137710,-0.45953965187072754
130.14573700,130145737,-0.45953965187072754,130145737,-0.45953965187072754
130.15325800,130153258,-0.5361295938491821,130153258,-0.5361295938491821
130.16134700,130161347,-0.5361295938491821,130161347,-0.5361295938491821
130.16865500,130168655,-0.45953965187072754,130168655,-0.45953965187072754
130.17665300,130176653,-0.45953965187072754,130176653,-0.45953965187072754
130.18465100,130184651,-0.45953965187072754,130184651,-0.45953965187072754
130.19215300,130192153,-0.45953965187072754,130192153,-0.45953965187072754
130.20016200,130200162,-0.5361295938491821,130200162,-0.5361295938491821
130.20765100,130207651,-0.5361295938491821,130207651,-0.5361295938491821
130.21565700,130215657,-0.45953965187072754,130215657,-0.45953965187072754
130.22315200,130223152,-0.5361295938491821,130223152,-0.5361295938491821
130.23116500,130231165,-0.5361295938491821,130231165,-0.5361295938491821
130.23865000,130238650,-0.45953965187072754,130238650,-0.45953965187072754
130.24665100,130246651,-0.45953965187072754,130246651,-0.45953965187072754
130.25415600,130254156,-0.5361295938491821,130254156,-0.5361295938491821
130.26221400,130262214,-0.5361295938491821,130262214,-0.5361295938491821
130.26965200,130269652,-0.45953965187072754,130269652,-0.45953965187072754
130.27768500,130277685,-0.45953965187072754,130277685,-0.45953965187072754
130.28521000,130285210,-0.45953965187072754,130285210,-0.45953965187072754
130.29324500,130293245,-0.45953965187072754,130293245,-0.45953965187072754
130.30076200,130300762,-0.45953965187072754,130300762,-0.45953965187072754
130.30877000,130308770,-0.5361295938491821,130308770,-0.5361295938491821
130.31615200,130316152,-0.45953965187072754,130316152,-0.45953965187072754
130.32415300,130324153,-0.45953965187072754,130324153,-0.45953965187072754
130.33165100,130331651,-0.45953965187072754,130331651,-0.45953965187072754
130.33965000,130339650,-0.45953965187072754,130339650,-0.45953965187072754
130.34765200,130347652,-0.45953965187072754,130347652,-0.45953965187072754
130.35515200,130355152,-0.45953965187072754,130355152,-0.45953965187072754
130.36315500,130363155,-0.5361295938491821,130363155,-0.5361295938491821
130.37065500,130370655,-0.45953965187072754,130370655,-0.45953965187072754
130.37865200,130378652,-0.45953965187072754,130378652,-0.45953965187072754
130.38615800,130386158,-0.45953965187072754,130386158,-0.45953965187072754
130.39415700,130394157,-0.5361295938491821,130394157,-0.5361295938491821
130.40165300,130401653,-0.5361295938491821,130401653,-0.5361295938491821
130.40965100,130409651,-0.45953965187072754,130409651,-0.45953965187072754
130.41715800,130417158,-0.5361295938491821,130417158,-0.5361295938491821
130.42517300,130425173,-0.45953965187072754,130425173,-0.45953965187072754
130.43267100,130432671,-0.45953965187072754,130432671,-0.45953965187072754
130.44069900,130440699,-0.5361295938491821,130440699,-0.5361295938491821
130.44820900,130448209,-0.45953965187072754,130448209,-0.45953965187072754
130.45624500,130456245,-0.45953965187072754,130456245,-0.45953965187072754
130.46374300,130463743,-0.45953965187072754,130463743,-0.45953965187072754
130.47176900,130471769,-0.45953965187072754,130471769,-0.45953965187072754
130.47915200,130479152,-0.45953965187072754,130479152,-0.45953965187072754
130.48715400,130487154,-0.45953965187072754,130487154,-0.45953965187072754
130.49465000,130494650,-0.5361295938491821,130494650,-0.5361295938491821
130.50264900,130502649,-0.45953965187072754,130502649,-0.45953965187072754
130.51015200,130510152,-0.5361295938491821,130510152,-0.5361295938491821
130.51816200,130518162,-0.5361295938491821,130518162,-0.5361295938491821
130.52615200,130526152,-0.45953965187072754,130526152,-0.45953965187072754
130.53365300,130533653,-0.45953965187072754,130533653,-0.45953965187072754
130.54165000,130541650,-0.45953965187072754,130541650,-0.45953965187072754
130.54915300,130549153,-0.5361295938491821,130549153,-0.5361295938491821
130.55716100,130557161,-0.45953965187072754,130557161,-0.45953965187072754
130.56465400,130564654,-0.45953965187072754,130564654,-0.45953965187072754
130.57265000,130572650,-0.45953965187072754,130572650,-0.45953965187072754
130.58016400,130580164,-0.5361295938491821,130580164,-0.5361295938491821
130.58819000,130588190,-0.5361295938491821,130588190,-0.5361295938491821
130.59570100,130595701,-0.45953965187072754,130595701,-0.45953965187072754
130.60372000,130603720,-0.5361295938491821,130603720,-0.5361295938491821
130.61124300,130611243,-0.45953965187072754,130611243,-0.45953965187072754
130.61927300,130619273,-0.45953965187072754,130619273,-0.45953965187072754
130.62666000,130626660,-0.45953965187072754,130626660,-0.45953965187072754
130.63465300,130634653,-0.5361295938491821,130634653,-0.5361295938491821
130.64215300,130642153,-0.5361295938491821,130642153,-0.5361295938491821
130.65015400,130650154,-0.45953965187072754,130650154,-0.45953965187072754
130.65765000,130657650,-0.45953965187072754,130657650,-0.45953965187072754
130.66565100,130665651,-0.45953965187072754,130665651,-0.45953965187072754
130.67315100,130673151,-0.45953965187072754,130673151,-0.45953965187072754
130.68118400,130681184,-0.45953965187072754,130681184,-0.45953965187072754
130.68915200,130689152,-0.45953965187072754,130689152,-0.45953965187072754
130.69665000,130696650,-0.45953965187072754,130696650,-0.45953965187072754
130.70465300,130704653,-0.45953965187072754,130704653,-0.45953965187072754
130.71215500,130712155,-0.45953965187072754,130712155,-0.45953965187072754
130.72015000,130720150,-0.45953965187072754,130720150,-0.45953965187072754
130.72770400,130727704,-0.45953965187072754,130727704,-0.45953965187072754
130.73566100,130735661,-0.45953965187072754,130735661,-0.45953965187072754
130.74318600,130743186,-0.45953965187072754,130743186,-0.45953965187072754
130.75123300,130751233,-0.45953965187072754,130751233,-0.45953965187072754
130.75873700,130758737,-0.45953965187072754,130758737,-0.45953965187072754
130.76673300,130766733,-0.45953965187072754,130766733,-0.45953965187072754
130.77426800,130774268,-0.5361295938491821,130774268,-0.5361295938491821
130.78215100,130782151,-0.45953965187072754,130782151,-0.45953965187072754
130.78965600,130789656,-0.45953965187072754,130789656,-0.45953965187072754
130.79765300,130797653,-0.45953965187072754,130797653,-0.45953965187072754
130.80515400,130805154,-0.45953965187072754,130805154,-0.45953965187072754
130.81315500,130813155,-0.45953965187072754,130813155,-0.45953965187072754
130.82065100,130820651,-0.45953965187072754,130820651,-0.45953965187072754
130.82867100,130828671,-0.45953965187072754,130828671,-0.45953965187072754
130.83615700,130836157,-0.45953965187072754,130836157,-0.45953965187072754
130.84415400,130844154,-0.5361295938491821,130844154,-0.5361295938491821
130.85165300,130851653,-0.45953965187072754,130851653,-0.45953965187072754
130.85966300,130859663,-0.45953965187072754,130859663,-0.45953965187072754
130.86765400,130867654,-0.45953965187072754,130867654,-0.45953965187072754
130.87515600,130875156,-0.5361295938491821,130875156,-0.5361295938491821
130.88316200,130883162,-0.5361295938491821,130883162,-0.5361295938491821
130.89068200,130890682,-0.45953965187072754,130890682,-0.45953965187072754
130.89867800,130898678,-0.5361295938491821,130898678,-0.5361295938491821
130.90621500,130906215,-0.45953965187072754,130906215,-0.45953965187072754
130.91423300,130914233,-0.5361295938491821,130914233,-0.5361295938491821
130.92176200,130921762,-0.45953965187072754,130921762,-0.45953965187072754
130.92984500,130929845,-0.5361295938491821,130929845,-0.5361295938491821
130.93715700,130937157,-0.5361295938491821,130937157,-0.5361295938491821
130.94515500,130945155,-0.45953965187072754,130945155,-0.45953965187072754
130.95265500,130952655,-0.5361295938491821,130952655,-0.5361295938491821
130.96066000,130960660,-0.45953965187072754,130960660,-0.45953965187072754
130.96815200,130968152,-0.45953965187072754,130968152,-0.45953965187072754
130.97615100,130976151,-0.45953965187072754,130976151,-0.45953965187072754
130.98365400,130983654,-0.45953965187072754,130983654,-0.45953965187072754
130.99168200,130991682,-0.45953965187072754,130991682,-0.45953965187072754
130.99915300,130999153,-0.45953965187072754,130999153,-0.45953965187072754
131.00721200,131007212,-0.45953965187072754,131007212,-0.45953965187072754
131.01465300,131014653,-0.5361295938491821,131014653,-0.5361295938491821
131.02265200,131022652,-0.45953965187072754,131022652,-0.45953965187072754
131.03075000,131030750,-0.45953965187072754,131030750,-0.45953965187072754
131.03817300,131038173,-0.45953965187072754,131038173,-0.45953965187072754
131.04569600,131045696,-0.45953965187072754,131045696,-0.45953965187072754
131.05372900,131053729,-0.45953965187072754,131053729,-0.45953965187072754
131.06129700,131061297,-0.5361295938491821,131061297,-0.5361295938491821
131.06925800,131069258,-0.5361295938491821,131069258,-0.5361295938491821
131.07715300,131077153,-0.45953965187072754,131077153,-0.45953965187072754
131.08465400,131084654,-0.45953965187072754,131084654,-0.45953965187072754
131.09265700,131092657,-0.45953965187072754,131092657,-0.45953965187072754
131.10015600,131100156,-0.45953965187072754,131100156,-0.45953965187072754
131.10815300,131108153,-0.5361295938491821,131108153,-0.5361295938491821
131.11565400,131115654,-0.5361295938491821,131115654,-0.5361295938491821
131.12365200,131123652,-0.45953965187072754,131123652,-0.45953965187072754
131.13115300,131131153,-0.45953965187072754,131131153,-0.45953965187072754
131.13915200,131139152,-0.45953965187072754,131139152,-0.45953965187072754
131.14665400,131146654,-0.5361295938491821,131146654,-0.5361295938491821
131.15466000,131154660,-0.45953965187072754,131154660,-0.45953965187072754
131.16225900,131162259,-0.45953965187072754,131162259,-0.45953965187072754
131.17018600,131170186,-0.45953965187072754,131170186,-0.45953965187072754
131.17771900,131177719,-0.45953965187072754,131177719,-0.45953965187072754
131.18574900,131185749,-0.45953965187072754,131185749,-0.45953965187072754
131.19369600,131193696,-0.45953965187072754,131193696,-0.45953965187072754
131.20115300,131201153,-0.5361295938491821,131201153,-0.5361295938491821
131.20916000,131209160,-0.45953965187072754,131209160,-0.45953965187072754
131.21665300,131216653,-0.45953965187072754,131216653,-0.45953965187072754
131.22465200,131224652,-0.45953965187072754,131224652,-0.45953965187072754
131.23224600,131232246,-0.5361295938491821,131232246,-0.5361295938491821
131.24015100,131240151,-0.45953965187072754,131240151,-0.45953965187072754
131.24765300,131247653,-0.45953965187072754,131247653,-0.45953965187072754
131.25565400,131255654,-0.5361295938491821,131255654,-0.5361295938491821
131.26316000,131263160,-0.45953965187072754,131263160,-0.45953965187072754
131.27115700,131271157,-0.5361295938491821,131271157,-0.5361295938491821
131.27865700,131278657,-0.45953965187072754,131278657,-0.45953965187072754
131.28665100,131286651,-0.45953965187072754,131286651,-0.45953965187072754
131.29416100,131294161,-0.45953965187072754,131294161,-0.45953965187072754
131.30217700,131302177,-0.45953965187072754,131302177,-0.45953965187072754
131.30966700,131309667,-0.45953965187072754,131309667,-0.45953965187072754
131.31768800,131317688,-0.45953965187072754,131317688,-0.45953965187072754
131.32522500,131325225,-0.5361295938491821,131325225,-0.5361295938491821
131.33323200,131333232,-0.45953965187072754,131333232,-0.45953965187072754
131.34075300,131340753,-0.5361295938491821,131340753,-0.5361295938491821
131.34865400,131348654,-0.45953965187072754,131348654,-0.45953965187072754
131.35615700,131356157,-0.45953965187072754,131356157,-0.45953965187072754
131.36415700,131364157,-0.45953965187072754,131364157,-0.45953965187072754
131.37216600,131372166,-0.45953965187072754,131372166,-0.45953965187072754
131.37965500,131379655,-0.45953965187072754,131379655,-0.45953965187072754
131.38765800,131387658,-0.45953965187072754,131387658,-0.45953965187072754
131.39515700,131395157,-0.5361295938491821,131395157,-0.5361295938491821
131.40315800,131403158,-0.45953965187072754,131403158,-0.45953965187072754
131.41065400,131410654,-0.45953965187072754,131410654,-0.45953965187072754
131.41865300,131418653,-0.45953965187072754,131418653,-0.45953965187072754
131.42615300,131426153,-0.45953965187072754,131426153,-0.45953965187072754
131.43415800,131434158,-0.5361295938491821,131434158,-0.5361295938491821
131.44165500,131441655,-0.45953965187072754,131441655,-0.45953965187072754
131.44966500,131449665,-0.45953965187072754,131449665,-0.45953965187072754
131.45718800,131457188,-0.45953965187072754,131457188,-0.45953965187072754
131.46519200,131465192,-0.45953965187072754,131465192,-0.45953965187072754
131.47276400,131472764,-0.45953965187072754,131472764,-0.45953965187072754
131.48074000,131480740,-0.45953965187072754,131480740,-0.45953965187072754
131.48827000,131488270,-0.45953965187072754,131488270,-0.45953965187072754
131.49635000,131496350,-0.45953965187072754,131496350,-0.45953965187072754
131.50365700,131503657,-0.45953965187072754,131503657,-0.45953965187072754
131.51165200,131511652,-0.5361295938491821,131511652,-0.5361295938491821
131.51915500,131519155,-0.45953965187072754,131519155,-0.45953965187072754
131.52718900,131527189,-0.45953965187072754,131527189,-0.45953965187072754
131.53516200,131535162,-0.45953965187072754,131535162,-0.45953965187072754
131.54267900,131542679,-0.45953965187072754,131542679,-0.45953965187072754
131.55066300,131550663,-0.45953965187072754,131550663,-0.45953965187072754
131.55815400,131558154,-0.45953965187072754,131558154,-0.45953965187072754
131.56615300,131566153,-0.5361295938491821,131566153,-0.5361295938491821
131.57365600,131573656,-0.45953965187072754,131573656,-0.45953965187072754
131.58165000,131581650,-0.45953965187072754,131581650,-0.45953965187072754
131.58915600,131589156,-0.45953965187072754,131589156,-0.45953965187072754
131.59720900,131597209,-0.45953965187072754,131597209,-0.45953965187072754
131.60465500,131604655,-0.5361295938491821,131604655,-0.5361295938491821
131.61268000,131612680,-0.45953965187072754,131612680,-0.45953965187072754
131.62020500,131620205,-0.45953965187072754,131620205,-0.45953965187072754
131.62823800,131628238,-0.45953965187072754,131628238,-0.45953965187072754
131.63573600,131635736,-0.5361295938491821,131635736,-0.5361295938491821
131.64375600,131643756,-0.45953965187072754,131643756,-0.45953965187072754
131.65115200,131651152,-0.45953965187072754,131651152,-0.45953965187072754
131.65915200,131659152,-0.5361295938491821,131659152,-0.5361295938491821
131.66665300,131666653,-0.45953965187072754,131666653,-0.45953965187072754
131.67465700,131674657,-0.45953965187072754,131674657,-0.45953965187072754
131.68215500,131682155,-0.45953965187072754,131682155,-0.45953965187072754
131.69015200,131690152,-0.45953965187072754,131690152,-0.45953965187072754
131.69815400,131698154,-0.5361295938491821,131698154,-0.5361295938491821
131.70565400,131705654,-0.5361295938491821,131705654,-0.5361295938491821
131.71365500,131713655,-0.45953965187072754,131713655,-0.45953965187072754
131.72115500,131721155,-0.45953965187072754,131721155,-0.45953965187072754
131.72916600,131729166,-0.45953965187072754,131729166,-0.45953965187072754
131.73665000,131736650,-0.45953965187072754,131736650,-0.45953965187072754
131.74465200,131744652,-0.45953965187072754,131744652,-0.45953965187072754
131.75215300,131752153,-0.45953965187072754,131752153,-0.45953965187072754
131.76015800,131760158,-0.45953965187072754,131760158,-0.45953965187072754
131.76765200,131767652,-0.45953965187072754,131767652,-0.45953965187072754
131.77567700,131775677,-0.45953965187072754,131775677,-0.45953965187072754
131.78323400,131783234,-0.5361295938491821,131783234,-0.5361295938491821
131.79123500,131791235,-0.45953965187072754,131791235,-0.45953965187072754
131.79873900,131798739,-0.5361295938491821,131798739,-0.5361295938491821
131.80675500,131806755,-0.45953965187072754,131806755,-0.45953965187072754
131.81415000,131814150,-0.45953965187072754,131814150,-0.45953965187072754
131.82215300,131822153,-0.45953965187072754,131822153,-0.45953965187072754
131.82965300,131829653,-0.5361295938491821,131829653,-0.5361295938491821
131.83766100,131837661,-0.45953965187072754,131837661,-0.45953965187072754
131.84515100,131845151,-0.45953965187072754,131845151,-0.45953965187072754
131.85315400,131853154,-0.45953965187072754,131853154,-0.45953965187072754
131.86115500,131861155,-0.45953965187072754,131861155,-0.45953965187072754
131.86865100,131868651,-0.45953965187072754,131868651,-0.45953965187072754
131.87665400,131876654,-0.5361295938491821,131876654,-0.5361295938491821
131.88415700,131884157,-0.45953965187072754,131884157,-0.45953965187072754
131.89215200,131892152,-0.45953965187072754,131892152,-0.45953965187072754
131.89965400,131899654,-0.45953965187072754,131899654,-0.45953965187072754
131.90765300,131907653,-0.5361295938491821,131907653,-0.5361295938491821
131.91516400,131915164,-0.45953965187072754,131915164,-0.45953965187072754
131.92319300,131923193,-0.5361295938491821,131923193,-0.5361295938491821
131.93070300,131930703,-0.45953965187072754,131930703,-0.45953965187072754
131.93871900,131938719,-0.5361295938491821,131938719,-0.5361295938491821
131.94625600,131946256,-0.45953965187072754,131946256,-0.45953965187072754
131.95426900,131954269,-0.45953965187072754,131954269,-0.45953965187072754
131.96165600,131961656,-0.45953965187072754,131961656,-0.45953965187072754
131.96965600,131969656,-0.45953965187072754,131969656,-0.45953965187072754
131.97716000,131977160,-0.5361295938491821,131977160,-0.5361295938491821
131.98515700,131985157,-0.45953965187072754,131985157,-0.45953965187072754
131.99265300,131992653,-0.5361295938491821,131992653,-0.5361295938491821
132.00065700,132000657,-0.45953965187072754,132000657,-0.45953965187072754
132.00815100,132008151,-0.45953965187072754,132008151,-0.45953965187072754
132.01615100,132016151,-0.45953965187072754,132016151,-0.45953965187072754
132.02367900,132023679,-0.5361295938491821,132023679,-0.5361295938491821
132.03166300,132031663,-0.5361295938491821,132031663,-0.5361295938491821
132.03965300,132039653,-0.5361295938491821,132039653,-0.5361295938491821
132.04715500,132047155,-0.45953965187072754,132047155,-0.45953965187072754
132.05515400,132055154,-0.45953965187072754,132055154,-0.45953965187072754
132.06276100,132062761,-0.45953965187072754,132062761,-0.45953965187072754
132.07068000,132070680,-0.5361295938491821,132070680,-0.5361295938491821
132.07820300,132078203,-0.45953965187072754,132078203,-0.45953965187072754
132.08623900,132086239,-0.5361295938491821,132086239,-0.5361295938491821
132.09375400,132093754,-0.5361295938491821,132093754,-0.5361295938491821
132.10174900,132101749,-0.45953965187072754,132101749,-0.45953965187072754
132.10927300,132109273,-0.5361295938491821,132109273,-0.5361295938491821
132.11715400,132117154,-0.45953965187072754,132117154,-0.45953965187072754
132.12465300,132124653,-0.45953965187072754,132124653,-0.45953965187072754
132.13265300,132132653,-0.45953965187072754,132132653,-0.45953965187072754
132.14016000,132140160,-0.45953965187072754,132140160,-0.45953965187072754
132.14815800,132148158,-0.45953965187072754,132148158,-0.45953965187072754
132.15565700,132155657,-0.45953965187072754,132155657,-0.45953965187072754
132.16366100,132163661,-0.5361295938491821,132163661,-0.5361295938491821
132.17115200,132171152,-0.5361295938491821,132171152,-0.5361295938491821
132.17916000,132179160,-0.5361295938491821,132179160,-0.5361295938491821
132.18716000,132187160,-0.45953965187072754,132187160,-0.45953965187072754
132.19467500,132194675,-0.45953965187072754,132194675,-0.45953965187072754
132.20265300,132202653,-0.45953965187072754,132202653,-0.45953965187072754
132.21015000,132210150,-0.45953965187072754,132210150,-0.45953965187072754
