timestamp,TimeUS,GYROx
124.57814600,124578146,0.0022701723501086235
124.58316300,124583163,0.0022701723501086235
124.58834500,124588345,0.0022701723501086235
124.59337000,124593370,0.0022701723501086235
124.59840400,124598404,0.00120595283806324
124.60342600,124603426,0.0022701723501086235
124.60845800,124608458,0.0022701723501086235
124.61398100,124613981,0.0022701723501086235
124.61900800,124619008,0.0022701723501086235
124.62403200,124624032,0.0022701723501086235
124.62906200,124629062,0.0022701723501086235
124.63409200,124634092,0.0022701723501086235
124.63911700,124639117,0.0022701723501086235
124.64414600,124644146,0.00120595283806324
124.64916600,124649166,0.00120595283806324
124.65433900,124654339,0.0022701723501086235
124.65937300,124659373,0.00120595283806324
124.66440400,124664404,0.003334391862154007
124.66942100,124669421,0.00120595283806324
124.67445100,124674451,0.00120595283806324
124.67947500,124679475,0.0022701723501086235
124.68450500,124684505,0.0022701723501086235
124.68953300,124689533,0.0022701723501086235
124.69455300,124694553,0.00120595283806324
124.69957900,124699579,0.0022701723501086235
124.70460600,124704606,0.0022701723501086235
124.70963400,124709634,0.0022701723501086235
124.71465900,124714659,0.0022701723501086235
124.71971700,124719717,0.0022701723501086235
124.72482000,124724820,0.0022701723501086235
124.72984400,124729844,0.0022701723501086235
124.73486700,124734867,0.00120595283806324
124.74039500,124740395,0.00120595283806324
124.74542800,124745428,0.0022701723501086235
124.75046100,124750461,0.0022701723501086235
124.75548300,124755483,0.00120595283806324
124.76051100,124760511,0.0022701723501086235
124.76554100,124765541,0.0022701723501086235
124.77056000,124770560,0.00120595283806324
124.77558700,124775587,0.00120595283806324
124.78061200,124780612,0.00120595283806324
124.78564100,124785641,0.0022701723501086235
124.79066000,124790660,0.0022701723501086235
124.79580900,124795809,0.0022701723501086235
124.80083400,124800834,0.00120595283806324
124.80585600,124805856,0.0022701723501086235
124.81088200,124810882,0.0022701723501086235
124.81590800,124815908,0.00120595283806324
124.82092800,124820928,0.003334391862154007
124.82595600,124825956,0.0022701723501086235
124.83098300,124830983,0.003334391862154007
124.83600900,124836009,0.00120595283806324
124.84153500,124841535,0.0022701723501086235
124.84656000,124846560,0.0022701723501086235
124.85158800,124851588,0.0022701723501086235
124.85661400,124856614,0.00120595283806324
124.86164500,124861645,0.00120595283806324
124.86667000,124866670,0.0022701723501086235
124.87185200,124871852,0.0022701723501086235
124.87687500,124876875,0.0022701723501086235
124.88189500,124881895,0.0022701723501086235
124.88692000,124886920,0.00120595283806324
124.89195200,124891952,0.00120595283806324
124.89698700,124896987,0.0022701723501086235
124.90201100,124902011,0.0022701723501086235
124.90703100,124907031,0.0022701723501086235
124.91205600,124912056,0.00120595283806324
124.91708100,124917081,0.0022701723501086235
124.92210700,124922107,0.00120595283806324
124.92713500,124927135,0.00120595283806324
124.93216200,124932162,0.0022701723501086235
124.93731000,124937310,0.0022701723501086235
124.94233000,124942330,0.00120595283806324
124.94736000,124947360,0.00120595283806324
124.95238300,124952383,0.0022701723501086235
124.95740600,124957406,0.003334391862154007
124.96243100,124962431,0.0022701723501086235
124.96795800,124967958,0.0022701723501086235
124.97298700,124972987,0.0022701723501086235
124.97801700,124978017,0.0022701723501086235
124.98303900,124983039,0.0022701723501086235
124.98806900,124988069,0.0022701723501086235
124.99309500,124993095,0.0022701723501086235
124.99812000,124998120,0.0022701723501086235
125.00314100,125003141,0.0022701723501086235
125.00816500,125008165,0.0022701723501086235
125.01334300,125013343,0.0022701723501086235
125.01837700,125018377,0.0022701723501086235
125.02339600,125023396,0.00120595283806324
125.02842700,125028427,0.0022701723501086235
125.03345500,125033455,0.0022701723501086235
125.03847600,125038476,0.0022701723501086235
125.04349600,125043496,0.0022701723501086235
125.04852200,125048522,0.0022701723501086235
125.05355300,125053553,0.0022701723501086235
125.05857900,125058579,0.00120595283806324
125.06360600,125063606,0.0022701723501086235
125.06862900,125068629,0.00120595283806324
125.07366100,125073661,0.00120595283806324
125.07883400,125078834,0.00120595283806324
125.08392700,125083927,0.00120595283806324
125.08894600,125088946,0.0022701723501086235
125.09397500,125093975,0.00120595283806324
125.09900400,125099004,0.0022701723501086235
125.10403200,125104032,0.003334391862154007
125.10907500,125109075,0.0022701723501086235
125.11410700,125114107,0.0022701723501086235
125.11963500,125119635,0.00120595283806324
125.12466100,125124661,0.0022701723501086235
125.12931700,125129317,0.0022701723501086235
125.13434800,125134348,0.0022701723501086235
125.13987500,125139875,0.00120595283806324
125.14489800,125144898,0.0022701723501086235
125.14992500,125149925,0.00120595283806324
125.15494600,125154946,0.0022701723501086235
125.15997200,125159972,0.00120595283806324
125.16499400,125164994,0.0022701723501086235
125.17001900,125170019,0.0022701723501086235
125.17504100,125175041,0.00120595283806324
125.18006400,125180064,0.0022701723501086235
125.18509300,125185093,0.003334391862154007
125.19012100,125190121,0.00120595283806324
125.19514700,125195147,0.0022701723501086235
125.20016800,125200168,0.0022701723501086235
125.20531100,125205311,0.0022701723501086235
125.21033700,125210337,0.0022701723501086235
125.21536100,125215361,0.00120595283806324
125.22038700,125220387,0.00120595283806324
125.22541700,125225417,0.0022701723501086235
125.23043700,125230437,0.0022701723501086235
125.23596200,125235962,0.0022701723501086235
125.24098100,125240981,0.00120595283806324
125.24602000,125246020,0.0022701723501086235
125.25109900,125251099,0.00120595283806324
125.25607200,125256072,0.0022701723501086235
125.26109400,125261094,0.0022701723501086235
125.26612400,125266124,0.00120595283806324
125.27114100,125271141,0.0022701723501086235
125.27616500,125276165,0.00120595283806324
125.28131300,125281313,0.0022701723501086235
125.28633700,125286337,0.00120595283806324
125.29136600,125291366,0.0022701723501086235
125.29638500,125296385,0.0022701723501086235
125.30141300,125301413,0.00120595283806324
125.30643900,125306439,0.00120595283806324
125.31146400,125311464,0.0022701723501086235
125.31648800,125316488,0.0022701723501086235
125.32151500,125321515,0.0022701723501086235
125.32653600,125326536,0.00120595283806324
125.33156200,125331562,0.0022701723501086235
125.33709600,125337096,0.00120595283806324
125.34212100,125342121,0.00120595283806324
125.34714600,125347146,0.00120595283806324
125.35216800,125352168,0.00120595283806324
125.35683800,125356838,0.00120595283806324
125.36236500,125362365,0.0022701723501086235
125.36739000,125367390,0.00120595283806324
125.37241100,125372411,0.0022701723501086235
125.37743800,125377438,0.0022701723501086235
125.38246500,125382465,0.00120595283806324
125.38748700,125387487,0.0022701723501086235
125.39252000,125392520,0.00120595283806324
125.39754100,125397541,0.00120595283806324
125.40256300,125402563,0.00120595283806324
125.40761100,125407611,0.00120595283806324
125.41263200,125412632,0.0022701723501086235
125.41765400,125417654,0.0022701723501086235
125.42279800,125422798,0.0022701723501086235
125.42781100,125427811,0.00120595283806324
125.43289600,125432896,0.00120595283806324
125.43785900,125437859,0.0022701723501086235
125.44288200,125442882,0.0022701723501086235
125.44791200,125447912,0.0022701723501086235
125.45299700,125452997,0.0022701723501086235
125.45845700,125458457,0.0022701723501086235
125.46349000,125463490,0.0022701723501086235
125.46852000,125468520,0.00120595283806324
125.47355100,125473551,0.00120595283806324
125.47857200,125478572,0.0022701723501086235
125.48359800,125483598,0.00120595283806324
125.48862700,125488627,0.0022701723501086235
125.49365200,125493652,0.0022701723501086235
125.49867600,125498676,0.0022701723501086235
125.50381600,125503816,0.00120595283806324
125.50883100,125508831,0.0022701723501086235
125.51385800,125513858,0.00120595283806324
125.51888000,125518880,0.00120595283806324
125.52391100,125523911,0.0022701723501086235
125.52893100,125528931,0.0022701723501086235
125.53395200,125533952,0.0022701723501086235
125.53897500,125538975,0.0022701723501086235
125.54400500,125544005,0.0022701723501086235
125.54902700,125549027,0.00120595283806324
125.55405300,125554053,0.00120595283806324
125.55957600,125559576,0.0022701723501086235
125.56460200,125564602,0.0022701723501086235
125.56962700,125569627,0.0022701723501086235
125.57464900,125574649,0.0022701723501086235
125.57967700,125579677,0.00120595283806324
125.58484600,125584846,0.00120595283806324
125.58995300,125589953,0.00120595283806324
125.59499300,125594993,0.00120595283806324
125.60002700,125600027,0.00120595283806324
125.60503400,125605034,0.0022701723501086235
125.61006300,125610063,0.0022701723501086235
125.61510400,125615104,0.0022701723501086235
125.62013800,125620138,0.0022701723501086235
125.62517700,125625177,0.0022701723501086235
125.63031900,125630319,0.0022701723501086235
125.63536000,125635360,0.0022701723501086235
125.64040600,125640406,0.0022701723501086235
125.64544800,125645448,0.0022701723501086235
125.65047600,125650476,0.0022701723501086235
125.65550300,125655503,0.0022701723501086235
125.66053000,125660530,0.00120595283806324
125.66555500,125665555,0.00120595283806324
125.67058000,125670580,0.0022701723501086235
125.67560900,125675609,0.0022701723501086235
125.68063100,125680631,0.0022701723501086235
125.68566000,125685660,0.0022701723501086235
125.69074400,125690744,0.0022701723501086235
125.69582300,125695823,0.0022701723501086235
125.70084800,125700848,0.0022701723501086235
125.70587300,125705873,0.00120595283806324
125.71092300,125710923,0.00120595283806324
125.71594900,125715949,0.0022701723501086235
125.72097800,125720978,0.0022701723501086235
125.72600900,125726009,0.0022701723501086235
125.73153100,125731531,0.0022701723501086235
125.73655900,125736559,0.0022701723501086235
125.74158300,125741583,0.00120595283806324
125.74660600,125746606,0.00120595283806324
125.75163100,125751631,0.00120595283806324
125.75665300,125756653,0.00120595283806324
125.76170700,125761707,0.00120595283806324
125.76680800,125766808,0.0022701723501086235
125.77183100,125771831,0.0022701723501086235
125.77685400,125776854,0.0022701723501086235
125.78188000,125781880,0.0022701723501086235
125.78690100,125786901,0.0022701723501086235
125.79192900,125791929,0.0022701723501086235
125.79695700,125796957,0.0022701723501086235
125.80198500,125801985,0.0022701723501086235
125.80700800,125807008,0.0022701723501086235
125.81203400,125812034,0.0022701723501086235
125.81706000,125817060,0.0022701723501086235
125.82209000,125822090,0.00120595283806324
125.82711000,125827110,0.00120595283806324
125.83263600,125832636,0.0022701723501086235
125.83766300,125837663,0.0022701723501086235
125.84230900,125842309,0.0022701723501086235
125.84783500,125847835,0.0022701723501086235
125.85286100,125852861,0.0022701723501086235
125.85794900,125857949,0.0022701723501086235
125.86291500,125862915,0.0022701723501086235
125.86793100,125867931,0.0022701723501086235
125.87295800,125872958,0.0022701723501086235
125.87798100,125877981,0.0022701723501086235
125.88300600,125883006,0.00120595283806324
125.88803200,125888032,0.0022701723501086235
125.89305200,125893052,0.00120595283806324
125.89807900,125898079,0.00120595283806324
125.90309900,125903099,0.0022701723501086235
125.90812400,125908124,0.0022701723501086235
125.91315800,125913158,0.0022701723501086235
125.91820700,125918207,0.0022701723501086235
125.92334700,125923347,0.0022701723501086235
125.92837400,125928374,0.00120595283806324
125.93339600,125933396,0.0022701723501086235
125.93842200,125938422,0.00120595283806324
125.94344300,125943443,0.0022701723501086235
125.94897200,125948972,0.00120595283806324
125.95400400,125954004,0.00120595283806324
125.95902900,125959029,0.0022701723501086235
125.96406000,125964060,0.0022701723501086235
125.96908600,125969086,0.00120595283806324
125.97411100,125974111,0.0022701723501086235
125.97913600,125979136,0.00120595283806324
125.98415800,125984158,0.0022701723501086235
125.98923500,125989235,0.00120595283806324
125.99431900,125994319,0.0022701723501086235
125.99934600,125999346,0.0022701723501086235
126.00437400,126004374,0.00120595283806324
126.00940000,126009400,0.0022701723501086235
126.01442200,126014422,0.0022701723501086235
126.01944800,126019448,0.0022701723501086235
126.02447500,126024475,0.00120595283806324
126.02950100,126029501,0.0022701723501086235
126.03452700,126034527,0.0022701723501086235
126.03954800,126039548,0.0022701723501086235
126.04457800,126044578,0.0022701723501086235
126.05010400,126050104,0.0022701723501086235
126.05512900,126055129,0.00120595283806324
126.06015500,126060155,0.0022701723501086235
126.06521000,126065210,0.00120595283806324
126.07038000,126070380,0.00120595283806324
126.07534200,126075342,0.00120595283806324
126.08036700,126080367,0.00120595283806324
126.08539100,126085391,0.00120595283806324
126.09041800,126090418,0.0022701723501086235
126.09545400,126095454,0.00120595283806324
126.10047800,126100478,0.0022701723501086235
126.10550800,126105508,0.0022701723501086235
126.11053500,126110535,0.0022701723501086235
126.11556100,126115561,0.00120595283806324
126.12058600,126120586,0.0022701723501086235
126.12560900,126125609,0.0022701723501086235
126.13063300,126130633,0.0022701723501086235
126.13566200,126135662,0.0022701723501086235
126.14089200,126140892,0.0022701723501086235
126.14592300,126145923,0.0022701723501086235
126.15095200,126150952,0.0022701723501086235
126.15597600,126155976,0.0022701723501086235
126.16099800,126160998,0.00120595283806324
126.16602800,126166028,0.0022701723501086235
126.17105700,126171057,0.0022701723501086235
126.17607400,126176074,0.0022701723501086235
126.18110000,126181100,0.0022701723501086235
126.18662100,126186621,0.0022701723501086235
126.19165100,126191651,0.0022701723501086235
126.19668300,126196683,0.00120595283806324
126.20141100,126201411,0.0022701723501086235
126.20643500,126206435,0.0022701723501086235
126.21147500,126211475,0.0022701723501086235
126.21651700,126216517,0.0022701723501086235
126.22204000,126222040,0.00120595283806324
126.22706800,126227068,0.0022701723501086235
126.23209800,126232098,0.0022701723501086235
126.23712500,126237125,0.00120595283806324
126.24215000,126242150,0.0022701723501086235
126.24717800,126247178,0.0022701723501086235
126.25231200,126252312,0.0022701723501086235
126.25734200,126257342,0.0022701723501086235
126.26237200,126262372,0.0022701723501086235
126.26739400,126267394,0.00120595283806324
126.27242100,126272421,0.00120595283806324
126.27744500,126277445,0.0022701723501086235
126.28247200,126282472,0.0022701723501086235
126.28749300,126287493,0.00120595283806324
126.29254000,126292540,0.00120595283806324
126.29754500,126297545,0.0022701723501086235
126.30257300,126302573,0.0022701723501086235
126.30766500,126307665,0.0022701723501086235
126.31262400,126312624,0.0022701723501086235
126.31764300,126317643,0.0022701723501086235
126.32317200,126323172,0.0022701723501086235
126.32780700,126327807,0.0022701723501086235
126.33283400,126332834,0.0022701723501086235
126.33785400,126337854,0.0022701723501086235
126.34338000,126343380,0.00120595283806324
126.34840100,126348401,0.00120595283806324
126.35342700,126353427,0.00120595283806324
126.35844900,126358449,0.0022701723501086235
126.36347900,126363479,0.0022701723501086235
126.36850400,126368504,0.00120595283806324
126.37352700,126373527,0.00120595283806324
126.37861100,126378611,0.0022701723501086235
126.38357400,126383574,0.00120595283806324
126.38860100,126388601,0.0022701723501086235
126.39362400,126393624,0.0022701723501086235
126.39866000,126398660,0.00120595283806324
126.40381400,126403814,0.0022701723501086235
126.40883800,126408838,0.0022701723501086235
126.41387200,126413872,0.00120595283806324
126.41889100,126418891,0.0022701723501086235
126.42391800,126423918,0.00120595283806324
126.42893800,126428938,0.0022701723501086235
126.43396400,126433964,0.0022701723501086235
126.43898800,126438988,0.0022701723501086235
126.44451300,126444513,0.00120595283806324
126.44953500,126449535,0.00120595283806324
126.45455900,126454559,0.0022701723501086235
126.45958400,126459584,0.0022701723501086235
126.46461100,126464611,0.0022701723501086235
126.46963700,126469637,0.0022701723501086235
126.47466500,126474665,0.0022701723501086235
126.47981200,126479812,0.00120595283806324
126.48483400,126484834,0.0022701723501086235
126.48986000,126489860,0.0022701723501086235
126.49487900,126494879,0.0022701723501086235
126.49995900,126499959,0.0022701723501086235
126.50493000,126504930,0.0022701723501086235
126.50996400,126509964,0.00120595283806324
126.51499300,126514993,0.0022701723501086235
126.52002000,126520020,0.00120595283806324
126.52503900,126525039,0.0022701723501086235
126.53006600,126530066,0.00120595283806324
126.53509000,126535090,0.00120595283806324
126.54061000,126540610,0.0022701723501086235
126.54563800,126545638,0.0022701723501086235
126.55065700,126550657,0.0022701723501086235
126.55531300,126555313,0.0022701723501086235
126.56083900,126560839,0.00120595283806324
126.56586000,126565860,0.0022701723501086235
126.57088900,126570889,0.00120595283806324
126.57592000,126575920,0.00120595283806324
126.58094800,126580948,0.00120595283806324
126.58597100,126585971,0.0022701723501086235
126.59099400,126590994,0.0022701723501086235
126.59602100,126596021,0.0022701723501086235
126.60104400,126601044,0.0022701723501086235
126.60606700,126606067,0.0022701723501086235
126.61109000,126611090,0.0022701723501086235
126.61611400,126616114,0.0022701723501086235
126.62113900,126621139,0.0022701723501086235
126.62615800,126626158,0.0022701723501086235
126.63131100,126631311,0.0022701723501086235
126.63633500,126636335,0.0022701723501086235
126.64136100,126641361,0.0022701723501086235
126.64638800,126646388,0.0022701723501086235
126.65141400,126651414,0.0022701723501086235
126.65643900,126656439,0.00120595283806324
126.66195900,126661959,0.00120595283806324
126.66698400,126666984,0.00120595283806324
126.67201300,126672013,0.00120595283806324
126.67703100,126677031,0.0022701723501086235
126.68205700,126682057,0.00120595283806324
126.68709100,126687091,0.0022701723501086235
126.69211600,126692116,0.0022701723501086235
126.69713900,126697139,0.0022701723501086235
126.70222300,126702223,0.00120595283806324
126.70741500,126707415,0.0022701723501086235
126.71245600,126712456,0.0022701723501086235
126.71747300,126717473,0.00120595283806324
126.72249700,126722497,0.00120595283806324
126.72753100,126727531,0.0022701723501086235
126.73256700,126732567,0.00120595283806324
126.73760500,126737605,0.0022701723501086235
126.74263300,126742633,0.0022701723501086235
126.74767800,126747678,0.0022701723501086235
126.75282300,126752823,0.0022701723501086235
126.75786800,126757868,0.0022701723501086235
126.76293200,126762932,0.00120595283806324
126.76795800,126767958,0.00120595283806324
126.77300800,126773008,0.0022701723501086235
126.77803500,126778035,0.00120595283806324
126.78305600,126783056,0.00120595283806324
126.78808400,126788084,0.00120595283806324
126.79311200,126793112,0.0022701723501086235
126.79813800,126798138,0.00120595283806324
126.80316600,126803166,0.00120595283806324
126.80834800,126808348,0.0022701723501086235
126.81337300,126813373,0.00120595283806324
126.81839900,126818399,0.0022701723501086235
126.82342200,126823422,0.00120595283806324
126.82844900,126828449,0.00120595283806324
126.83347400,126833474,0.003334391862154007
126.83850200,126838502,0.0022701723501086235
126.84359400,126843594,0.0022701723501086235
126.84861500,126848615,0.0022701723501086235
126.85364300,126853643,0.0022701723501086235
126.85916900,126859169,0.00120595283806324
126.86381700,126863817,0.00120595283806324
126.86884700,126868847,0.0022701723501086235
126.87387800,126873878,0.00120595283806324
126.87940500,126879405,0.00120595283806324
126.88443100,126884431,0.00120595283806324
126.88950900,126889509,0.0022701723501086235
126.89447500,126894475,0.00120595283806324
126.89950200,126899502,0.00120595283806324
126.90453200,126904532,0.0022701723501086235
126.90955500,126909555,0.00120595283806324
126.91457700,126914577,0.0022701723501086235
126.91960000,126919600,0.00120595283806324
126.92462900,126924629,0.0022701723501086235
126.92965500,126929655,0.0022701723501086235
126.93467700,126934677,0.0022701723501086235
126.93981400,126939814,0.0022701723501086235
126.94484100,126944841,0.0022701723501086235
126.94987100,126949871,0.0022701723501086235
126.95489600,126954896,0.0022701723501086235
126.95991300,126959913,0.00120595283806324
126.96500100,126965001,0.0022701723501086235
126.96996500,126969965,0.0022701723501086235
126.97549400,126975494,0.0022701723501086235
126.98052100,126980521,0.00120595283806324
126.98554900,126985549,0.0022701723501086235
126.99056800,126990568,0.0022701723501086235
126.99559500,126995595,0.0022701723501086235
127.00062000,127000620,0.00120595283806324
127.00564700,127005647,0.0022701723501086235
127.01067200,127010672,0.0022701723501086235
127.01581400,127015814,0.0022701723501086235
127.02085100,127020851,0.0022701723501086235
127.02587500,127025875,0.00120595283806324
127.03090000,127030900,0.00120595283806324
127.03592500,127035925,0.0022701723501086235
127.04095100,127040951,0.00120595283806324
127.04597200,127045972,0.00120595283806324
127.05099700,127050997,0.0022701723501086235
127.05601900,127056019,0.00120595283806324
127.06110200,127061102,0.0022701723501086235
127.06607700,127066077,0.00120595283806324
127.07110300,127071103,0.0022701723501086235
127.07663100,127076631,0.0022701723501086235
127.08165400,127081654,0.00120595283806324
127.08669900,127086699,0.0022701723501086235
127.09131800,127091318,0.0022701723501086235
127.09683700,127096837,0.0022701723501086235
127.10186200,127101862,0.0022701723501086235
127.10688800,127106888,0.00120595283806324
127.11191300,127111913,0.0022701723501086235
127.11693800,127116938,0.0022701723501086235
127.12196100,127121961,0.00120595283806324
127.12698400,127126984,0.0022701723501086235
127.13201100,127132011,0.00120595283806324
127.13703500,127137035,0.00120595283806324
127.14206600,127142066,0.0022701723501086235
127.14708600,127147086,0.0022701723501086235
127.15210900,127152109,0.0022701723501086235
127.15713500,127157135,0.0022701723501086235
127.16215600,127162156,0.0022701723501086235
127.16719900,127167199,0.0022701723501086235
127.17231100,127172311,0.0022701723501086235
127.17739500,127177395,0.0022701723501086235
127.18236200,127182362,0.0022701723501086235
127.18788400,127187884,0.0022701723501086235
127.19290900,127192909,0.00120595283806324
127.19793700,127197937,0.00120595283806324
127.20296400,127202964,0.0022701723501086235
127.20800000,127208000,0.00120595283806324
127.21802100,127218021,0.00120595283806324
127.22804600,127228046,0.00120595283806324
127.23807000,127238070,0.0022701723501086235
127.24809900,127248099,0.00120595283806324
127.25863600,127258636,0.0022701723501086235
127.26867900,127268679,0.0022701723501086235
127.27882400,127278824,0.0022701723501086235
127.28887300,127288873,0.0022701723501086235
127.29890300,127298903,0.0022701723501086235
127.30893300,127308933,0.00120595283806324
127.31896600,127318966,0.00120595283806324
127.32899100,127328991,0.00120595283806324
127.33952000,127339520,0.00120595283806324
127.34954700,127349547,0.0022701723501086235
127.35957700,127359577,0.0022701723501086235
127.36960700,127369607,0.00120595283806324
127.37963300,127379633,0.0022701723501086235
127.38966400,127389664,0.0022701723501086235
127.39982000,127399820,0.0022701723501086235
127.41034400,127410344,0.0022701723501086235
127.42037100,127420371,0.0022701723501086235
127.43039300,127430393,0.0022701723501086235
127.44041800,127440418,0.0022701723501086235
127.45044000,127450440,0.003334391862154007
127.46046200,127460462,0.0022701723501086235
127.47098700,127470987,0.0022701723501086235
127.48101000,127481010,0.0022701723501086235
127.49103800,127491038,0.0022701723501086235
127.50105800,127501058,0.00120595283806324
127.51108900,127511089,0.00120595283806324
127.52167700,127521677,0.00120595283806324
127.53164400,127531644,0.0022701723501086235
127.54166600,127541666,0.00120595283806324
127.55181100,127551811,0.0022701723501086235
127.56188900,127561889,0.0022701723501086235
127.57185900,127571859,0.0022701723501086235
127.58187900,127581879,0.0022701723501086235
127.59240100,127592401,0.00120595283806324
127.60243900,127602439,0.0022701723501086235
127.61246900,127612469,0.0022701723501086235
127.62249300,127622493,0.00120595283806324
127.63251500,127632515,0.00120595283806324
127.64254700,127642547,0.00120595283806324
127.65306800,127653068,0.0022701723501086235
127.66309800,127663098,0.00120595283806324
127.67312200,127673122,0.00120595283806324
127.68314900,127683149,0.0022701723501086235
127.69324300,127693243,0.00120595283806324
127.70330700,127703307,0.0022701723501086235
127.71333600,127713336,0.00120595283806324
127.72385900,127723859,0.0022701723501086235
127.73388400,127733884,0.0022701723501086235
127.74390700,127743907,0.0022701723501086235
127.75392800,127753928,0.0022701723501086235
127.76395100,127763951,0.00120595283806324
127.77397900,127773979,0.0022701723501086235
127.78450500,127784505,0.0022701723501086235
127.79453000,127794530,0.0022701723501086235
127.80456600,127804566,0.00120595283806324
127.81458400,127814584,0.0022701723501086235
127.82466600,127824666,0.0022701723501086235
127.83513600,127835136,0.00120595283806324
127.84518200,127845182,0.00120595283806324
127.85531500,127855315,0.0022701723501086235
127.86534400,127865344,0.0022701723501086235
127.87537200,127875372,0.0022701723501086235
127.88540300,127885403,0.0022701723501086235
127.89543300,127895433,0.00120595283806324
127.90545500,127905455,0.0022701723501086235
127.91597600,127915976,0.0022701723501086235
127.92600100,127926001,0.00120595283806324
127.93602300,127936023,0.0022701723501086235
127.94604600,127946046,0.0022701723501086235
127.95607200,127956072,0.0022701723501086235
127.96659900,127966599,0.0022701723501086235
127.97663000,127976630,0.00120595283806324
127.98665400,127986654,0.0022701723501086235
127.99671900,127996719,0.00120595283806324
128.00681800,128006818,0.0022701723501086235
128.01683600,128016836,0.00120595283806324
128.02685800,128026858,0.0022701723501086235
128.03738200,128037382,0.00120595283806324
128.04740600,128047406,0.00120595283806324
128.05742700,128057427,0.00120595283806324
128.06745700,128067457,0.00120595283806324
128.07747600,128077476,0.0022701723501086235
128.08751300,128087513,0.0022701723501086235
128.09804500,128098045,0.0022701723501086235
128.10806700,128108067,0.0022701723501086235
128.11809500,128118095,0.00120595283806324
128.12812900,128128129,0.00120595283806324
128.13815200,128138152,0.0022701723501086235
128.14817600,128148176,0.0022701723501086235
128.15837300,128158373,0.0022701723501086235
128.16883600,128168836,0.0022701723501086235
128.17885500,128178855,0.0022701723501086235
128.18889300,128188893,0.0022701723501086235
128.19892000,128198920,0.00120595283806324
128.20895300,128208953,0.00120595283806324
128.21897800,128218978,0.00120595283806324
128.22950700,128229507,0.00120595283806324
128.23953000,128239530,0.0022701723501086235
128.24955800,128249558,0.0022701723501086235
128.25958500,128259585,0.00120595283806324
128.26960900,128269609,0.0022701723501086235
128.28013200,128280132,0.0022701723501086235
128.29015800,128290158,0.0022701723501086235
128.30021000,128300210,0.0022701723501086235
128.31035300,128310353,0.00120595283806324
128.32038000,128320380,0.0022701723501086235
128.33040100,128330401,0.0022701723501086235
128.34042800,128340428,0.0022701723501086235
128.35045300,128350453,0.00120595283806324
128.36098200,128360982,0.00120595283806324
128.37102600,128371026,0.0022701723501086235
128.38105700,128381057,0.0022701723501086235
128.39109300,128391093,0.0022701723501086235
128.40112900,128401129,0.00120595283806324
128.41115800,128411158,0.0022701723501086235
128.42131500,128421315,0.0022701723501086235
128.43137900,128431379,0.00120595283806324
128.44190400,128441904,0.0022701723501086235
128.45193100,128451931,0.00120595283806324
128.46196100,128461961,0.0022701723501086235
128.47198700,128471987,0.0022701723501086235
128.48202600,128482026,0.0022701723501086235
128.49205700,128492057,0.00120595283806324
128.50258000,128502580,0.0022701723501086235
128.51260700,128512607,0.00120595283806324
128.52263000,128522630,0.00120595283806324
128.53265400,128532654,0.0022701723501086235
128.54267600,128542676,0.0022701723501086235
128.55280800,128552808,0.00120595283806324
128.56333300,128563333,0.00120595283806324
128.57341400,128573414,0.00120595283806324
128.58338400,128583384,0.00120595283806324
128.59346900,128593469,0.00120595283806324
128.60343600,128603436,0.0022701723501086235
128.61345800,128613458,0.0022701723501086235
128.62398400,128623984,0.0022701723501086235
128.63407600,128634076,0.00120595283806324
128.64409700,128644097,0.0022701723501086235
128.65406300,128654063,0.0022701723501086235
128.66414600,128664146,0.0022701723501086235
128.67411000,128674110,0.0022701723501086235
128.68464700,128684647,0.0022701723501086235
128.69467700,128694677,0.00120595283806324
128.70480800,128704808,0.00120595283806324
128.71483500,128714835,0.00120595283806324
128.72486000,128724860,0.0022701723501086235
128.73494200,128734942,0.00120595283806324
128.74490600,128744906,0.0022701723501086235
128.75543600,128755436,0.0022701723501086235
128.76545800,128765458,0.0022701723501086235
128.77549000,128775490,0.0022701723501086235
128.78551100,128785511,0.0022701723501086235
128.79553800,128795538,0.0022701723501086235
128.80555900,128805559,0.00120595283806324
128.81608200,128816082,0.00120595283806324
128.82610700,128826107,0.0022701723501086235
128.83613300,128836133,0.0022701723501086235
128.84615600,128846156,0.0022701723501086235
128.85618100,128856181,0.00120595283806324
128.86631200,128866312,0.0022701723501086235
128.87995000,128879950,0.0022701723501086235
128.88693700,128886937,0.0022701723501086235
128.89695800,128896958,0.0022701723501086235
128.90697800,128906978,0.0022701723501086235
128.91699800,128916998,0.00120595283806324
128.92702400,128927024,0.00120595283806324
128.93704600,128937046,0.0022701723501086235
128.94758700,128947587,0.00120595283806324
128.95761700,128957617,0.0022701723501086235
128.96764500,128967645,0.00120595283806324
128.97767500,128977675,0.0022701723501086235
128.98784700,128987847,0.00120595283806324
128.99791400,128997914,0.0022701723501086235
129.00793500,129007935,0.00120595283806324
129.01796500,129017965,0.0022701723501086235
129.02848900,129028489,0.0022701723501086235
129.03851000,129038510,0.0022701723501086235
129.04853300,129048533,0.0022701723501086235
129.05856000,129058560,0.00120595283806324
129.06858300,129068583,0.0022701723501086235
129.07910800,129079108,0.00120595283806324
129.08914000,129089140,0.00120595283806324
129.09916500,129099165,0.0022701723501086235
129.10931800,129109318,0.00120595283806324
129.11934000,129119340,0.00120595283806324
129.12936100,129129361,0.00120595283806324
129.13938700,129139387,0.0022701723501086235
129.14991200,129149912,0.0022701723501086235
129.15999400,129159994,0.0022701723501086235
129.16996200,129169962,0.0022701723501086235
129.17999000,129179990,0.00120595283806324
129.19002000,129190020,0.00120595283806324
129.20004600,129200046,0.0022701723501086235
129.21057200,129210572,0.0022701723501086235
129.22059600,129220596,0.0022701723501086235
129.23062000,129230620,0.0022701723501086235
129.24065200,129240652,0.00120595283806324
129.25067500,129250675,0.0022701723501086235
129.26084600,129260846,0.0022701723501086235
129.27087300,129270873,0.0022701723501086235
129.28090300,129280903,0.0022701723501086235
129.29143000,129291430,0.0022701723501086235
129.30145900,129301459,0.00120595283806324
129.31148000,129311480,0.0022701723501086235
129.32150500,129321505,0.00120595283806324
129.33158800,129331588,0.0022701723501086235
129.34205500,129342055,0.003334391862154007
129.35207500,129352075,0.0022701723501086235
129.36210200,129362102,0.0022701723501086235
129.37213200,129372132,0.0022701723501086235
129.38215000,129382150,0.003334391862154007
129.39221000,129392210,0.00120595283806324
129.40231500,129402315,0.0022701723501086235
129.41283600,129412836,0.0022701723501086235
129.42286000,129422860,0.00120595283806324
129.43288200,129432882,0.0022701723501086235
129.44291100,129442911,0.0022701723501086235
129.45293000,129452930,0.0022701723501086235
129.46294900,129462949,0.0022701723501086235
129.47347400,129473474,0.0001417333260178566
129.48350100,129483501,0.00120595283806324
129.49352400,129493524,0.0022701723501086235
129.50354500,129503545,0.0022701723501086235
129.51362900,129513629,0.0022701723501086235
129.52409800,129524098,0.0022701723501086235
129.53411800,129534118,0.0022701723501086235
129.54414700,129544147,0.0022701723501086235
129.55416600,129554166,0.00120595283806324
129.56430800,129564308,0.00120595283806324
129.57433500,129574335,0.0022701723501086235
129.58436300,129584363,0.00120595283806324
129.59488700,129594887,0.00120595283806324
129.60491200,129604912,0.0022701723501086235
129.61500100,129615001,0.0022701723501086235
129.62496000,129624960,0.0022701723501086235
129.63498600,129634986,0.0022701723501086235
129.64501500,129645015,0.0022701723501086235
129.65560200,129655602,0.0022701723501086235
129.66556900,129665569,0.0022701723501086235
129.67558900,129675589,0.00120595283806324
129.68567400,129685674,0.0022701723501086235
129.69564600,129695646,0.0022701723501086235
129.70616900,129706169,0.00120595283806324
129.71581400,129715814,0.0022701723501086235
129.72633500,129726335,0.00120595283806324
129.73636000,129736360,0.00120595283806324
129.74638500,129746385,0.00120595283806324
129.75640500,129756405,0.00120595283806324
129.76643100,129766431,0.0022701723501086235
129.77696600,129776966,0.0022701723501086235
129.78699600,129786996,0.0022701723501086235
129.79701900,129797019,0.0022701723501086235
129.80704300,129807043,0.0022701723501086235
129.81706700,129817067,0.0022701723501086235
129.82708900,129827089,0.00120595283806324
129.83761300,129837613,0.00120595283806324
129.84763800,129847638,0.00120595283806324
129.85773100,129857731,0.00120595283806324
129.86781000,129867810,0.00120595283806324
129.87783600,129877836,0.0022701723501086235
129.88786300,129887863,0.0022701723501086235
129.89788800,129897888,0.0022701723501086235
129.90841200,129908412,0.0022701723501086235
129.91843600,129918436,0.0022701723501086235
129.92845900,129928459,0.00120595283806324
129.93848400,129938484,0.0022701723501086235
129.94850900,129948509,0.0022701723501086235
129.95860400,129958604,0.0022701723501086235
129.96906300,129969063,0.0022701723501086235
129.97909000,129979090,0.00120595283806324
129.98911200,129989112,0.0022701723501086235
129.99913400,129999134,0.0022701723501086235
130.00915900,130009159,0.0022701723501086235
130.01920700,130019207,0.00120595283806324
130.02934200,130029342,0.00120595283806324
130.03986100,130039861,0.00120595283806324
130.04989700,130049897,0.0022701723501086235
130.05992100,130059921,0.003334391862154007
130.06995000,130069950,0.00120595283806324
130.07997900,130079979,0.00120595283806324
130.09000600,130090006,0.0022701723501086235
130.10053400,130100534,0.0022701723501086235
130.11289400,130112894,0.0022701723501086235
130.12055900,130120559,0.00120595283806324
130.13058600,130130586,0.0022701723501086235
130.14061700,130140617,0.0022701723501086235
130.15113800,130151138,0.0022701723501086235
130.16115600,130161156,0.0022701723501086235
130.17120500,130171205,0.0022701723501086235
130.18131200,130181312,0.00120595283806324
130.19133600,130191336,0.0022701723501086235
130.20136100,130201361,0.0022701723501086235
130.21138900,130211389,0.0022701723501086235
130.22191700,130221917,0.00120595283806324
130.23194100,130231941,0.0022701723501086235
130.24196500,130241965,0.0022701723501086235
130.25198400,130251984,0.0022701723501086235
130.26202300,130262023,0.0022701723501086235
130.27205500,130272055,0.00120595283806324
130.28258700,130282587,0.0022701723501086235
130.29261300,130292613,0.00120595283806324
130.30270400,130302704,0.0022701723501086235
130.31267100,130312671,0.0022701723501086235
130.32280900,130322809,0.0022701723501086235
130.33283100,130332831,0.0022701723501086235
130.34286800,130342868,0.0022701723501086235
130.35338100,130353381,0.0022701723501086235
130.36340300,130363403,0.00120595283806324
130.37342800,130373428,0.0022701723501086235
130.38350800,130383508,0.00120595283806324
130.39347400,130393474,0.00120595283806324
130.40399900,130403999,0.00120595283806324
130.41402400,130414024,0.0022701723501086235
130.42404800,130424048,0.0022701723501086235
130.43406800,130434068,0.00120595283806324
130.44409600,130444096,0.00120595283806324
130.45411900,130454119,0.0022701723501086235
130.46464800,130464648,0.00120595283806324
130.47467000,130474670,0.0022701723501086235
130.48481800,130484818,0.00120595283806324
130.49484900,130494849,0.0022701723501086235
130.50487400,130504874,0.0022701723501086235
130.51489200,130514892,0.00120595283806324
130.52491500,130524915,0.00120595283806324
130.53544000,130535440,0.00120595283806324
130.54546800,130545468,0.0022701723501086235
130.55549000,130555490,0.00120595283806324
130.56558200,130565582,0.0022701723501086235
130.57554400,130575544,0.0022701723501086235
130.58556900,130585569,0.00120595283806324
130.59615700,130596157,0.00120595283806324
130.60612200,130606122,0.003334391862154007
130.61614800,130616148,0.0022701723501086235
130.62617100,130626171,0.0022701723501086235
130.63632400,130636324,0.0022701723501086235
130.64634400,130646344,0.0022701723501086235
130.65637400,130656374,0.00120595283806324
130.66689600,130666896,0.00120595283806324
130.67692300,130676923,0.00120595283806324
130.68694600,130686946,0.00120595283806324
130.69696700,130696967,0.0022701723501086235
130.70699300,130706993,0.0022701723501086235
130.71751400,130717514,0.0022701723501086235
130.72754000,130727540,0.0022701723501086235
130.73756600,130737566,0.00120595283806324
130.74758900,130747589,0.00120595283806324
130.75761100,130757611,0.0022701723501086235
130.76763700,130767637,0.0022701723501086235
130.77816200,130778162,0.0022701723501086235
130.78831000,130788310,0.0022701723501086235
130.79833900,130798339,0.00120595283806324
130.80836000,130808360,0.0022701723501086235
130.81838700,130818387,0.0022701723501086235
130.82841000,130828410,0.0022701723501086235
130.83843300,130838433,0.0022701723501086235
130.84896100,130848961,0.0022701723501086235
130.85898100,130858981,0.00120595283806324
130.86901600,130869016,0.00120595283806324
130.87904000,130879040,0.0022701723501086235
130.88905800,130889058,0.00120595283806324
130.89908900,130899089,0.0022701723501086235
130.90961100,130909611,0.0022701723501086235
130.91964000,130919640,0.0022701723501086235
130.92966800,130929668,0.00120595283806324
130.93982200,130939822,0.0022701723501086235
130.94984700,130949847,0.0022701723501086235
130.95987100,130959871,0.0022701723501086235
130.96989700,130969897,0.0022701723501086235
130.98042800,130980428,0.0022701723501086235
130.99044900,130990449,0.0022701723501086235
131.00047500,131000475,0.00120595283806324
131.01049900,131010499,0.00120595283806324
131.02052700,131020527,0.0022701723501086235
131.03055400,131030554,0.0022701723501086235
131.04107800,131041078,0.0022701723501086235
131.05111000,131051110,0.0022701723501086235
131.06113500,131061135,0.00120595283806324
131.07115600,131071156,0.00120595283806324
131.08121600,131081216,0.00120595283806324
131.09131200,131091312,0.0022701723501086235
131.10184500,131101845,0.0022701723501086235
131.11191700,131111917,0.00120595283806324
131.12194000,131121940,0.00120595283806324
131.13197300,131131973,0.0022701723501086235
131.14200800,131142008,0.0022701723501086235
131.15203800,131152038,0.0022701723501086235
131.16206700,131162067,0.0022701723501086235
131.17259800,131172598,0.0022701723501086235
131.18263200,131182632,0.00120595283806324
131.19265800,131192658,0.00120595283806324
131.20271300,131202713,0.00120595283806324
131.21282000,131212820,0.0022701723501086235
131.22284800,131222848,0.0022701723501086235
131.23287200,131232872,0.0022701723501086235
131.24339600,131243396,0.00120595283806324
131.25342100,131253421,0.0022701723501086235
131.26344700,131263447,0.0022701723501086235
131.27347300,131273473,0.0022701723501086235
131.28349400,131283494,0.0022701723501086235
131.29351600,131293516,0.00120595283806324
131.30404300,131304043,0.0022701723501086235
131.31412300,131314123,0.0022701723501086235
131.32410100,131324101,0.00120595283806324
131.33413800,131334138,0.00120595283806324
131.34416000,131344160,0.0022701723501086235
131.35421500,131354215,0.0022701723501086235
131.36434400,131364344,0.00120595283806324
131.37487200,131374872,0.0022701723501086235
131.38489700,131384897,0.00120595283806324
131.39491500,131394915,0.0022701723501086235
131.40493900,131404939,0.0022701723501086235
131.41496800,131414968,0.00120595283806324
131.42499200,131424992,0.00120595283806324
131.43551500,131435515,0.00120595283806324
131.44554000,131445540,0.0022701723501086235
131.45556800,131455568,0.0022701723501086235
131.46560200,131465602,0.0022701723501086235
131.47562300,131475623,0.00120595283806324
131.48614400,131486144,0.00120595283806324
131.49617100,131496171,0.00120595283806324
131.50631300,131506313,0.0022701723501086235
131.51633500,131516335,0.00120595283806324
131.52635800,131526358,0.00120595283806324
131.53638300,131536383,0.0022701723501086235
131.54640600,131546406,0.00120595283806324
131.55693300,131556933,0.0022701723501086235
131.56696100,131566961,0.0022701723501086235
131.57704100,131577041,0.0022701723501086235
131.58700600,131587006,0.0022701723501086235
131.59703100,131597031,0.0022701723501086235
131.60706400,131607064,0.00120595283806324
131.61758600,131617586,0.00120595283806324
131.62760900,131627609,0.0022701723501086235
131.63762900,131637629,0.0022701723501086235
131.64765500,131647655,0.00120595283806324
131.65770800,131657708,0.00120595283806324
131.66780800,131667808,0.0022701723501086235
131.67783400,131677834,0.0022701723501086235
131.68835700,131688357,0.00120595283806324
131.69838200,131698382,0.00120595283806324
131.70840900,131708409,0.00120595283806324
131.71843300,131718433,0.0022701723501086235
131.72845400,131728454,0.0022701723501086235
131.73897800,131738978,0.00120595283806324
131.74900300,131749003,0.00120595283806324
131.75903100,131759031,0.0022701723501086235
131.76906100,131769061,0.00120595283806324
131.77908200,131779082,0.0022701723501086235
131.78911300,131789113,0.0022701723501086235
131.79963400,131799634,0.0022701723501086235
131.80966400,131809664,0.0022701723501086235
131.81981000,131819810,0.0022701723501086235
131.82984200,131829842,0.00120595283806324
131.83986700,131839867,0.00120595283806324
131.84989400,131849894,0.00120595283806324
131.85991600,131859916,0.00120595283806324
131.87044000,131870440,0.0022701723501086235
131.88046000,131880460,0.00120595283806324
131.89048300,131890483,0.00120595283806324
131.90051400,131900514,0.00120595283806324
131.91054300,131910543,0.00120595283806324
131.92057500,131920575,0.0022701723501086235
131.93110300,131931103,0.00120595283806324
131.94112100,131941121,0.0022701723501086235
131.95114700,131951147,0.00120595283806324
131.96117200,131961172,0.00120595283806324
131.97130900,131971309,0.0022701723501086235
131.98133600,131981336,0.0022701723501086235
131.99135900,131991359,0.0022701723501086235
132.00189200,132001892,0.0022701723501086235
132.01192400,132011924,0.0022701723501086235
132.02196200,132021962,0.003334391862154007
132.03198500,132031985,0.00120595283806324
132.04200900,132042009,0.0022701723501086235
132.05203400,132052034,0.0022701723501086235
132.06256100,132062561,0.0022701723501086235
132.07264000,132072640,0.0022701723501086235
132.08266600,132082666,0.00120595283806324
132.09269300,132092693,0.0022701723501086235
132.10265200,132102652,0.0022701723501086235
132.11317800,132113178,0.0022701723501086235
132.12331400,132123314,0.0022701723501086235
132.13334100,132133341,0.0022701723501086235
132.14336500,132143365,0.00120595283806324
132.15338500,132153385,0.0022701723501086235
132.16341600,132163416,0.00120595283806324
132.17344200,132173442,0.00120595283806324
132.18396500,132183965,0.00120595283806324
132.19399000,132193990,0.00120595283806324
132.20401200,132204012,0.00120595283806324
132.21403800,132214038,0.00120595283806324
132.22406600,132224066,0.0022701723501086235
132.23409600,132234096,0.0022701723501086235
132.25462500,132254625,0.00120595283806324
132.27466700,132274667,0.0022701723501086235
132.29522900,132295229,0.00120595283806324
132.31532100,132315321,0.0022701723501086235
132.33534800,132335348,0.00120595283806324
132.35587000,132355870,0.0022701723501086235
132.37589600,132375896,0.00120595283806324
132.39592100,132395921,0.00120595283806324
132.41644600,132416446,0.0022701723501086235
132.43647100,132436471,0.0022701723501086235
132.45700600,132457006,0.0022701723501086235
132.47702400,132477024,0.00120595283806324
132.49704800,132497048,0.0022701723501086235
132.51757100,132517571,0.0022701723501086235
132.53759400,132537594,0.00120595283806324
132.55812500,132558125,0.0022701723501086235
132.57814700,132578147,0.0022701723501086235
132.59817700,132598177,0.0022701723501086235
132.61881000,132618810,0.0022701723501086235
132.63883500,132638835,0.0022701723501086235
132.65885500,132658855,0.00120595283806324
132.67938000,132679380,0.0022701723501086235
132.69939800,132699398,0.0022701723501086235
132.71992800,132719928,0.0022701723501086235
132.73995900,132739959,0.00120595283806324
132.75999200,132759992,0.0022701723501086235
132.78057900,132780579,0.00120595283806324
132.80053900,132800539,0.00120595283806324
132.82106700,132821067,0.0022701723501086235
132.84109200,132841092,0.0022701723501086235
132.86111200,132861112,0.00120595283806324
132.88164800,132881648,0.00120595283806324
132.90166900,132901669,0.003334391862154007
132.92182300,132921823,0.00120595283806324
132.94234500,132942345,0.00120595283806324
132.96236900,132962369,0.0022701723501086235
132.98289100,132982891,0.0022701723501086235
133.00291200,133002912,0.0022701723501086235
133.02294100,133022941,0.0022701723501086235
133.04346000,133043460,0.00120595283806324
133.06348500,133063485,0.0022701723501086235
133.08400900,133084009,0.0022701723501086235
133.10404600,133104046,0.0022701723501086235
133.12406600,133124066,0.00120595283806324
133.14458800,133144588,0.0022701723501086235
133.16461700,133164617,0.00120595283806324
133.18514100,133185141,0.00120595283806324
133.20517700,133205177,0.0022701723501086235
133.22532200,133225322,0.00120595283806324
133.24584300,133245843,0.00120595283806324
133.26586600,133265866,0.0022701723501086235
133.28589300,133285893,0.0022701723501086235
133.30641300,133306413,0.003334391862154007
133.32644200,133326442,0.00120595283806324
133.34697500,133346975,0.0022701723501086235
133.36700900,133367009,0.0022701723501086235
133.38702900,133387029,0.00120595283806324
133.40756700,133407567,0.0022701723501086235
133.42759200,133427592,0.0022701723501086235
133.44811900,133448119,0.00120595283806324
133.46814500,133468145,0.00120595283806324
133.48817600,133488176,0.0022701723501086235
133.50881100,133508811,0.00120595283806324
133.52883200,133528832,0.00120595283806324
133.54885800,133548858,0.00120595283806324
133.56938500,133569385,0.0022701723501086235
133.58941000,133589410,0.0022701723501086235
133.60993800,133609938,0.0022701723501086235
133.62996200,133629962,0.0022701723501086235
133.64998600,133649986,0.00120595283806324
133.67057700,133670577,0.00120595283806324
133.69053900,133690539,0.00120595283806324
133.71106000,133711060,0.0022701723501086235
133.73109400,133731094,0.0022701723501086235
133.75111900,133751119,0.00120595283806324
133.77165400,133771654,0.00120595283806324
133.79171400,133791714,0.0022701723501086235
133.81181300,133811813,0.0022701723501086235
133.83234600,133832346,0.0022701723501086235
133.85236500,133852365,0.00120595283806324
133.87289600,133872896,0.00120595283806324
133.89292200,133892922,0.0022701723501086235
133.91294700,133912947,0.0022701723501086235
133.93346900,133933469,0.0022701723501086235
133.95349300,133953493,0.0022701723501086235
133.97402500,133974025,0.00120595283806324
133.99405200,133994052,0.0022701723501086235
134.01413400,134014134,0.00120595283806324
134.03459400,134034594,0.003334391862154007
134.05468400,134054684,0.00120595283806324
134.07514700,134075147,0.0022701723501086235
134.09517100,134095171,0.00120595283806324
134.11531000,134115310,0.00120595283806324
134.13583900,134135839,0.0022701723501086235
134.15586900,134155869,0.0022701723501086235
134.17589200,134175892,0.0022701723501086235
134.19642100,134196421,0.0022701723501086235
134.21644400,134216444,0.00120595283806324
134.23697200,134236972,0.00120595283806324
134.25700300,134257003,0.00120595283806324
134.27703300,134277033,0.00120595283806324
134.29755900,134297559,0.0022701723501086235
134.31758300,134317583,0.00120595283806324
134.33810800,134338108,0.0022701723501086235
134.35813000,134358130,0.0022701723501086235
134.37815900,134378159,0.00120595283806324
134.39882200,134398822,0.00120595283806324
134.41884300,134418843,0.00120595283806324
134.43886500,134438865,0.0022701723501086235
134.45939100,134459391,0.00120595283806324
134.47942200,134479422,0.0022701723501086235
134.49995200,134499952,0.00120595283806324
134.51997600,134519976,0.0022701723501086235
134.54000300,134540003,0.0022701723501086235
134.56052900,134560529,0.0022701723501086235
134.58055000,134580550,0.0022701723501086235
134.60107300,134601073,0.00120595283806324
134.62109700,134621097,0.00120595283806324
134.64113000,134641130,0.0022701723501086235
134.66165000,134661650,0.0022701723501086235
134.68167300,134681673,0.0022701723501086235
134.70190900,134701909,0.0022701723501086235
134.72243300,134722433,0.00120595283806324
134.74245600,134742456,0.0022701723501086235
134.76247900,134762479,0.0022701723501086235
134.78300500,134783005,0.0022701723501086235
134.80303000,134803030,0.0022701723501086235
134.82356400,134823564,0.0022701723501086235
134.84358400,134843584,0.0022701723501086235
134.86367900,134863679,0.0022701723501086235
134.88413500,134884135,0.00120595283806324
134.90416400,134904164,0.00120595283806324
134.92481000,134924810,0.0022701723501086235
134.94483900,134944839,0.0022701723501086235
134.96485800,134964858,0.0022701723501086235
134.98538500,134985385,0.0022701723501086235
135.00540800,135005408,0.0022701723501086235
135.02543300,135025433,0.00120595283806324
135.04595500,135045955,0.0022701723501086235
135.06598400,135065984,0.00120595283806324
135.08651000,135086510,0.00120595283806324
135.10653600,135106536,0.00120595283806324
135.12656300,135126563,0.0022701723501086235
135.14709000,135147090,0.0022701723501086235
135.16711000,135167110,0.0022701723501086235
135.18764200,135187642,0.0022701723501086235
135.20771900,135207719,0.0022701723501086235
135.22780900,135227809,0.00120595283806324
135.24833700,135248337,0.0022701723501086235
135.26841900,135268419,0.0022701723501086235
135.28838900,135288389,0.0022701723501086235
135.30891400,135308914,0.0022701723501086235
135.32893800,135328938,0.0022701723501086235
135.34946100,135349461,0.00120595283806324
135.36951000,135369510,0.00120595283806324
135.38951100,135389511,0.00120595283806324
135.41003300,135410033,0.0022701723501086235
135.43006000,135430060,0.0022701723501086235
135.45058400,135450584,0.0022701723501086235
135.47061400,135470614,0.0022701723501086235
135.49113700,135491137,0.00120595283806324
135.51116200,135511162,0.0022701723501086235
135.53132100,135531321,0.0022701723501086235
135.55135600,135551356,0.0022701723501086235
135.57190600,135571906,0.00120595283806324
135.59191200,135591912,0.00120595283806324
135.61243600,135612436,0.0022701723501086235
135.63252600,135632526,0.0022701723501086235
135.65249000,135652490,0.0022701723501086235
135.67301200,135673012,0.0022701723501086235
135.69303800,135693038,0.0022701723501086235
135.71355900,135713559,0.0022701723501086235
135.73358400,135733584,0.00120595283806324
135.75361800,135753618,0.0022701723501086235
135.77414700,135774147,0.0022701723501086235
135.79417600,135794176,0.0022701723501086235
135.81431200,135814312,0.00120595283806324
135.83486400,135834864,0.0022701723501086235
135.85488700,135854887,0.0022701723501086235
135.87541500,135875415,0.00120595283806324
135.89544300,135895443,0.0022701723501086235
135.91546100,135915461,0.00120595283806324
135.93599000,135935990,0.0022701723501086235
135.95601400,135956014,0.00120595283806324
135.97653900,135976539,0.0022701723501086235
135.99656300,135996563,0.00120595283806324
136.01658700,136016587,0.00120595283806324
136.03712400,136037124,0.00120595283806324
136.05714600,136057146,0.0022701723501086235
136.07766800,136077668,0.00120595283806324
136.09783900,136097839,0.0022701723501086235
136.11786100,136117861,0.0022701723501086235
136.13838800,136138388,0.0022701723501086235
136.15840900,136158409,0.0022701723501086235
136.17843400,136178434,0.0022701723501086235
136.19896100,136198961,0.00120595283806324
136.21898600,136218986,0.0022701723501086235
136.23951500,136239515,0.00120595283806324
136.25960100,136259601,0.00120595283806324
136.27955800,136279558,0.00120595283806324
136.30009700,136300097,0.00120595283806324
136.32011500,136320115,0.00120595283806324
136.34064000,136340640,0.0022701723501086235
136.36072700,136360727,0.00120595283806324
136.38080700,136380807,0.0022701723501086235
136.40139900,136401399,0.003334391862154007
136.42135200,136421352,0.00120595283806324
136.44138000,136441380,0.0022701723501086235
136.46197500,136461975,0.00120595283806324
136.48196600,136481966,0.0022701723501086235
136.50248100,136502481,0.00120595283806324
136.52250100,136522501,0.0022701723501086235
136.54258500,136542585,0.0022701723501086235
136.56304900,136563049,0.00120595283806324
136.58307400,136583074,0.00120595283806324
136.60359700,136603597,0.0022701723501086235
136.62362400,136623624,0.00120595283806324
136.64364900,136643649,0.0022701723501086235
136.66417100,136664171,0.00120595283806324
136.68434800,136684348,0.0022701723501086235
136.70438600,136704386,0.0022701723501086235
136.72491000,136724910,0.00120595283806324
136.74493000,136744930,0.0022701723501086235
136.76495700,136764957,0.0022701723501086235
136.78547900,136785479,0.0022701723501086235
136.80550600,136805506,0.0022701723501086235
136.82602800,136826028,0.00120595283806324
136.84605700,136846057,0.00120595283806324
136.86658100,136866581,0.00120595283806324
136.88660600,136886606,0.0022701723501086235
136.90666300,136906663,0.0022701723501086235
136.92715700,136927157,0.0022701723501086235
136.94722300,136947223,0.00120595283806324
136.96731000,136967310,0.00120595283806324
136.98783200,136987832,0.0022701723501086235
137.00786100,137007861,0.0022701723501086235
137.02844500,137028445,0.00120595283806324
137.04841400,137048414,0.0022701723501086235
137.06844300,137068443,0.00120595283806324
137.08902500,137089025,0.0022701723501086235
137.10899700,137108997,0.0022701723501086235
137.12952200,137129522,0.003334391862154007
137.14954600,137149546,0.0022701723501086235
137.16957100,137169571,0.0022701723501086235
137.19009200,137190092,0.00120595283806324
137.21011900,137210119,0.00120595283806324
137.23064200,137230642,0.0022701723501086235
137.25066600,137250666,0.003334391862154007
137.29130900,137291309,0.00120595283806324
137.33133900,137331339,0.00120595283806324
137.37190600,137371906,0.00120595283806324
137.41243000,137412430,0.0022701723501086235
137.45295300,137452953,0.00120595283806324
137.49347600,137493476,0.00120595283806324
137.53400400,137534004,0.00120595283806324
137.57453000,137574530,0.0022701723501086235
137.61461400,137614614,0.00120595283806324
137.65508400,137655084,0.0022701723501086235
137.69560900,137695609,0.0022701723501086235
137.73613000,137736130,0.0022701723501086235
137.77665300,137776653,0.0022701723501086235
137.81719200,137817192,0.00120595283806324
137.85737100,137857371,0.0022701723501086235
137.89783800,137897838,0.0022701723501086235
137.93836100,137938361,0.00120595283806324
137.97888700,137978887,0.0022701723501086235
138.01946700,138019467,0.00120595283806324
138.05993300,138059933,0.0022701723501086235
138.09996100,138099961,0.0022701723501086235
138.14048500,138140485,0.0001417333260178566
138.18106900,138181069,0.003334391862154007
138.22153200,138221532,0.00120595283806324
138.26206000,138262060,0.0022701723501086235
138.30258200,138302582,0.0022701723501086235
138.34310700,138343107,0.0022701723501086235
138.38313200,138383132,0.00120595283806324
138.42365400,138423654,0.0022701723501086235
138.46421300,138464213,0.0022701723501086235
138.50485000,138504850,0.0022701723501086235
138.54537100,138545371,0.0022701723501086235
138.58539700,138585397,0.0022701723501086235
138.62598100,138625981,0.0022701723501086235
138.66650700,138666507,0.0022701723501086235
138.70697400,138706974,0.0022701723501086235
138.74749300,138747493,0.0022701723501086235
138.79167000,138791670,0.00120595283806324
138.82813500,138828135,0.00120595283806324
138.86866000,138868660,0.00120595283806324
138.90934400,138909344,0.0022701723501086235
138.94986800,138949868,0.00120595283806324
138.99045000,138990450,0.0022701723501086235
139.03041600,139030416,0.0022701723501086235
139.07093700,139070937,0.0022701723501086235
139.11146200,139111462,0.0022701723501086235
139.15199600,139151996,0.00120595283806324
139.19251900,139192519,0.00120595283806324
139.23305000,139233050,0.00120595283806324
139.27357500,139273575,0.0022701723501086235
139.31360500,139313605,0.00120595283806324
139.35412500,139354125,0.0022701723501086235
139.39465100,139394651,0.003334391862154007
139.43517400,139435174,0.0022701723501086235
139.47581100,139475811,0.0022701723501086235
139.51633700,139516337,0.0022701723501086235
139.55637200,139556372,0.0022701723501086235
139.59690000,139596900,0.00120595283806324
139.63742100,139637421,0.0022701723501086235
139.67800300,139678003,0.0022701723501086235
139.71846700,139718467,0.0022701723501086235
139.75899200,139758992,0.00120595283806324
139.79951300,139799513,0.0022701723501086235
139.83954500,139839545,0.00120595283806324
139.88006900,139880069,0.00120595283806324
139.92059300,139920593,0.0022701723501086235
139.96112000,139961120,0.0022701723501086235
140.00164400,140001644,0.00120595283806324
140.04216800,140042168,0.0022701723501086235
140.08231200,140082312,0.00120595283806324
140.12284000,140122840,0.00120595283806324
140.16336500,140163365,0.00120595283806324
140.20388900,140203889,0.00120595283806324
140.24441900,140244419,0.0022701723501086235
140.28496700,140284967,0.00120595283806324
140.32498800,140324988,0.0022701723501086235
140.36551300,140365513,0.0022701723501086235
140.40604100,140406041,0.0022701723501086235
140.44656600,140446566,0.00120595283806324
140.48708700,140487087,0.00120595283806324
140.52761000,140527610,0.00120595283806324
140.56813600,140568136,0.00120595283806324
140.60815700,140608157,0.0022701723501086235
140.64871300,140648713,0.0022701723501086235
140.68931000,140689310,0.0022701723501086235
140.72983000,140729830,0.0022701723501086235
140.77035400,140770354,0.0022701723501086235
140.81087800,140810878,0.0022701723501086235
140.85090200,140850902,0.00120595283806324
140.89148200,140891482,0.00120595283806324
140.93200800,140932008,0.0022701723501086235
140.97247700,140972477,0.00120595283806324
141.01300300,141013003,0.0022701723501086235
141.05352300,141053523,0.0022701723501086235
141.09404900,141094049,0.0022701723501086235
141.13407900,141134079,0.00120595283806324
141.17460300,141174603,0.00120595283806324
141.21512700,141215127,0.0022701723501086235
141.25565100,141255651,0.0022701723501086235
141.29617200,141296172,0.0022701723501086235
141.33630900,141336309,0.0022701723501086235
141.37683200,141376832,0.0022701723501086235
141.41735500,141417355,0.00120595283806324
141.45787700,141457877,0.00120595283806324
141.49840300,141498403,0.0022701723501086235
141.53892600,141538926,0.0022701723501086235
141.57945700,141579457,0.00120595283806324
141.61954200,141619542,0.0022701723501086235
141.65999900,141659999,0.003334391862154007
141.70052000,141700520,0.0022701723501086235
141.74104800,141741048,0.0022701723501086235
141.78156800,141781568,0.00120595283806324
141.82209300,141822093,0.0022701723501086235
141.86261900,141862619,0.0022701723501086235
141.90314300,141903143,0.0022701723501086235
141.94322600,141943226,0.0022701723501086235
141.98381800,141983818,0.00120595283806324
142.02434200,142024342,0.00120595283806324
142.06486500,142064865,0.0022701723501086235
142.10539000,142105390,0.0022701723501086235
142.14541600,142145416,0.0022701723501086235
142.18593800,142185938,0.0022701723501086235
142.22646100,142226461,0.003334391862154007
142.30748800,142307488,0.0022701723501086235
142.38850800,142388508,0.0022701723501086235
142.46908300,142469083,0.0022701723501086235
142.55006200,142550062,0.00120595283806324
142.63108700,142631087,0.0022701723501086235
142.71211100,142712111,0.0022701723501086235
142.79313200,142793132,0.0022701723501086235
142.87366700,142873667,0.00120595283806324
142.95481100,142954811,0.0022701723501086235
143.03583400,143035834,0.00120595283806324
143.11635700,143116357,0.0022701723501086235
143.19738200,143197382,0.00120595283806324
143.27840600,143278406,0.00120595283806324
143.35943000,143359430,0.0022701723501086235
143.43995200,143439952,0.0022701723501086235
143.52097600,143520976,0.00120595283806324
143.60200400,143602004,0.0022701723501086235
143.68302600,143683026,0.00120595283806324
143.76354400,143763544,0.0022701723501086235
143.84457800,143844578,0.0022701723501086235
143.92559500,143925595,0.0022701723501086235
144.00662000,144006620,0.0022701723501086235
144.08764100,144087641,0.00120595283806324
144.16816300,144168163,0.00120595283806324
144.24932000,144249320,0.0022701723501086235
144.33034300,144330343,0.0022701723501086235
144.41086500,144410865,0.0022701723501086235
144.49189400,144491894,0.0022701723501086235
144.57291300,144572913,0.00120595283806324
144.65394400,144653944,0.00120595283806324
144.73450300,144734503,0.0022701723501086235
144.81549500,144815495,0.0022701723501086235
144.89653000,144896530,0.00120595283806324
144.97755300,144977553,0.0022701723501086235
145.05807900,145058079,0.0022701723501086235
145.13912500,145139125,0.0022701723501086235
145.22014900,145220149,0.0022701723501086235
145.30117300,145301173,0.0022701723501086235
145.38188200,145381882,0.0022701723501086235
145.46290000,145462900,0.0022701723501086235
145.54393200,145543932,0.00120595283806324
145.62447100,145624471,0.0022701723501086235
145.70549000,145705490,0.00120595283806324
145.78652600,145786526,0.00120595283806324
145.86755000,145867550,0.0022701723501086235
145.94806800,145948068,0.00120595283806324
146.02910100,146029101,0.00120595283806324
146.11012500,146110125,0.0022701723501086235
146.19115000,146191150,0.0022701723501086235
146.27217500,146272175,0.0022701723501086235
146.35286100,146352861,0.0022701723501086235
146.43392700,146433927,0.0022701723501086235
146.51445800,146514458,0.00120595283806324
146.59547800,146595478,0.0022701723501086235
146.67651200,146676512,0.0022701723501086235
146.75753900,146757539,0.0022701723501086235
146.83855900,146838559,0.00120595283806324
146.91909700,146919097,0.003334391862154007
147.00011100,147000111,0.0022701723501086235
147.08113400,147081134,0.0022701723501086235
147.16216300,147162163,0.0022701723501086235
147.24287500,147242875,0.00120595283806324
147.25190800,147251908,0.003334391862154007
147.25243800,147252438,0.0022701723501086235
147.25295200,147252952,-0.0009224861860275269
147.25348600,147253486,0.003334391862154007
147.25402200,147254022,0.003334391862154007
147.25457100,147254571,0.00120595283806324
147.25510200,147255102,0.003334391862154007
147.25561800,147255618,0.00120595283806324
147.25614500,147256145,0.0022701723501086235
147.25667800,147256678,0.003334391862154007
147.25734700,147257347,0.0022701723501086235
147.25736700,147257367,0.0022701723501086235
147.25785900,147257859,0.0022701723501086235
147.25839700,147258397,0.0022701723501086235
147.25893100,147258931,0.0022701723501086235
147.25946000,147259460,0.00120595283806324
147.25999200,147259992,0.0001417333260178566
147.26051200,147260512,0.00120595283806324
147.26104700,147261047,0.0022701723501086235
147.26158800,147261588,0.003334391862154007
147.26210500,147262105,0.003334391862154007
147.26262500,147262625,0.0022701723501086235
147.26314700,147263147,0.0022701723501086235
147.26367500,147263675,0.0022701723501086235
147.26435400,147264354,0.0022701723501086235
147.26490500,147264905,0.00120595283806324
147.26493000,147264930,0.0022701723501086235
147.26540000,147265400,0.00120595283806324
147.26592900,147265929,0.0001417333260178566
147.26645900,147266459,0.0022701723501086235
147.26699200,147266992,0.003334391862154007
147.26751200,147267512,0.00120595283806324
147.26803200,147268032,0.0022701723501086235
147.26856000,147268560,0.003334391862154007
147.26910000,147269100,0.0022701723501086235
147.26962600,147269626,0.00120595283806324
147.27014900,147270149,0.00120595283806324
147.27067200,147270672,0.00120595283806324
147.27141900,147271419,0.0022701723501086235
147.27201300,147272013,0.003334391862154007
147.27203900,147272039,0.0022701723501086235
147.27250700,147272507,0.003334391862154007
147.27302800,147273028,0.0022701723501086235
147.27356000,147273560,0.0022701723501086235
147.27409800,147274098,0.00120595283806324
147.27463000,147274630,0.00120595283806324
147.27514600,147275146,0.0001417333260178566
147.27567000,147275670,0.0022701723501086235
147.27637000,147276370,0.00120595283806324
147.27689500,147276895,0.0001417333260178566
147.27742200,147277422,0.00120595283806324
147.27794200,147277942,0.00120595283806324
147.27847500,147278475,0.0001417333260178566
147.27900700,147279007,0.0022701723501086235
147.27956300,147279563,0.003334391862154007
147.27958400,147279584,0.003334391862154007
147.28006200,147280062,0.00120595283806324
147.28058300,147280583,0.0001417333260178566
147.28111300,147281113,0.00120595283806324
147.28165700,147281657,0.00120595283806324
147.28227100,147282271,0.0001417333260178566
147.28286600,147282866,-0.0009224861860275269
147.28339300,147283393,0.0001417333260178566
147.28393300,147283933,0.00120595283806324
147.28446600,147284466,0.0022701723501086235
147.28499100,147284991,0.0022701723501086235
147.28551300,147285513,0.00120595283806324
147.28603600,147286036,0.00120595283806324
147.28658700,147286587,0.00120595283806324
147.28709600,147287096,0.0001417333260178566
147.28765100,147287651,0.0022701723501086235
147.28767200,147287672,0.003334391862154007
147.28814500,147288145,0.0022701723501086235
147.28866800,147288668,0.003334391862154007
147.28934700,147289347,0.0022701723501086235
147.28987400,147289874,0.00120595283806324
147.29040200,147290402,0.00120595283806324
147.29092800,147290928,0.00120595283806324
147.29145800,147291458,0.00120595283806324
147.29198900,147291989,0.00120595283806324
147.29251600,147292516,0.0022701723501086235
147.29303300,147293033,0.003334391862154007
147.29355900,147293559,0.0022701723501086235
147.29409400,147294094,0.0022701723501086235
147.29461900,147294619,0.0022701723501086235
147.29514500,147295145,0.00120595283806324
147.29567000,147295670,0.0001417333260178566
147.29645200,147296452,0.00120595283806324
147.29647600,147296476,0.00120595283806324
147.29695500,147296955,0.0022701723501086235
147.29747900,147297479,0.0022701723501086235
147.29799900,147297999,0.0001417333260178566
147.29853000,147298530,0.0001417333260178566
147.29907700,147299077,0.00120595283806324
147.29959000,147299590,0.00120595283806324
147.30011400,147300114,0.00120595283806324
147.30063600,147300636,0.00120595283806324
147.30116500,147301165,0.0001417333260178566
147.30190800,147301908,0.00120595283806324
147.30192900,147301929,0.0001417333260178566
147.30240400,147302404,0.00120595283806324
147.30292500,147302925,0.00120595283806324
147.30344600,147303446,0.0001417333260178566
147.30397800,147303978,0.0001417333260178566
147.30451000,147304510,0.00120595283806324
147.30503200,147305032,0.0022701723501086235
147.30555100,147305551,0.0022701723501086235
147.30607500,147306075,0.003334391862154007
147.30662000,147306620,0.0022701723501086235
147.30714100,147307141,0.0022701723501086235
147.30766600,147307666,0.0022701723501086235
147.30833800,147308338,0.0022701723501086235
147.30895200,147308952,0.003334391862154007
147.30897300,147308973,0.0022701723501086235
147.30946200,147309462,0.00120595283806324
147.30998900,147309989,0.00120595283806324
147.31050500,147310505,0.00120595283806324
147.31103300,147311033,0.0001417333260178566
147.31157600,147311576,0.00120595283806324
147.31209400,147312094,0.003334391862154007
147.31261700,147312617,0.00120595283806324
147.31314100,147313141,0.00120595283806324
147.31366400,147313664,0.00439861137419939
147.31438200,147314382,0.0022701723501086235
147.31490700,147314907,0.00120595283806324
147.31545100,147315451,0.003334391862154007
147.31547100,147315471,0.00120595283806324
147.31595900,147315959,0.00120595283806324
147.31649300,147316493,0.00120595283806324
147.31702200,147317022,0.00120595283806324
147.31754700,147317547,0.0022701723501086235
147.31807000,147318070,0.0022701723501086235
147.31859200,147318592,0.0022701723501086235
147.31913000,147319130,0.0022701723501086235
147.31965700,147319657,0.0022701723501086235
147.32017600,147320176,0.0022701723501086235
147.32086400,147320864,0.0022701723501086235
147.32142600,147321426,0.0022701723501086235
147.32195900,147321959,0.003334391862154007
147.32248600,147322486,0.00439861137419939
147.32300400,147323004,0.0022701723501086235
147.32355800,147323558,0.0001417333260178566
147.32357900,147323579,0.00120595283806324
147.32408300,147324083,0.00439861137419939
147.32459900,147324599,0.0022701723501086235
147.32512300,147325123,0.00120595283806324
147.32564100,147325641,0.003334391862154007
147.32617200,147326172,0.00120595283806324
147.32688100,147326881,0.0001417333260178566
147.32740600,147327406,0.00439861137419939
147.32792900,147327929,0.003334391862154007
147.32846000,147328460,0.0022701723501086235
147.32898900,147328989,0.0022701723501086235
147.32952100,147329521,0.0022701723501086235
147.33004400,147330044,0.0022701723501086235
147.33056600,147330566,0.003334391862154007
147.33109300,147331093,0.00120595283806324
147.33165900,147331659,0.0001417333260178566
147.33168000,147331680,0.00120595283806324
147.33215600,147332156,0.00120595283806324
147.33277200,147332772,0.0001417333260178566
147.33336500,147333365,0.0001417333260178566
147.33392300,147333923,0.00120595283806324
147.33445900,147334459,0.003334391862154007
147.33498600,147334986,0.00439861137419939
147.33550700,147335507,0.0022701723501086235
147.33603100,147336031,0.00120595283806324
147.33656300,147336563,0.00120595283806324
147.33709000,147337090,0.003334391862154007
147.33761500,147337615,0.0022701723501086235
147.33813700,147338137,0.00120595283806324
147.33866300,147338663,0.003334391862154007
147.33938800,147339388,0.0022701723501086235
147.33944400,147339444,0.003334391862154007
147.33988000,147339880,0.0022701723501086235
147.34040200,147340402,0.0022701723501086235
147.34093000,147340930,0.0022701723501086235
147.34145600,147341456,0.0022701723501086235
147.34199000,147341990,0.00120595283806324
147.34250900,147342509,0.00120595283806324
147.34303200,147343032,0.0022701723501086235
147.34355900,147343559,0.0022701723501086235
147.34409700,147344097,0.0022701723501086235
147.34461900,147344619,0.003334391862154007
147.34514500,147345145,0.0022701723501086235
147.34566900,147345669,0.00120595283806324
147.34644900,147346449,0.0022701723501086235
147.34647000,147346470,0.0022701723501086235
147.34695600,147346956,0.0001417333260178566
147.34747900,147347479,0.0022701723501086235
147.34799600,147347996,0.003334391862154007
147.34852500,147348525,0.00120595283806324
147.34906600,147349066,0.0022701723501086235
147.34958500,147349585,0.005462830886244774
147.35010800,147350108,0.00120595283806324
147.35063000,147350630,0.0022701723501086235
147.35115600,147351156,0.003334391862154007
147.35177100,147351771,0.00120595283806324
147.35240000,147352400,0.00120595283806324
147.35242100,147352421,0.00120595283806324
147.35289300,147352893,0.0022701723501086235
147.35342700,147353427,0.00120595283806324
147.35395600,147353956,0.00120595283806324
147.35449400,147354494,0.00120595283806324
147.35501800,147355018,0.0022701723501086235
147.35554100,147355541,0.0022701723501086235
147.35606900,147356069,0.0022701723501086235
147.35659900,147356599,0.00120595283806324
147.35712700,147357127,0.00120595283806324
147.35765200,147357652,0.00120595283806324
147.35817100,147358171,0.00120595283806324
147.35887800,147358878,0.0022701723501086235
147.35940900,147359409,0.0022701723501086235
147.35995500,147359955,0.00120595283806324
147.35997800,147359978,-0.0009224861860275269
147.36045100,147360451,0.00120595283806324
147.36097800,147360978,0.003334391862154007
147.36151000,147361510,0.00120595283806324
147.36203700,147362037,0.003334391862154007
147.36256100,147362561,0.003334391862154007
147.36308200,147363082,0.0001417333260178566
147.36360800,147363608,0.0022701723501086235
147.36415500,147364155,0.0022701723501086235
147.36473200,147364732,0.0022701723501086235
147.36536700,147365367,0.0022701723501086235
147.36589500,147365895,0.0022701723501086235
147.36643400,147366434,0.00120595283806324
147.36700200,147367002,0.0001417333260178566
147.36749600,147367496,0.00120595283806324
147.36804200,147368042,0.00120595283806324
147.36806300,147368063,0.00120595283806324
147.36855600,147368556,0.0022701723501086235
147.36908800,147369088,0.003334391862154007
147.36961400,147369614,0.003334391862154007
147.37013800,147370138,0.0022701723501086235
147.37066000,147370660,0.003334391862154007
147.37139400,147371394,0.003334391862154007
147.37189700,147371897,0.0022701723501086235
147.37242000,147372420,0.0001417333260178566
147.37293800,147372938,0.0001417333260178566
147.37346500,147373465,0.0022701723501086235
147.37399700,147373997,0.00120595283806324
147.37453500,147374535,0.00120595283806324
147.37505400,147375054,0.00120595283806324
147.37557800,147375578,0.0001417333260178566
147.37610000,147376100,0.0001417333260178566
147.37667500,147376675,0.00120595283806324
147.37669500,147376695,0.0022701723501086235
147.37717900,147377179,0.0022701723501086235
147.37786500,147377865,0.0022701723501086235
147.37839500,147378395,0.00120595283806324
147.37894300,147378943,0.0022701723501086235
147.37947300,147379473,0.0022701723501086235
147.37999600,147379996,0.00120595283806324
147.38051600,147380516,0.0022701723501086235
147.38104300,147381043,0.0022701723501086235
147.38158500,147381585,0.00120595283806324
147.38210200,147382102,0.00120595283806324
147.38263100,147382631,0.0001417333260178566
147.38315200,147383152,0.0001417333260178566
147.38372300,147383723,0.0022701723501086235
147.38374500,147383745,0.00120595283806324
147.38438100,147384381,0.0001417333260178566
147.38490200,147384902,0.0022701723501086235
147.38542600,147385426,0.00120595283806324
147.38595900,147385959,0.00120595283806324
147.38649200,147386492,0.003334391862154007
147.38701900,147387019,0.003334391862154007
147.38755100,147387551,0.0022701723501086235
147.38806700,147388067,0.00120595283806324
147.38859700,147388597,0.00120595283806324
147.38912900,147389129,0.003334391862154007
147.38965800,147389658,0.0022701723501086235
147.39024600,147390246,0.00120595283806324
147.39090000,147390900,0.0022701723501086235
147.39092100,147390921,0.0022701723501086235
147.39143000,147391430,0.003334391862154007
147.39197100,147391971,0.0022701723501086235
147.39248200,147392482,0.00120595283806324
147.39300000,147393000,0.00120595283806324
147.39353300,147393533,0.00120595283806324
147.39407400,147394074,0.00120595283806324
147.39459000,147394590,0.00120595283806324
147.39511500,147395115,0.0022701723501086235
147.39563800,147395638,0.00120595283806324
147.39616600,147396166,0.0022701723501086235
147.39690500,147396905,0.0022701723501086235
147.39692600,147396926,0.0022701723501086235
147.39740800,147397408,0.0022701723501086235
147.39792100,147397921,0.0022701723501086235
147.39846000,147398460,0.00120595283806324
147.39899000,147398990,0.00120595283806324
147.39952500,147399525,0.00120595283806324
147.40004600,147400046,0.00120595283806324
147.40056800,147400568,0.0022701723501086235
147.40109200,147401092,0.00120595283806324
147.40163800,147401638,0.0001417333260178566
147.40217300,147402173,0.0001417333260178566
147.40284100,147402841,0.00120595283806324
147.40336800,147403368,0.003334391862154007
147.40395700,147403957,0.0022701723501086235
147.40397800,147403978,0.0022701723501086235
147.40445900,147404459,0.0022701723501086235
147.40498500,147404985,0.00120595283806324
147.40550500,147405505,0.0001417333260178566
147.40603600,147406036,0.0001417333260178566
147.40658300,147406583,0.00120595283806324
147.40709700,147407097,0.0022701723501086235
147.40762200,147407622,0.0022701723501086235
147.40814300,147408143,0.00120595283806324
147.40867000,147408670,0.003334391862154007
147.40938200,147409382,0.003334391862154007
147.40990700,147409907,0.00120595283806324
147.41043100,147410431,0.0022701723501086235
147.41095700,147410957,0.003334391862154007
147.41148900,147411489,0.0022701723501086235
147.41208500,147412085,0.003334391862154007
147.41210700,147412107,0.003334391862154007
147.41258500,147412585,0.0022701723501086235
147.41310700,147413107,0.00120595283806324
147.41363200,147413632,0.00120595283806324
147.41416400,147414164,0.00120595283806324
147.41487800,147414878,0.00120595283806324
147.41539500,147415395,0.00120595283806324
147.41592800,147415928,0.0022701723501086235
147.41646400,147416464,0.00120595283806324
147.41698800,147416988,0.00120595283806324
147.41751200,147417512,0.0022701723501086235
147.41803500,147418035,0.003334391862154007
147.41855900,147418559,0.003334391862154007
147.41911900,147419119,0.0022701723501086235
147.41914000,147419140,0.00120595283806324
147.41961900,147419619,0.0022701723501086235
147.42014300,147420143,0.003334391862154007
147.42066500,147420665,0.0001417333260178566
147.42140300,147421403,0.00120595283806324
147.42193300,147421933,0.0022701723501086235
147.42245500,147422455,0.0001417333260178566
147.42297500,147422975,0.0001417333260178566
147.42350300,147423503,0.003334391862154007
147.42403700,147424037,0.00120595283806324
147.42456000,147424560,0.00120595283806324
147.42508800,147425088,0.00120595283806324
147.42561100,147425611,0.00120595283806324
147.42613500,147426135,0.00120595283806324
147.42666900,147426669,0.0022701723501086235
147.42740100,147427401,0.0022701723501086235
147.42742200,147427422,0.0022701723501086235
147.42789300,147427893,0.00120595283806324
147.42842100,147428421,0.00120595283806324
147.42895000,147428950,0.0022701723501086235
147.42949800,147429498,0.0022701723501086235
147.43001400,147430014,0.0001417333260178566
147.43053800,147430538,0.00120595283806324
147.43106400,147431064,0.0022701723501086235
147.43159500,147431595,0.00439861137419939
147.43212200,147432122,0.0022701723501086235
147.43264500,147432645,0.0022701723501086235
147.43317300,147433173,0.003334391862154007
147.43392700,147433927,0.0001417333260178566
147.43394800,147433948,0.00120595283806324
147.43443200,147434432,0.00439861137419939
147.43495700,147434957,0.0001417333260178566
147.43547800,147435478,0.0001417333260178566
147.43600900,147436009,0.0022701723501086235
147.43655500,147436555,0.00120595283806324
147.43708100,147437081,0.00120595283806324
147.43760700,147437607,0.00120595283806324
147.43812900,147438129,0.00120595283806324
147.43865400,147438654,0.0022701723501086235
147.43922000,147439220,0.0022701723501086235
147.43990000,147439900,0.0022701723501086235
147.43992200,147439922,0.00120595283806324
147.44039300,147440393,0.00120595283806324
147.44092000,147440920,0.0022701723501086235
147.44145200,147441452,0.0022701723501086235
147.44198200,147441982,0.0022701723501086235
147.44250800,147442508,0.00120595283806324
147.44302800,147443028,-0.0009224861860275269
147.44355400,147443554,0.00120595283806324
147.44409100,147444091,0.00120595283806324
147.44461600,147444616,0.0022701723501086235
147.44513900,147445139,0.0022701723501086235
147.44566200,147445662,0.0001417333260178566
147.44640400,147446404,0.0022701723501086235
147.44696300,147446963,0.003334391862154007
147.44698400,147446984,0.00120595283806324
147.44745900,147447459,0.00120595283806324
147.44797900,147447979,0.00120595283806324
147.44851100,147448511,0.00120595283806324
147.44904600,147449046,0.0001417333260178566
147.44957400,147449574,0.00120595283806324
147.45009500,147450095,0.00120595283806324
147.45062300,147450623,0.00120595283806324
147.45115000,147451150,0.00120595283806324
147.45168300,147451683,0.0022701723501086235
147.45231900,147452319,0.0022701723501086235
147.45286500,147452865,0.003334391862154007
147.45339300,147453393,0.0022701723501086235
147.45393100,147453931,0.00120595283806324
147.45446300,147454463,0.00120595283806324
147.45502300,147455023,0.0022701723501086235
147.45504400,147455044,0.00439861137419939
147.45551600,147455516,0.00439861137419939
147.45603900,147456039,0.0022701723501086235
147.45659000,147456590,0.0001417333260178566
147.45710500,147457105,0.00120595283806324
147.45763200,147457632,0.0001417333260178566
147.45815200,147458152,0.00120595283806324
147.45872200,147458722,0.00120595283806324
147.45935300,147459353,0.00120595283806324
147.45988400,147459884,0.0022701723501086235
147.46040600,147460406,0.00120595283806324
147.46093000,147460930,0.0001417333260178566
147.46146700,147461467,0.00120595283806324
147.46199700,147461997,0.0022701723501086235
147.46252300,147462523,0.0022701723501086235
147.46304500,147463045,0.00120595283806324
147.46357100,147463571,0.00120595283806324
147.46413000,147464130,0.0022701723501086235
147.46415100,147464151,0.0022701723501086235
147.46463500,147464635,0.003334391862154007
147.46515400,147465154,0.0022701723501086235
147.46567800,147465678,0.0022701723501086235
147.46640400,147466404,0.0022701723501086235
147.46693300,147466933,0.003334391862154007
147.46746100,147467461,0.00120595283806324
147.46797900,147467979,0.0001417333260178566
147.46851200,147468512,0.0022701723501086235
147.46904400,147469044,0.003334391862154007
147.46957000,147469570,0.00120595283806324
147.47009400,147470094,0.0022701723501086235
147.47061400,147470614,0.0022701723501086235
147.47113900,147471139,0.00120595283806324
147.47170800,147471708,0.00120595283806324
147.47172900,147471729,0.0022701723501086235
147.47231600,147472316,0.00120595283806324
147.47286900,147472869,0.0022701723501086235
147.47340000,147473400,0.00120595283806324
147.47393200,147473932,0.00120595283806324
147.47446900,147474469,0.0001417333260178566
147.47499000,147474990,-0.0009224861860275269
147.47551500,147475515,0.0001417333260178566
147.47603800,147476038,0.00120595283806324
147.47658300,147476583,0.0022701723501086235
147.47710000,147477100,0.0022701723501086235
147.47762800,147477628,0.00120595283806324
147.47814700,147478147,0.0022701723501086235
147.47867100,147478671,0.0022701723501086235
147.47938000,147479380,0.0022701723501086235
147.47940600,147479406,0.003334391862154007
147.47987500,147479875,0.003334391862154007
147.48039700,147480397,0.0022701723501086235
147.48092100,147480921,0.00120595283806324
147.48145700,147481457,0.003334391862154007
147.48198800,147481988,0.003334391862154007
147.48251100,147482511,0.0022701723501086235
147.48303200,147483032,0.00439861137419939
147.48356200,147483562,0.00439861137419939
147.48409400,147484094,0.0022701723501086235
147.48462100,147484621,0.003334391862154007
147.48514300,147485143,0.0022701723501086235
147.48567000,147485670,0.00120595283806324
147.48636100,147486361,0.00120595283806324
147.48691100,147486911,0.00120595283806324
147.48693400,147486934,0.00120595283806324
147.48741600,147487416,0.0001417333260178566
147.48793100,147487931,0.00120595283806324
147.48845500,147488455,0.0022701723501086235
147.48898700,147488987,0.0022701723501086235
147.48951600,147489516,0.0022701723501086235
147.49003900,147490039,0.0022701723501086235
147.49056800,147490568,0.00120595283806324
147.49108700,147491087,0.003334391862154007
147.49163900,147491639,0.003334391862154007
147.49216600,147492166,0.00120595283806324
147.49283700,147492837,0.003334391862154007
147.49336400,147493364,0.00120595283806324
147.49392300,147493923,-0.0019867056980729103
147.49448400,147494484,0.00120595283806324
147.49450600,147494506,0.0022701723501086235
147.49498000,147494980,0.0001417333260178566
147.49550000,147495500,0.0001417333260178566
147.49602800,147496028,0.0001417333260178566
147.49657800,147496578,0.00120595283806324
147.49709100,147497091,0.0022701723501086235
147.49761300,147497613,0.0022701723501086235
147.49813300,147498133,0.0022701723501086235
147.49865900,147498659,0.00120595283806324
147.49922800,147499228,0.00120595283806324
147.49987600,147499876,0.00120595283806324
147.50039500,147500395,0.003334391862154007
147.50093000,147500930,0.003334391862154007
147.50146100,147501461,0.0022701723501086235
147.50200500,147502005,0.0022701723501086235
147.50251500,147502515,0.003334391862154007
147.50306200,147503062,0.003334391862154007
147.50308500,147503085,0.003334391862154007
147.50356200,147503562,0.003334391862154007
147.50409700,147504097,0.00120595283806324
147.50462400,147504624,0.0022701723501086235
147.50514900,147505149,0.0022701723501086235
147.50567100,147505671,0.0001417333260178566
147.50636500,147506365,0.00120595283806324
147.50690100,147506901,0.0022701723501086235
147.50742500,147507425,0.0001417333260178566
147.50794200,147507942,0.0001417333260178566
147.50847800,147508478,0.0001417333260178566
147.50900800,147509008,0.00120595283806324
147.50953800,147509538,0.0022701723501086235
147.51006200,147510062,0.0001417333260178566
147.51058400,147510584,0.0001417333260178566
147.51111300,147511113,0.00120595283806324
147.51168200,147511682,0.00120595283806324
147.51170500,147511705,0.00120595283806324
147.51222800,147512228,0.0022701723501086235
147.51283800,147512838,0.003334391862154007
147.51336300,147513363,0.00439861137419939
147.51393500,147513935,0.003334391862154007
147.51447300,147514473,0.0022701723501086235
147.51499500,147514995,0.00120595283806324
147.51552000,147515520,0.00120595283806324
147.51604300,147516043,0.0022701723501086235
147.51658600,147516586,0.00120595283806324
147.51710300,147517103,0.00120595283806324
147.51762600,147517626,0.003334391862154007
147.51814800,147518148,0.0022701723501086235
147.51867500,147518675,0.0001417333260178566
147.51935200,147519352,0.0022701723501086235
147.51938100,147519381,0.003334391862154007
147.51987500,147519875,0.003334391862154007
147.52039100,147520391,0.0022701723501086235
147.52092300,147520923,0.0022701723501086235
147.52145000,147521450,0.0022701723501086235
147.52198300,147521983,0.003334391862154007
147.52250300,147522503,0.003334391862154007
147.52302800,147523028,0.0022701723501086235
147.52355500,147523555,0.0001417333260178566
147.52409400,147524094,0.00120595283806324
147.52461100,147524611,0.00120595283806324
147.52513800,147525138,0.0001417333260178566
147.52566300,147525663,0.0001417333260178566
147.52645100,147526451,0.00120595283806324
147.52647400,147526474,0.00120595283806324
147.52695800,147526958,0.00120595283806324
147.52748000,147527480,0.0022701723501086235
147.52800000,147528000,0.0022701723501086235
147.52852500,147528525,0.00120595283806324
147.52906800,147529068,0.0022701723501086235
147.52958600,147529586,0.0022701723501086235
147.53011200,147530112,0.00120595283806324
147.53062900,147530629,0.0022701723501086235
147.53115600,147531156,0.003334391862154007
147.53174300,147531743,0.0022701723501086235
147.53240300,147532403,0.00120595283806324
147.53242400,147532424,0.00120595283806324
147.53289600,147532896,0.00120595283806324
147.53342900,147533429,0.00120595283806324
147.53395600,147533956,0.0022701723501086235
147.53448600,147534486,0.003334391862154007
147.53501100,147535011,0.003334391862154007
147.53553500,147535535,0.0022701723501086235
147.53606500,147536065,0.0022701723501086235
147.53659200,147536592,0.00120595283806324
147.53712000,147537120,0.0022701723501086235
147.53764700,147537647,0.0022701723501086235
147.53816900,147538169,0.0022701723501086235
147.53890300,147538903,0.003334391862154007
147.53943300,147539433,0.0022701723501086235
147.53998100,147539981,0.00120595283806324
147.54000200,147540002,0.003334391862154007
147.54047700,147540477,0.0022701723501086235
147.54100100,147541001,0.003334391862154007
147.54153700,147541537,0.005462830886244774
147.54206600,147542066,0.0022701723501086235
147.54259200,147542592,0.0001417333260178566
147.54311400,147543114,0.00120595283806324
147.54363800,147543638,0.0001417333260178566
147.54417400,147544174,0.0001417333260178566
147.54489600,147544896,0.0022701723501086235
147.54541700,147545417,0.00120595283806324
147.54595000,147545950,0.00120595283806324
147.54648300,147546483,0.0022701723501086235
147.54708000,147547080,0.0022701723501086235
147.54710100,147547101,0.00120595283806324
147.54758500,147547585,0.0022701723501086235
147.54810300,147548103,0.003334391862154007
147.54863200,147548632,0.003334391862154007
147.54918200,147549182,0.0022701723501086235
147.54984700,147549847,0.0022701723501086235
147.55036500,147550365,0.0022701723501086235
147.55088800,147550888,0.003334391862154007
147.55143000,147551430,0.003334391862154007
147.55196100,147551961,0.003334391862154007
147.55249100,147552491,0.0022701723501086235
147.55300500,147553005,0.0001417333260178566
147.55354300,147553543,0.00120595283806324
147.55408800,147554088,0.00120595283806324
147.55460500,147554605,0.003334391862154007
147.55515600,147555156,0.00439861137419939
147.55517700,147555177,0.0022701723501086235
147.55565700,147555657,0.0022701723501086235
147.55619300,147556193,0.003334391862154007
147.55690000,147556900,0.003334391862154007
147.55741800,147557418,0.0022701723501086235
147.55793900,147557939,0.00120595283806324
147.55847000,147558470,0.00120595283806324
147.55900100,147559001,0.00120595283806324
147.55953400,147559534,0.0022701723501086235
147.56005600,147560056,0.0022701723501086235
147.56057600,147560576,0.0022701723501086235
147.56110400,147561104,0.0022701723501086235
147.56164900,147561649,0.0022701723501086235
147.56217800,147562178,0.00120595283806324
147.56288500,147562885,0.0022701723501086235
147.56290600,147562906,0.00120595283806324
147.56338700,147563387,0.0001417333260178566
147.56393200,147563932,0.0001417333260178566
147.56446600,147564466,0.0022701723501086235
147.56499100,147564991,0.0022701723501086235
147.56551300,147565513,0.0022701723501086235
147.56603800,147566038,0.0022701723501086235
147.56658100,147566581,0.0022701723501086235
147.56709900,147567099,0.00120595283806324
147.56762400,147567624,0.0022701723501086235
147.56814500,147568145,0.003334391862154007
147.56866900,147568669,0.003334391862154007
147.56938200,147569382,0.003334391862154007
147.56940500,147569405,0.003334391862154007
147.56987600,147569876,0.0022701723501086235
147.57039900,147570399,0.00120595283806324
147.57092100,147570921,0.00120595283806324
147.57145500,147571455,0.00120595283806324
147.57199500,147571995,0.00120595283806324
147.57251000,147572510,0.0022701723501086235
147.57303100,147573031,0.003334391862154007
147.57355700,147573557,0.0022701723501086235
147.57409000,147574090,0.0022701723501086235
147.57461800,147574618,0.00120595283806324
147.57513900,147575139,0.00120595283806324
147.57566100,147575661,0.00120595283806324
147.57626700,147576267,0.00439861137419939
147.57691100,147576911,0.003334391862154007
147.57693200,147576932,0.00120595283806324
147.57740300,147577403,0.0022701723501086235
147.57793000,147577930,0.0022701723501086235
147.57845200,147578452,0.00120595283806324
147.57898700,147578987,0.00120595283806324
147.57951700,147579517,0.00120595283806324
147.58003900,147580039,0.0022701723501086235
147.58056100,147580561,0.003334391862154007
147.58108700,147581087,0.0022701723501086235
147.58162600,147581626,0.0022701723501086235
147.58215300,147582153,0.00120595283806324
147.58267600,147582676,0.00120595283806324
147.58334400,147583344,0.00120595283806324
147.58392800,147583928,0.0001417333260178566
147.58448600,147584486,0.00120595283806324
147.58450600,147584506,0.00120595283806324
147.58498200,147584982,0.00120595283806324
147.58550200,147585502,0.00120595283806324
147.58602800,147586028,0.00120595283806324
147.58658300,147586583,0.00120595283806324
147.58708900,147587089,0.00120595283806324
147.58761700,147587617,-0.0009224861860275269
147.58813500,147588135,0.0022701723501086235
147.58866700,147588667,0.003334391862154007
147.58937600,147589376,0.00120595283806324
147.58990400,147589904,0.003334391862154007
147.59043300,147590433,0.00439861137419939
147.59095600,147590956,0.0022701723501086235
147.59148900,147591489,0.0022701723501086235
147.59207700,147592077,0.00120595283806324
147.59209800,147592098,0.00120595283806324
147.59257500,147592575,0.0022701723501086235
147.59309500,147593095,0.00120595283806324
147.59362400,147593624,0.00120595283806324
147.59416400,147594164,0.0022701723501086235
147.59478500,147594785,0.003334391862154007
147.59536500,147595365,0.003334391862154007
147.59589400,147595894,0.0022701723501086235
147.59643200,147596432,0.00120595283806324
147.59697300,147596973,0.0022701723501086235
147.59749300,147597493,0.0022701723501086235
147.59801800,147598018,0.0022701723501086235
147.59854300,147598543,0.0022701723501086235
147.59908800,147599088,0.0001417333260178566
147.59961200,147599612,0.0001417333260178566
147.60015600,147600156,0.0022701723501086235
147.60017800,147600178,0.0022701723501086235
147.60065200,147600652,0.00120595283806324
147.60117600,147601176,0.003334391862154007
147.60185100,147601851,0.00120595283806324
147.60237500,147602375,0.0001417333260178566
147.60289600,147602896,0.00120595283806324
147.60342200,147603422,0.0022701723501086235
147.60395400,147603954,0.0022701723501086235
147.60448500,147604485,0.00120595283806324
147.60501000,147605010,0.00120595283806324
147.60553000,147605530,0.00120595283806324
147.60606300,147606063,0.0022701723501086235
147.60659500,147606595,0.0022701723501086235
147.60712400,147607124,0.00120595283806324
147.60765000,147607650,0.00120595283806324
147.60816900,147608169,0.00120595283806324
147.60895400,147608954,0.00120595283806324
147.60897500,147608975,0.00120595283806324
147.60946400,147609464,0.00120595283806324
147.60998300,147609983,0.0022701723501086235
147.61050600,147610506,0.00120595283806324
147.61103200,147611032,0.0001417333260178566
147.61157700,147611577,0.00120595283806324
147.61209500,147612095,0.0001417333260178566
147.61261800,147612618,0.0001417333260178566
147.61313900,147613139,0.0022701723501086235
147.61366400,147613664,0.00120595283806324
147.61438100,147614381,0.00120595283806324
147.61440500,147614405,0.00120595283806324
147.61488800,147614888,0.0001417333260178566
147.61540700,147615407,0.0001417333260178566
147.61592900,147615929,0.00120595283806324
147.61646400,147616464,0.0022701723501086235
147.61699600,147616996,0.0022701723501086235
147.61751700,147617517,0.0001417333260178566
147.61804000,147618040,0.0001417333260178566
147.61856400,147618564,0.00120595283806324
147.61910000,147619100,0.00120595283806324
147.61962900,147619629,0.00120595283806324
147.62015200,147620152,0.00120595283806324
147.62067300,147620673,0.0022701723501086235
147.62145400,147621454,0.00120595283806324
147.62147700,147621477,0.00120595283806324
147.62196000,147621960,0.003334391862154007
147.62248800,147622488,0.00120595283806324
147.62300600,147623006,0.00120595283806324
147.62353300,147623533,0.003334391862154007
147.62407500,147624075,0.0001417333260178566
147.62459200,147624592,0.00120595283806324
147.62512400,147625124,0.00439861137419939
147.62564700,147625647,0.003334391862154007
147.62617300,147626173,0.0022701723501086235
147.62688500,147626885,0.003334391862154007
147.62740600,147627406,0.0022701723501086235
147.62792700,147627927,0.0022701723501086235
147.62848400,147628484,0.00120595283806324
147.62850500,147628505,0.00120595283806324
147.62898800,147628988,0.00120595283806324
147.62952500,147629525,0.00120595283806324
147.63005200,147630052,0.0022701723501086235
147.63057000,147630570,0.003334391862154007
147.63109700,147631097,0.003334391862154007
147.63163500,147631635,0.003334391862154007
147.63215900,147632159,0.0022701723501086235
147.63283100,147632831,0.00120595283806324
147.63336400,147633364,0.0001417333260178566
147.63392300,147633923,0.0001417333260178566
147.63445300,147634453,0.00120595283806324
147.63497700,147634977,0.0022701723501086235
147.63549700,147635497,0.0022701723501086235
147.63602200,147636022,0.0022701723501086235
147.63658100,147636581,0.0022701723501086235
147.63660200,147636602,0.00120595283806324
147.63708700,147637087,0.00120595283806324
147.63760900,147637609,0.00120595283806324
147.63813600,147638136,0.00120595283806324
147.63866200,147638662,0.00120595283806324
147.63938100,147639381,0.00120595283806324
147.63990700,147639907,0.0022701723501086235
147.64042800,147640428,0.00120595283806324
147.64095900,147640959,0.0001417333260178566
147.64149300,147641493,0.0001417333260178566
147.64201900,147642019,0.0001417333260178566
147.64254400,147642544,0.00120595283806324
147.64306500,147643065,0.0022701723501086235
147.64359100,147643591,0.00120595283806324
147.64416200,147644162,0.00120595283806324
147.64418300,147644183,0.0022701723501086235
147.64465700,147644657,0.00120595283806324
147.64526200,147645262,0.00120595283806324
147.64584400,147645844,0.003334391862154007
147.64642200,147646422,0.00120595283806324
147.64695900,147646959,0.0001417333260178566
147.64748400,147647484,0.0022701723501086235
147.64800400,147648004,0.00120595283806324
147.64853100,147648531,0.00120595283806324
147.64907600,147649076,0.005462830886244774
147.64959000,147649590,0.00439861137419939
147.65012000,147650120,0.003334391862154007
147.65064000,147650640,0.0022701723501086235
147.65117100,147651171,0.00439861137419939
147.65188200,147651882,0.00439861137419939
147.65190300,147651903,0.0022701723501086235
147.65237900,147652379,0.0022701723501086235
147.65290000,147652900,0.0022701723501086235
147.65344200,147653442,0.00120595283806324
147.65397200,147653972,0.0001417333260178566
147.65452200,147654522,0.0001417333260178566
147.65504800,147655048,0.0022701723501086235
147.65557000,147655570,0.0022701723501086235
147.65609600,147656096,0.0022701723501086235
147.65664200,147656642,0.0022701723501086235
147.65717000,147657170,0.0001417333260178566
147.65786100,147657861,0.003334391862154007
147.65788200,147657882,0.003334391862154007
147.65837400,147658374,0.00120595283806324
147.65892300,147658923,0.0022701723501086235
147.65945400,147659454,0.003334391862154007
147.65998000,147659980,0.00120595283806324
147.66050300,147660503,0.0001417333260178566
147.66102600,147661026,0.00120595283806324
147.66157200,147661572,0.0022701723501086235
147.66208900,147662089,0.003334391862154007
147.66261200,147662612,0.003334391862154007
147.66313300,147663133,0.0022701723501086235
147.66365900,147663659,0.003334391862154007
147.66432200,147664322,0.003334391862154007
147.66490900,147664909,0.003334391862154007
147.66492900,147664929,0.0022701723501086235
147.66540400,147665404,0.0022701723501086235
147.66593700,147665937,0.003334391862154007
147.66646800,147666468,0.0022701723501086235
147.66699600,147666996,0.0022701723501086235
147.66752200,147667522,0.0022701723501086235
147.66804200,147668042,0.003334391862154007
147.66856900,147668569,0.003334391862154007
147.66910200,147669102,0.00120595283806324
147.66963000,147669630,0.00120595283806324
147.67015000,147670150,0.00439861137419939
147.67067300,147670673,0.00120595283806324
147.67140500,147671405,0.00120595283806324
147.67196000,147671960,0.00439861137419939
147.67198100,147671981,0.0022701723501086235
147.67245900,147672459,0.0022701723501086235
147.67297900,147672979,0.003334391862154007
147.67350400,147673504,0.0022701723501086235
147.67403700,147674037,0.0022701723501086235
147.67456500,147674565,0.003334391862154007
147.67509000,147675090,0.003334391862154007
147.67561400,147675614,0.003334391862154007
147.67613800,147676138,0.0022701723501086235
147.67667500,147676675,0.00120595283806324
147.67734600,147677346,0.00120595283806324
147.67786700,147677867,0.0022701723501086235
147.67839800,147678398,0.0022701723501086235
147.67893100,147678931,0.0022701723501086235
147.67947100,147679471,0.0022701723501086235
147.67999300,147679993,0.0001417333260178566
147.68051700,147680517,0.0001417333260178566
147.68106900,147681069,0.0022701723501086235
147.68109100,147681091,0.0022701723501086235
147.68159400,147681594,0.0001417333260178566
147.68210500,147682105,0.0022701723501086235
147.68263000,147682630,0.0022701723501086235
147.68314900,147683149,-0.0009224861860275269
147.68367700,147683677,0.0022701723501086235
147.68432300,147684323,0.003334391862154007
147.68487700,147684877,0.003334391862154007
147.68540000,147685400,0.003334391862154007
147.68592700,147685927,0.0022701723501086235
147.68645600,147686456,0.0022701723501086235
147.68698900,147686989,0.0022701723501086235
147.68751700,147687517,0.00120595283806324
147.68803500,147688035,0.00120595283806324
147.68856400,147688564,0.00120595283806324
147.68909600,147689096,0.0022701723501086235
147.68962100,147689621,0.0022701723501086235
147.69017300,147690173,0.00120595283806324
147.69019600,147690196,0.0022701723501086235
147.69067500,147690675,0.003334391862154007
147.69140500,147691405,0.003334391862154007
147.69192700,147691927,0.00120595283806324
147.69245400,147692454,-0.0009224861860275269
147.69297400,147692974,0.0022701723501086235
147.69350000,147693500,0.00120595283806324
147.69403400,147694034,-0.0009224861860275269
147.69456400,147694564,0.00120595283806324
147.69508800,147695088,0.0001417333260178566
147.69561200,147695612,0.0001417333260178566
147.69614000,147696140,0.00120595283806324
147.69668200,147696682,0.0001417333260178566
147.69734600,147697346,0.00120595283806324
147.69736700,147697367,0.0022701723501086235
147.69787000,147697870,0.0022701723501086235
147.69840600,147698406,0.0022701723501086235
147.69893300,147698933,0.003334391862154007
147.69946500,147699465,0.0022701723501086235
147.69999100,147699991,0.0022701723501086235
147.70051300,147700513,0.0022701723501086235
147.70103800,147701038,0.00120595283806324
147.70157900,147701579,0.0022701723501086235
147.70209600,147702096,0.003334391862154007
147.70262100,147702621,0.003334391862154007
147.70314100,147703141,0.00120595283806324
147.70366800,147703668,-0.0009224861860275269
147.70437800,147704378,0.0001417333260178566
147.70440200,147704402,0.0022701723501086235
147.70487500,147704875,0.0001417333260178566
147.70539700,147705397,0.003334391862154007
147.70592200,147705922,0.00439861137419939
147.70645200,147706452,0.0022701723501086235
147.70701400,147707014,0.0022701723501086235
147.70754400,147707544,0.0022701723501086235
147.70806600,147708066,0.00120595283806324
147.70859200,147708592,0.00120595283806324
147.70913200,147709132,0.0022701723501086235
147.70965800,147709658,0.0022701723501086235
147.71023400,147710234,0.0022701723501086235
147.71089200,147710892,0.00120595283806324
147.71091200,147710912,0.0001417333260178566
147.71142600,147711426,0.0001417333260178566
147.71195900,147711959,0.00120595283806324
147.71248500,147712485,0.0022701723501086235
147.71300300,147713003,0.003334391862154007
147.71353000,147713530,0.003334391862154007
147.71407300,147714073,0.0022701723501086235
147.71459200,147714592,0.00120595283806324
147.71511500,147715115,0.0022701723501086235
147.71563900,147715639,0.0022701723501086235
147.71616300,147716163,0.00120595283806324
147.71682800,147716828,0.0022701723501086235
147.71738600,147717386,0.0022701723501086235
147.71790900,147717909,0.0001417333260178566
147.71843800,147718438,0.00120595283806324
147.71899300,147718993,0.0022701723501086235
147.71901600,147719016,0.0022701723501086235
147.71949300,147719493,0.003334391862154007
147.72001800,147720018,0.0022701723501086235
147.72053900,147720539,0.003334391862154007
147.72106300,147721063,0.00439861137419939
147.72159600,147721596,0.00439861137419939
147.72212700,147722127,0.0022701723501086235
147.72264500,147722645,0.00120595283806324
147.72317200,147723172,0.0022701723501086235
147.72392400,147723924,0.003334391862154007
147.72446100,147724461,0.0022701723501086235
147.72499200,147724992,0.00120595283806324
147.72551500,147725515,0.00120595283806324
147.72606600,147726066,0.0022701723501086235
147.72608600,147726086,0.0022701723501086235
147.72658700,147726587,0.0022701723501086235
147.72710200,147727102,0.0022701723501086235
147.72763100,147727631,0.0001417333260178566
147.72814700,147728147,0.0022701723501086235
147.72867500,147728675,0.0022701723501086235
147.72932400,147729324,0.0001417333260178566
147.72987200,147729872,0.0022701723501086235
147.73039100,147730391,0.003334391862154007
147.73092000,147730920,0.003334391862154007
147.73145000,147731450,0.003334391862154007
147.73198400,147731984,0.0022701723501086235
147.73250800,147732508,0.003334391862154007
147.73303300,147733033,0.0022701723501086235
147.73356900,147733569,0.00120595283806324
147.73409900,147734099,0.0022701723501086235
147.73462500,147734625,0.0022701723501086235
147.73517800,147735178,0.0022701723501086235
147.73519900,147735199,0.00120595283806324
147.73567400,147735674,0.00120595283806324
147.73643500,147736435,0.0022701723501086235
147.73696900,147736969,0.0022701723501086235
147.73749400,147737494,0.00120595283806324
147.73801700,147738017,0.0022701723501086235
147.73854300,147738543,0.003334391862154007
147.73908400,147739084,0.00120595283806324
147.73960000,147739600,0.0022701723501086235
147.74012500,147740125,0.003334391862154007
147.74064700,147740647,-0.0009224861860275269
147.74117500,147741175,0.0001417333260178566
147.74188400,147741884,0.003334391862154007
147.74193500,147741935,0.0022701723501086235
147.74237800,147742378,0.0022701723501086235
147.74289600,147742896,0.0022701723501086235
147.74342600,147743426,0.0022701723501086235
147.74396100,147743961,0.0022701723501086235
147.74449100,147744491,0.0022701723501086235
147.74501300,147745013,0.00120595283806324
147.74553500,147745535,0.0022701723501086235
147.74606100,147746061,0.0022701723501086235
147.74659400,147746594,0.00120595283806324
147.74712000,147747120,0.00120595283806324
147.74764500,147747645,0.0022701723501086235
147.74816900,147748169,0.003334391862154007
147.74892600,147748926,0.0022701723501086235
147.74894700,147748947,0.00120595283806324
147.74938800,147749388,0.00120595283806324
147.74991000,147749910,0.0001417333260178566
147.75043000,147750430,0.003334391862154007
147.75095800,147750958,0.00439861137419939
147.75148800,147751488,0.00120595283806324
147.75202000,147752020,0.0022701723501086235
147.75254400,147752544,0.003334391862154007
147.75306600,147753066,0.0001417333260178566
147.75359200,147753592,0.00120595283806324
147.75413900,147754139,0.003334391862154007
147.75466600,147754666,0.003334391862154007
147.75540900,147755409,0.0022701723501086235
147.75543000,147755430,0.00120595283806324
147.75590700,147755907,0.00120595283806324
147.75644000,147756440,0.0022701723501086235
147.75696700,147756967,0.00120595283806324
147.75749500,147757495,0.0001417333260178566
147.75801800,147758018,0.00120595283806324
147.75854300,147758543,0.003334391862154007
147.75909200,147759092,0.0022701723501086235
147.75960400,147759604,0.00120595283806324
147.76013000,147760130,0.00120595283806324
147.76065200,147760652,0.00120595283806324
147.76126100,147761261,0.0001417333260178566
147.76188100,147761881,0.0001417333260178566
147.76240100,147762401,0.0022701723501086235
147.76292000,147762920,0.0022701723501086235
147.76344900,147763449,0.0022701723501086235
147.76400700,147764007,0.003334391862154007
147.76402800,147764028,0.00120595283806324
147.76450800,147764508,0.00120595283806324
147.76503300,147765033,0.003334391862154007
147.76555500,147765555,0.0022701723501086235
147.76608000,147766080,0.00120595283806324
147.76662500,147766625,0.00120595283806324
147.76715000,147767150,0.0022701723501086235
147.76767300,147767673,0.00120595283806324
147.76837400,147768374,0.00120595283806324
147.76892400,147768924,0.00120595283806324
147.76945500,147769455,0.00120595283806324
147.76998100,147769981,0.00120595283806324
147.77050700,147770507,0.0022701723501086235
147.77103300,147771033,0.0022701723501086235
147.77160100,147771601,0.003334391862154007
147.77162200,147771622,0.003334391862154007
147.77209300,147772093,0.0022701723501086235
147.77261800,147772618,0.0022701723501086235
147.77313700,147773137,0.003334391862154007
147.77366500,147773665,0.0022701723501086235
147.77437700,147774377,0.0001417333260178566
147.77490200,147774902,0.0022701723501086235
147.77542200,147775422,0.0022701723501086235
147.77595000,147775950,0.00120595283806324
147.77648100,147776481,0.003334391862154007
147.77701000,147777010,0.0022701723501086235
147.77754600,147777546,0.0001417333260178566
147.77807000,147778070,0.00120595283806324
147.77859400,147778594,0.0022701723501086235
147.77916700,147779167,0.003334391862154007
147.77918800,147779188,0.0022701723501086235
147.77967100,147779671,0.0022701723501086235
147.78033400,147780334,0.003334391862154007
147.78086900,147780869,0.00120595283806324
147.78142500,147781425,0.00120595283806324
147.78195600,147781956,0.00120595283806324
147.78248500,147782485,0.00120595283806324
147.78300300,147783003,0.00120595283806324
147.78353700,147783537,0.0022701723501086235
147.78408000,147784080,0.0022701723501086235
147.78459700,147784597,0.003334391862154007
147.78512000,147785120,0.003334391862154007
147.78564400,147785644,0.00120595283806324
147.78616900,147786169,-0.0009224861860275269
147.78691000,147786910,0.00120595283806324
147.78693100,147786931,0.00120595283806324
147.78740800,147787408,0.00120595283806324
147.78793300,147787933,0.00439861137419939
147.78845300,147788453,0.0022701723501086235
147.78898600,147788986,0.0001417333260178566
147.78951300,147789513,0.00120595283806324
147.79004000,147790040,0.00120595283806324
147.79057400,147790574,0.00120595283806324
147.79109600,147791096,0.00120595283806324
147.79164600,147791646,0.0022701723501086235
147.79217000,147792170,0.0022701723501086235
147.79288900,147792889,0.0022701723501086235
147.79291000,147792910,0.0022701723501086235
147.79339400,147793394,0.00120595283806324
147.79393500,147793935,0.00120595283806324
147.79450700,147794507,0.00120595283806324
147.79499000,147794990,0.00120595283806324
147.79551600,147795516,0.0022701723501086235
147.79604100,147796041,0.003334391862154007
147.79658700,147796587,0.0022701723501086235
147.79710900,147797109,0.00120595283806324
147.79763200,147797632,0.0022701723501086235
147.79815300,147798153,0.003334391862154007
147.79873800,147798738,0.0001417333260178566
147.79941900,147799419,0.0001417333260178566
147.79944000,147799440,0.00120595283806324
147.79991500,147799915,0.0001417333260178566
147.80043600,147800436,0.0001417333260178566
147.80096200,147800962,0.0022701723501086235
147.80149500,147801495,0.003334391862154007
147.80202600,147802026,0.003334391862154007
147.80255200,147802552,0.003334391862154007
147.80307200,147803072,0.003334391862154007
147.80360200,147803602,0.0022701723501086235
147.80414300,147804143,0.00120595283806324
147.80467300,147804673,0.0022701723501086235
147.80537400,147805374,0.0022701723501086235
147.80590300,147805903,0.00120595283806324
147.80643300,147806433,0.0022701723501086235
147.80698900,147806989,0.0022701723501086235
147.80701000,147807010,0.0022701723501086235
147.80748600,147807486,0.0022701723501086235
147.80800900,147808009,0.00120595283806324
147.80854100,147808541,0.00120595283806324
147.80908200,147809082,0.0022701723501086235
147.80960300,147809603,0.0022701723501086235
147.81012500,147810125,0.0022701723501086235
147.81064700,147810647,0.00120595283806324
147.81117300,147811173,0.00120595283806324
147.81185100,147811851,0.0022701723501086235
147.81237500,147812375,0.00120595283806324
147.81289800,147812898,0.00120595283806324
147.81342300,147813423,0.0022701723501086235
147.81395400,147813954,0.00120595283806324
147.81448500,147814485,0.0001417333260178566
147.81501000,147815010,0.0001417333260178566
147.81553400,147815534,0.0022701723501086235
147.81608600,147816086,0.003334391862154007
147.81610600,147816106,0.0022701723501086235
147.81660700,147816607,0.0022701723501086235
147.81711900,147817119,0.003334391862154007
147.81764700,147817647,0.003334391862154007
147.81816600,147818166,0.003334391862154007
147.81892800,147818928,0.0022701723501086235
147.81946200,147819462,0.00120595283806324
147.81998700,147819987,0.00120595283806324
147.82050800,147820508,0.00120595283806324
147.82103100,147821031,0.0022701723501086235
147.82157800,147821578,0.003334391862154007
147.82209300,147822093,0.00120595283806324
147.82261800,147822618,-0.0009224861860275269
147.82316600,147823166,0.0022701723501086235
147.82318600,147823186,0.00120595283806324
147.82366400,147823664,0.0001417333260178566
147.82438200,147824382,0.0022701723501086235
147.82490500,147824905,0.0022701723501086235
147.82542500,147825425,0.0001417333260178566
147.82596000,147825960,0.00120595283806324
147.82648900,147826489,0.0022701723501086235
147.82702600,147827026,0.0022701723501086235
147.82755000,147827550,0.00120595283806324
147.82807400,147828074,0.0022701723501086235
147.82860000,147828600,0.003334391862154007
147.82913900,147829139,0.0022701723501086235
147.82966900,147829669,0.00120595283806324
147.83036100,147830361,0.00120595283806324
147.83038300,147830383,0.00120595283806324
147.83086900,147830869,0.00120595283806324
147.83142300,147831423,0.00120595283806324
147.83195200,147831952,0.00120595283806324
147.83247800,147832478,0.00120595283806324
147.83299700,147832997,0.0022701723501086235
147.83352400,147833524,0.003334391862154007
147.83406800,147834068,0.00120595283806324
147.83458500,147834585,0.0001417333260178566
147.83510700,147835107,0.0022701723501086235
147.83563100,147835631,0.00120595283806324
147.83615900,147836159,0.0001417333260178566
147.83681500,147836815,0.003334391862154007
147.83683900,147836839,0.0022701723501086235
147.83738000,147837380,0.0001417333260178566
147.83790200,147837902,0.0022701723501086235
147.83842700,147838427,0.0022701723501086235
147.83895900,147838959,0.0022701723501086235
147.83950700,147839507,0.0022701723501086235
147.84001100,147840011,0.0022701723501086235
147.84053100,147840531,0.003334391862154007
147.84106000,147841060,0.003334391862154007
147.84159100,147841591,0.0022701723501086235
147.84212100,147842121,0.0022701723501086235
147.84264500,147842645,0.00120595283806324
147.84316800,147843168,0.0022701723501086235
147.84387400,147843874,0.0022701723501086235
147.84441400,147844414,0.00120595283806324
147.84443500,147844435,0.0001417333260178566
147.84490500,147844905,0.00120595283806324
147.84542700,147845427,0.00439861137419939
147.84595700,147845957,0.003334391862154007
147.84649200,147846492,0.0001417333260178566
147.84702900,147847029,0.0022701723501086235
147.84755200,147847552,0.0022701723501086235
147.84807000,147848070,0.0001417333260178566
147.84859900,147848599,0.00120595283806324
147.84913800,147849138,0.00120595283806324
147.84966200,147849662,0.0001417333260178566
147.85026500,147850265,0.00120595283806324
147.85087700,147850877,0.0022701723501086235
147.85142200,147851422,0.00439861137419939
147.85198100,147851981,0.003334391862154007
147.85200400,147852004,0.0022701723501086235
147.85247700,147852477,0.00120595283806324
147.85300200,147853002,0.00120595283806324
147.85352800,147853528,0.0022701723501086235
147.85407200,147854072,0.0022701723501086235
147.85458800,147854588,0.0022701723501086235
147.85511100,147855111,0.0001417333260178566
147.85563500,147855635,-0.0009224861860275269
147.85615800,147856158,-0.0009224861860275269
147.85677200,147856772,0.00120595283806324
147.85738300,147857383,0.003334391862154007
147.85790200,147857902,0.0001417333260178566
147.85843700,147858437,0.0001417333260178566
147.85896700,147858967,0.003334391862154007
147.85950900,147859509,0.00120595283806324
147.86003000,147860030,0.0001417333260178566
147.86057800,147860578,0.0022701723501086235
147.86059800,147860598,0.0022701723501086235
147.86107700,147861077,0.0022701723501086235
147.86162800,147861628,0.0022701723501086235
147.86213500,147862135,0.0022701723501086235
147.86266800,147862668,0.00120595283806324
147.86333400,147863334,0.0022701723501086235
147.86392200,147863922,0.0022701723501086235
147.86447100,147864471,0.0022701723501086235
147.86498200,147864982,0.0022701723501086235
147.86550500,147865505,0.0022701723501086235
147.86603200,147866032,0.0022701723501086235
147.86657300,147866573,0.00120595283806324
147.86708900,147867089,0.00120595283806324
147.86761400,147867614,0.0022701723501086235
147.86816100,147868161,0.0022701723501086235
147.86818100,147868181,0.003334391862154007
147.86866000,147868660,0.0022701723501086235
147.86938100,147869381,0.0022701723501086235
147.86990700,147869907,0.003334391862154007
147.87042700,147870427,0.00120595283806324
147.87095700,147870957,0.003334391862154007
147.87148800,147871488,0.00439861137419939
147.87202700,147872027,0.0022701723501086235
147.87255300,147872553,0.0022701723501086235
147.87307200,147873072,0.003334391862154007
147.87359800,147873598,0.003334391862154007
147.87413700,147874137,0.0022701723501086235
147.87466500,147874665,0.0022701723501086235
147.87538900,147875389,0.0022701723501086235
147.87540900,147875409,0.0022701723501086235
147.87589100,147875891,0.0022701723501086235
147.87643600,147876436,0.00120595283806324
147.87696300,147876963,0.0022701723501086235
147.87748700,147877487,0.0022701723501086235
147.87800800,147878008,0.00120595283806324
147.87854300,147878543,0.00120595283806324
147.87908500,147879085,0.0022701723501086235
147.87959800,147879598,0.0022701723501086235
147.88012300,147880123,0.00439861137419939
147.88064600,147880646,0.0022701723501086235
147.88117900,147881179,0.0001417333260178566
147.88185100,147881851,0.00120595283806324
147.88187600,147881876,0.0022701723501086235
147.88238800,147882388,0.0001417333260178566
147.88290700,147882907,0.0022701723501086235
147.88343800,147883438,0.0022701723501086235
147.88396700,147883967,0.0001417333260178566
147.88454300,147884543,0.00120595283806324
147.88506600,147885066,0.0022701723501086235
147.88558800,147885588,0.003334391862154007
147.88611400,147886114,0.003334391862154007
147.88665200,147886652,0.0022701723501086235
147.88717900,147887179,0.0001417333260178566
147.88784900,147887849,0.0001417333260178566
147.88840100,147888401,0.00120595283806324
147.88842100,147888421,0.0022701723501086235
147.88892300,147888923,0.003334391862154007
147.88944900,147889449,0.003334391862154007
147.88998000,147889980,0.003334391862154007
