timestamp,TimeUS,GYROx
timestamp,TimeUS,GYROx,TimeUS,GYROx
124.58223600,124582236,-0.0004671430215239525,124582236,-0.0004671430215239525
124.58763400,124587634,-0.0004671430215239525,124587634,-0.0004671430215239525
124.59263200,124592632,-0.0004671430215239525,124592632,-0.0004671430215239525
124.59763300,124597633,0.0005981539143249393,124597633,0.0005981539143249393
124.60263400,124602634,0.0016634507337585092,124602634,0.0016634507337585092
124.60763200,124607632,0.002728747669607401,124607632,0.002728747669607401
124.61263600,124612636,0.0037940447218716145,124612636,0.0037940447218716145
124.61763200,124617632,0.004859341308474541,124617632,0.004859341308474541
124.62263300,124622633,0.004859341308474541,124622633,0.004859341308474541
124.62763400,124627634,0.0037940447218716145,124627634,0.0037940447218716145
124.63266100,124632661,0.002728747669607401,124632661,0.002728747669607401
124.63769600,124637696,0.0016634507337585092,124637696,0.0016634507337585092
124.64272400,124642724,0.0005981539143249393,124642724,0.0005981539143249393
124.64774500,124647745,0.0016634507337585092,124647745,0.0016634507337585092
124.65263300,124652633,0.0016634507337585092,124652633,0.0016634507337585092
124.65763400,124657634,0.002728747669607401,124657634,0.002728747669607401
124.66263400,124662634,0.0037940447218716145,124662634,0.0037940447218716145
124.66763300,124667633,0.0037940447218716145,124667633,0.0037940447218716145
124.67263700,124672637,0.002728747669607401,124672637,0.002728747669607401
124.67764200,124677642,0.0016634507337585092,124677642,0.0016634507337585092
124.68263300,124682633,0.0016634507337585092,124682633,0.0016634507337585092
124.68763600,124687636,0.0005981539143249393,124687636,0.0005981539143249393
124.69263200,124692632,0.0005981539143249393,124692632,0.0005981539143249393
124.69766000,124697660,0.0005981539143249393,124697660,0.0005981539143249393
124.70268300,124702683,0.0016634507337585092,124702683,0.0016634507337585092
124.70770700,124707707,0.0016634507337585092,124707707,0.0016634507337585092
124.71273300,124712733,0.0016634507337585092,124712733,0.0016634507337585092
124.71763300,124717633,0.0016634507337585092,124717633,0.0016634507337585092
124.72263700,124722637,0.0005981539143249393,124722637,0.0005981539143249393
124.72763800,124727638,0.0005981539143249393,124727638,0.0005981539143249393
124.73263200,124732632,0.0005981539143249393,124732632,0.0005981539143249393
124.73763300,124737633,0.002728747669607401,124737633,0.002728747669607401
124.74263400,124742634,0.002728747669607401,124742634,0.002728747669607401
124.74763300,124747633,0.0037940447218716145,124747633,0.0037940447218716145
124.75263300,124752633,0.002728747669607401,124752633,0.002728747669607401
124.75764100,124757641,0.0016634507337585092,124757641,0.0016634507337585092
124.76263300,124762633,0.0016634507337585092,124762633,0.0016634507337585092
124.76764100,124767641,0.0016634507337585092,124767641,0.0016634507337585092
124.77267300,124772673,0.0016634507337585092,124772673,0.0016634507337585092
124.77769100,124777691,0.0016634507337585092,124777691,0.0016634507337585092
124.78271700,124782717,0.0016634507337585092,124782717,0.0016634507337585092
124.78775100,124787751,0.0016634507337585092,124787751,0.0016634507337585092
124.79263800,124792638,0.0016634507337585092,124792638,0.0016634507337585092
124.79813500,124798135,0.0016634507337585092,124798135,0.0016634507337585092
124.80313400,124803134,0.0005981539143249393,124803134,0.0005981539143249393
124.80813700,124808137,0.0005981539143249393,124808137,0.0005981539143249393
124.81313500,124813135,0.0005981539143249393,124813135,0.0005981539143249393
124.81813400,124818134,0.0005981539143249393,124818134,0.0005981539143249393
124.82313500,124823135,0.0005981539143249393,124823135,0.0005981539143249393
124.82813500,124828135,-0.0004671430215239525,124828135,-0.0004671430215239525
124.83313600,124833136,-0.0004671430215239525,124833136,-0.0004671430215239525
124.83813200,124838132,-0.0004671430215239525,124838132,-0.0004671430215239525
124.84313600,124843136,-0.0004671430215239525,124843136,-0.0004671430215239525
124.84815900,124848159,-0.0004671430215239525,124848159,-0.0004671430215239525
124.85319300,124853193,-0.0004671430215239525,124853193,-0.0004671430215239525
124.85822000,124858220,0.0005981539143249393,124858220,0.0005981539143249393
124.86325000,124863250,0.0005981539143249393,124863250,0.0005981539143249393
124.86813400,124868134,0.0005981539143249393,124868134,0.0005981539143249393
124.87313500,124873135,0.0005981539143249393,124873135,0.0005981539143249393
124.87813600,124878136,0.0005981539143249393,124878136,0.0005981539143249393
124.88313500,124883135,0.0005981539143249393,124883135,0.0005981539143249393
124.88813400,124888134,0.0005981539143249393,124888134,0.0005981539143249393
124.89313600,124893136,0.0016634507337585092,124893136,0.0016634507337585092
124.89813800,124898138,0.002728747669607401,124898138,0.002728747669607401
124.90313600,124903136,0.002728747669607401,124903136,0.002728747669607401
124.90813800,124908138,0.0016634507337585092,124908138,0.0016634507337585092
124.91316200,124913162,0.0005981539143249393,124913162,0.0005981539143249393
124.91818900,124918189,-0.0004671430215239525,124918189,-0.0004671430215239525
124.92321600,124923216,-0.0004671430215239525,124923216,-0.0004671430215239525
124.92825500,124928255,-0.0004671430215239525,124928255,-0.0004671430215239525
124.93313700,124933137,0.0005981539143249393,124933137,0.0005981539143249393
124.93813700,124938137,0.002728747669607401,124938137,0.002728747669607401
124.94313600,124943136,0.0037940447218716145,124943136,0.0037940447218716145
124.94813700,124948137,0.0037940447218716145,124948137,0.0037940447218716145
124.95313800,124953138,0.002728747669607401,124953138,0.002728747669607401
124.95813900,124958139,0.002728747669607401,124958139,0.002728747669607401
124.96313600,124963136,0.002728747669607401,124963136,0.002728747669607401
124.96814000,124968140,0.002728747669607401,124968140,0.002728747669607401
124.97313700,124973137,0.002728747669607401,124973137,0.002728747669607401
124.97816300,124978163,0.002728747669607401,124978163,0.002728747669607401
124.98318300,124983183,0.002728747669607401,124983183,0.002728747669607401
124.98821300,124988213,0.0016634507337585092,124988213,0.0016634507337585092
124.99329400,124993294,0.0016634507337585092,124993294,0.0016634507337585092
124.99829800,124998298,0.0016634507337585092,124998298,0.0016634507337585092
125.00330500,125003305,0.0016634507337585092,125003305,0.0016634507337585092
125.00832300,125008323,0.0016634507337585092,125008323,0.0016634507337585092
125.01313300,125013133,0.0005981539143249393,125013133,0.0005981539143249393
125.01813600,125018136,-0.0004671430215239525,125018136,-0.0004671430215239525
125.02363800,125023638,-0.0004671430215239525,125023638,-0.0004671430215239525
125.02863200,125028632,-0.0004671430215239525,125028632,-0.0004671430215239525
125.03363700,125033637,-0.0004671430215239525,125033637,-0.0004671430215239525
125.03867200,125038672,-0.0004671430215239525,125038672,-0.0004671430215239525
125.04365100,125043651,-0.0004671430215239525,125043651,-0.0004671430215239525
125.04868900,125048689,0.0005981539143249393,125048689,0.0005981539143249393
125.05369700,125053697,0.0005981539143249393,125053697,0.0005981539143249393
125.05877600,125058776,0.0005981539143249393,125058776,0.0005981539143249393
125.06378200,125063782,0.0005981539143249393,125063782,0.0005981539143249393
125.06880200,125068802,0.0016634507337585092,125068802,0.0016634507337585092
125.07380400,125073804,0.0016634507337585092,125073804,0.0016634507337585092
125.07863300,125078633,0.0005981539143249393,125078633,0.0005981539143249393
125.08363400,125083634,0.0005981539143249393,125083634,0.0005981539143249393
125.08863300,125088633,-0.0004671430215239525,125088633,-0.0004671430215239525
125.09364100,125093641,-0.0004671430215239525,125093641,-0.0004671430215239525
125.09863500,125098635,-0.0004671430215239525,125098635,-0.0004671430215239525
125.10363600,125103636,-0.0004671430215239525,125103636,-0.0004671430215239525
125.10863500,125108635,0.0005981539143249393,125108635,0.0005981539143249393
125.11367400,125113674,0.0016634507337585092,125113674,0.0016634507337585092
125.11870800,125118708,0.0016634507337585092,125118708,0.0016634507337585092
125.12373800,125123738,0.002728747669607401,125123738,0.002728747669607401
125.12863600,125128636,0.002728747669607401,125128636,0.002728747669607401
125.13364100,125133641,0.0016634507337585092,125133641,0.0016634507337585092
125.13863600,125138636,0.0016634507337585092,125138636,0.0016634507337585092
125.14363700,125143637,0.0005981539143249393,125143637,0.0005981539143249393
125.14863400,125148634,0.0005981539143249393,125148634,0.0005981539143249393
125.15363900,125153639,-0.0004671430215239525,125153639,-0.0004671430215239525
125.15863400,125158634,-0.0004671430215239525,125158634,-0.0004671430215239525
125.16363900,125163639,0.0005981539143249393,125163639,0.0005981539143249393
125.16863600,125168636,0.0016634507337585092,125168636,0.0016634507337585092
125.17363400,125173634,0.0016634507337585092,125173634,0.0016634507337585092
125.17865100,125178651,0.0005981539143249393,125178651,0.0005981539143249393
125.18367700,125183677,0.0016634507337585092,125183677,0.0016634507337585092
125.18870500,125188705,0.002728747669607401,125188705,0.002728747669607401
125.19371900,125193719,0.0037940447218716145,125193719,0.0037940447218716145
125.19880400,125198804,0.0037940447218716145,125198804,0.0037940447218716145
125.20363300,125203633,0.002728747669607401,125203633,0.002728747669607401
125.20863500,125208635,0.002728747669607401,125208635,0.002728747669607401
125.21363400,125213634,0.002728747669607401,125213634,0.002728747669607401
125.21863700,125218637,0.002728747669607401,125218637,0.002728747669607401
125.22363800,125223638,0.0016634507337585092,125223638,0.0016634507337585092
125.22864000,125228640,0.0005981539143249393,125228640,0.0005981539143249393
125.23363300,125233633,0.0016634507337585092,125233633,0.0016634507337585092
125.23863500,125238635,0.0016634507337585092,125238635,0.0016634507337585092
125.24363600,125243636,0.0016634507337585092,125243636,0.0016634507337585092
125.24913400,125249134,0.0016634507337585092,125249134,0.0016634507337585092
125.25414400,125254144,0.0016634507337585092,125254144,0.0016634507337585092
125.25867400,125258674,0.0016634507337585092,125258674,0.0016634507337585092
125.26369500,125263695,0.0037940447218716145,125263695,0.0037940447218716145
125.26871900,125268719,0.004859341308474541,125268719,0.004859341308474541
125.27375000,125273750,0.004859341308474541,125273750,0.004859341308474541
125.27913600,125279136,0.0037940447218716145,125279136,0.0037940447218716145
125.28413400,125284134,0.002728747669607401,125284134,0.002728747669607401
125.28913600,125289136,0.0016634507337585092,125289136,0.0016634507337585092
125.29413700,125294137,0.002728747669607401,125294137,0.002728747669607401
125.29913600,125299136,0.002728747669607401,125299136,0.002728747669607401
125.30413600,125304136,0.0037940447218716145,125304136,0.0037940447218716145
125.30913400,125309134,0.002728747669607401,125309134,0.002728747669607401
125.31413300,125314133,0.0016634507337585092,125314133,0.0016634507337585092
125.31914200,125319142,0.0016634507337585092,125319142,0.0016634507337585092
125.32413600,125324136,0.0016634507337585092,125324136,0.0016634507337585092
125.32914800,125329148,0.002728747669607401,125329148,0.002728747669607401
125.33416400,125334164,0.002728747669607401,125334164,0.002728747669607401
125.33919800,125339198,0.0016634507337585092,125339198,0.0016634507337585092
125.34422700,125344227,0.0005981539143249393,125344227,0.0005981539143249393
125.34924700,125349247,0.0005981539143249393,125349247,0.0005981539143249393
125.35413300,125354133,0.0005981539143249393,125354133,0.0005981539143249393
125.35914300,125359143,0.0005981539143249393,125359143,0.0005981539143249393
125.36413700,125364137,0.0016634507337585092,125364137,0.0016634507337585092
125.36913400,125369134,0.0016634507337585092,125369134,0.0016634507337585092
125.37413300,125374133,0.0016634507337585092,125374133,0.0016634507337585092
125.37913400,125379134,0.0016634507337585092,125379134,0.0016634507337585092
125.38413200,125384132,0.0016634507337585092,125384132,0.0016634507337585092
125.38913200,125389132,0.0005981539143249393,125389132,0.0005981539143249393
125.39413600,125394136,0.0005981539143249393,125394136,0.0005981539143249393
125.39914700,125399147,0.0005981539143249393,125399147,0.0005981539143249393
125.40417400,125404174,0.002728747669607401,125404174,0.002728747669607401
125.40921700,125409217,0.0037940447218716145,125409217,0.0037940447218716145
125.41424300,125414243,0.0037940447218716145,125414243,0.0037940447218716145
125.41913700,125419137,0.0037940447218716145,125419137,0.0037940447218716145
125.42413700,125424137,0.002728747669607401,125424137,0.002728747669607401
125.42913500,125429135,0.002728747669607401,125429135,0.002728747669607401
125.43413500,125434135,0.0016634507337585092,125434135,0.0016634507337585092
125.43913500,125439135,0.0016634507337585092,125439135,0.0016634507337585092
125.44413500,125444135,0.0016634507337585092,125444135,0.0016634507337585092
125.44913300,125449133,0.002728747669607401,125449133,0.002728747669607401
125.45413300,125454133,0.0016634507337585092,125454133,0.0016634507337585092
125.45913700,125459137,0.0005981539143249393,125459137,0.0005981539143249393
125.46413400,125464134,-0.0015324399573728442,125464134,-0.0015324399573728442
125.46913600,125469136,-0.0015324399573728442,125469136,-0.0015324399573728442
125.47416000,125474160,-0.0004671430215239525,125474160,-0.0004671430215239525
125.47918000,125479180,0.0005981539143249393,125479180,0.0005981539143249393
125.48420800,125484208,0.0016634507337585092,125484208,0.0016634507337585092
125.48923600,125489236,0.0016634507337585092,125489236,0.0016634507337585092
125.49425900,125494259,0.0016634507337585092,125494259,0.0016634507337585092
125.49963900,125499639,0.0005981539143249393,125499639,0.0005981539143249393
125.50463600,125504636,0.0005981539143249393,125504636,0.0005981539143249393
125.50963600,125509636,-0.0004671430215239525,125509636,-0.0004671430215239525
125.51463700,125514637,-0.0004671430215239525,125514637,-0.0004671430215239525
125.51963800,125519638,0.0005981539143249393,125519638,0.0005981539143249393
125.52463900,125524639,0.0005981539143249393,125524639,0.0005981539143249393
125.52964200,125529642,0.0005981539143249393,125529642,0.0005981539143249393
125.53463800,125534638,0.0005981539143249393,125534638,0.0005981539143249393
125.53963800,125539638,0.0016634507337585092,125539638,0.0016634507337585092
125.54463400,125544634,0.0016634507337585092,125544634,0.0016634507337585092
125.54963900,125549639,0.0005981539143249393,125549639,0.0005981539143249393
125.55466400,125554664,0.0005981539143249393,125554664,0.0005981539143249393
125.55977900,125559779,-0.0004671430215239525,125559779,-0.0004671430215239525
125.56475600,125564756,-0.0015324399573728442,125564756,-0.0015324399573728442
125.56977600,125569776,-0.0004671430215239525,125569776,-0.0004671430215239525
125.57479200,125574792,0.0005981539143249393,125574792,0.0005981539143249393
125.57982000,125579820,0.0016634507337585092,125579820,0.0016634507337585092
125.58463900,125584639,0.002728747669607401,125584639,0.002728747669607401
125.58964400,125589644,0.002728747669607401,125589644,0.002728747669607401
125.59464100,125594641,0.0016634507337585092,125594641,0.0016634507337585092
125.59963600,125599636,0.0016634507337585092,125599636,0.0016634507337585092
125.60464000,125604640,0.0005981539143249393,125604640,0.0005981539143249393
125.60963500,125609635,0.0005981539143249393,125609635,0.0005981539143249393
125.61466700,125614667,0.0016634507337585092,125614667,0.0016634507337585092
125.61970500,125619705,0.002728747669607401,125619705,0.002728747669607401
125.62473700,125624737,0.0037940447218716145,125624737,0.0037940447218716145
125.62963700,125629637,0.0037940447218716145,125629637,0.0037940447218716145
125.63463200,125634632,0.002728747669607401,125634632,0.002728747669607401
125.63963600,125639636,0.0016634507337585092,125639636,0.0016634507337585092
125.64463600,125644636,0.0016634507337585092,125644636,0.0016634507337585092
125.64963600,125649636,0.0016634507337585092,125649636,0.0016634507337585092
125.65463600,125654636,0.0005981539143249393,125654636,0.0005981539143249393
125.65963600,125659636,0.0005981539143249393,125659636,0.0005981539143249393
125.66463600,125664636,0.0016634507337585092,125664636,0.0016634507337585092
125.66967000,125669670,0.002728747669607401,125669670,0.002728747669607401
125.67468700,125674687,0.002728747669607401,125674687,0.002728747669607401
125.67970500,125679705,0.002728747669607401,125679705,0.002728747669607401
125.68479200,125684792,0.002728747669607401,125684792,0.002728747669607401
125.68963400,125689634,0.002728747669607401,125689634,0.002728747669607401
125.69463400,125694634,0.002728747669607401,125694634,0.002728747669607401
125.70013200,125700132,0.002728747669607401,125700132,0.002728747669607401
125.70513600,125705136,0.0016634507337585092,125705136,0.0016634507337585092
125.71013500,125710135,0.0005981539143249393,125710135,0.0005981539143249393
125.71513600,125715136,-0.0004671430215239525,125715136,-0.0004671430215239525
125.72013500,125720135,-0.0004671430215239525,125720135,-0.0004671430215239525
125.72513300,125725133,-0.0004671430215239525,125725133,-0.0004671430215239525
125.73013400,125730134,0.0005981539143249393,125730134,0.0005981539143249393
125.73513800,125735138,0.0005981539143249393,125735138,0.0005981539143249393
125.74015900,125740159,0.0016634507337585092,125740159,0.0016634507337585092
125.74518800,125745188,0.0016634507337585092,125745188,0.0016634507337585092
125.75021300,125750213,0.002728747669607401,125750213,0.002728747669607401
125.75523600,125755236,0.0016634507337585092,125755236,0.0016634507337585092
125.76030800,125760308,0.0016634507337585092,125760308,0.0016634507337585092
125.76513400,125765134,0.0016634507337585092,125765134,0.0016634507337585092
125.77014000,125770140,0.0005981539143249393,125770140,0.0005981539143249393
125.77513300,125775133,0.0016634507337585092,125775133,0.0016634507337585092
125.78013500,125780135,0.002728747669607401,125780135,0.002728747669607401
125.78513400,125785134,0.002728747669607401,125785134,0.002728747669607401
125.79013300,125790133,0.0037940447218716145,125790133,0.0037940447218716145
125.79513700,125795137,0.002728747669607401,125795137,0.002728747669607401
125.80013400,125800134,0.002728747669607401,125800134,0.002728747669607401
125.80513200,125805132,0.0016634507337585092,125805132,0.0016634507337585092
125.81013300,125810133,0.0005981539143249393,125810133,0.0005981539143249393
125.81513900,125815139,-0.0004671430215239525,125815139,-0.0004671430215239525
125.82016300,125820163,-0.0015324399573728442,125820163,-0.0015324399573728442
125.82519000,125825190,-0.0004671430215239525,125825190,-0.0004671430215239525
125.83021400,125830214,0.0005981539143249393,125830214,0.0005981539143249393
125.83524500,125835245,0.002728747669607401,125835245,0.002728747669607401
125.84013300,125840133,0.0037940447218716145,125840133,0.0037940447218716145
125.84514300,125845143,0.002728747669607401,125845143,0.002728747669607401
125.85013900,125850139,0.002728747669607401,125850139,0.002728747669607401
125.85514600,125855146,0.0016634507337585092,125855146,0.0016634507337585092
125.86013300,125860133,0.0016634507337585092,125860133,0.0016634507337585092
125.86513400,125865134,0.0005981539143249393,125865134,0.0005981539143249393
125.87013800,125870138,0.0005981539143249393,125870138,0.0005981539143249393
125.87513400,125875134,0.0005981539143249393,125875134,0.0005981539143249393
125.88013400,125880134,-0.0004671430215239525,125880134,-0.0004671430215239525
125.88513200,125885132,-0.0004671430215239525,125885132,-0.0004671430215239525
125.89013300,125890133,-0.0004671430215239525,125890133,-0.0004671430215239525
125.89515800,125895158,-0.0004671430215239525,125895158,-0.0004671430215239525
125.90018100,125900181,-0.0004671430215239525,125900181,-0.0004671430215239525
125.90521400,125905214,-0.0004671430215239525,125905214,-0.0004671430215239525
125.91022600,125910226,-0.0004671430215239525,125910226,-0.0004671430215239525
125.91513900,125915139,-0.0004671430215239525,125915139,-0.0004671430215239525
125.92013300,125920133,0.0005981539143249393,125920133,0.0005981539143249393
125.92514500,125925145,0.0016634507337585092,125925145,0.0016634507337585092
125.93063400,125930634,0.0016634507337585092,125930634,0.0016634507337585092
125.93563300,125935633,0.0005981539143249393,125935633,0.0005981539143249393
125.94063500,125940635,0.0005981539143249393,125940635,0.0005981539143249393
125.94563500,125945635,0.0005981539143249393,125945635,0.0005981539143249393
125.95063300,125950633,0.0005981539143249393,125950633,0.0005981539143249393
125.95563300,125955633,0.0016634507337585092,125955633,0.0016634507337585092
125.96063300,125960633,0.0016634507337585092,125960633,0.0016634507337585092
125.96566200,125965662,0.002728747669607401,125965662,0.002728747669607401
125.97068600,125970686,0.002728747669607401,125970686,0.002728747669607401
125.97572200,125975722,0.002728747669607401,125975722,0.002728747669607401
125.98073500,125980735,0.0016634507337585092,125980735,0.0016634507337585092
125.98563300,125985633,0.0016634507337585092,125985633,0.0016634507337585092
125.99063200,125990632,0.0005981539143249393,125990632,0.0005981539143249393
125.99563400,125995634,0.0016634507337585092,125995634,0.0016634507337585092
126.00063400,126000634,0.0016634507337585092,126000634,0.0016634507337585092
126.00563800,126005638,0.0016634507337585092,126005638,0.0016634507337585092
126.01063700,126010637,0.0016634507337585092,126010637,0.0016634507337585092
126.01563200,126015632,-0.0004671430215239525,126015632,-0.0004671430215239525
126.02063300,126020633,-0.0004671430215239525,126020633,-0.0004671430215239525
126.02563400,126025634,-0.0015324399573728442,126025634,-0.0015324399573728442
126.03063300,126030633,-0.0004671430215239525,126030633,-0.0004671430215239525
126.03563400,126035634,0.0005981539143249393,126035634,0.0005981539143249393
126.04065300,126040653,0.0016634507337585092,126040653,0.0016634507337585092
126.04568100,126045681,0.002728747669607401,126045681,0.002728747669607401
126.05071300,126050713,0.002728747669607401,126050713,0.002728747669607401
126.05573600,126055736,0.0016634507337585092,126055736,0.0016634507337585092
126.06063700,126060637,0.0016634507337585092,126060637,0.0016634507337585092
126.06564100,126065641,0.0016634507337585092,126065641,0.0016634507337585092
126.07065700,126070657,0.0016634507337585092,126070657,0.0016634507337585092
126.07563800,126075638,0.0016634507337585092,126075638,0.0016634507337585092
126.08063700,126080637,0.0016634507337585092,126080637,0.0016634507337585092
126.08563700,126085637,0.0016634507337585092,126085637,0.0016634507337585092
126.09063700,126090637,0.0016634507337585092,126090637,0.0016634507337585092
126.09563700,126095637,0.0016634507337585092,126095637,0.0016634507337585092
126.10063600,126100636,0.002728747669607401,126100636,0.002728747669607401
126.10565200,126105652,0.0016634507337585092,126105652,0.0016634507337585092
126.11067900,126110679,0.0005981539143249393,126110679,0.0005981539143249393
126.11571100,126115711,-0.0004671430215239525,126115711,-0.0004671430215239525
126.12073200,126120732,-0.0004671430215239525,126120732,-0.0004671430215239525
126.12575800,126125758,-0.0004671430215239525,126125758,-0.0004671430215239525
126.13077300,126130773,-0.0004671430215239525,126130773,-0.0004671430215239525
126.13585400,126135854,0.0005981539143249393,126135854,0.0005981539143249393
126.14063300,126140633,0.0005981539143249393,126140633,0.0005981539143249393
126.14563300,126145633,0.0005981539143249393,126145633,0.0005981539143249393
126.15115900,126151159,0.0005981539143249393,126151159,0.0005981539143249393
126.15615500,126156155,0.0016634507337585092,126156155,0.0016634507337585092
126.16115400,126161154,0.0016634507337585092,126161154,0.0016634507337585092
126.16617200,126166172,0.002728747669607401,126166172,0.002728747669607401
126.17124300,126171243,0.002728747669607401,126171243,0.002728747669607401
126.17623600,126176236,0.0016634507337585092,126176236,0.0016634507337585092
126.18127700,126181277,0.0016634507337585092,126181277,0.0016634507337585092
126.18620200,126186202,0.0005981539143249393,126186202,0.0005981539143249393
126.19122200,126191222,0.0016634507337585092,126191222,0.0016634507337585092
126.19575700,126195757,0.0016634507337585092,126195757,0.0016634507337585092
126.20113300,126201133,0.002728747669607401,126201133,0.002728747669607401
126.20613500,126206135,0.0016634507337585092,126206135,0.0016634507337585092
126.21113400,126211134,0.0016634507337585092,126211134,0.0016634507337585092
126.21613400,126216134,0.0016634507337585092,126216134,0.0016634507337585092
126.22113200,126221132,0.0016634507337585092,126221132,0.0016634507337585092
126.22614200,126226142,0.0016634507337585092,126226142,0.0016634507337585092
126.23117800,126231178,0.0016634507337585092,126231178,0.0016634507337585092
126.23620000,126236200,0.0005981539143249393,126236200,0.0005981539143249393
126.24122300,126241223,0.0005981539143249393,126241223,0.0005981539143249393
126.24625100,126246251,0.0005981539143249393,126246251,0.0005981539143249393
126.25113400,126251134,0.0005981539143249393,126251134,0.0005981539143249393
126.25613200,126256132,0.0005981539143249393,126256132,0.0005981539143249393
126.26113300,126261133,0.0016634507337585092,126261133,0.0016634507337585092
126.26613200,126266132,0.0016634507337585092,126266132,0.0016634507337585092
126.27113400,126271134,0.0016634507337585092,126271134,0.0016634507337585092
126.27613600,126276136,0.0005981539143249393,126276136,0.0005981539143249393
126.28113700,126281137,-0.0004671430215239525,126281137,-0.0004671430215239525
126.28613400,126286134,-0.0004671430215239525,126286134,-0.0004671430215239525
126.29114300,126291143,-0.0004671430215239525,126291143,-0.0004671430215239525
126.29613300,126296133,0.0005981539143249393,126296133,0.0005981539143249393
126.30115000,126301150,0.0016634507337585092,126301150,0.0016634507337585092
126.30617300,126306173,0.0016634507337585092,126306173,0.0016634507337585092
126.31119900,126311199,0.0005981539143249393,126311199,0.0005981539143249393
126.31622700,126316227,0.0005981539143249393,126316227,0.0005981539143249393
126.32130200,126321302,0.0005981539143249393,126321302,0.0005981539143249393
126.32613300,126326133,0.0016634507337585092,126326133,0.0016634507337585092
126.33113300,126331133,0.002728747669607401,126331133,0.002728747669607401
126.33613600,126336136,0.0037940447218716145,126336136,0.0037940447218716145
126.34113500,126341135,0.004859341308474541,126341135,0.004859341308474541
126.34614000,126346140,0.0037940447218716145,126346140,0.0037940447218716145
126.35113600,126351136,0.0037940447218716145,126351136,0.0037940447218716145
126.35613700,126356137,0.004859341308474541,126356137,0.004859341308474541
126.36114000,126361140,0.004859341308474541,126361140,0.004859341308474541
126.36613400,126366134,0.004859341308474541,126366134,0.004859341308474541
126.37113200,126371132,0.004859341308474541,126371132,0.004859341308474541
126.37614500,126376145,0.0037940447218716145,126376145,0.0037940447218716145
126.38115200,126381152,0.002728747669607401,126381152,0.002728747669607401
126.38618300,126386183,0.0016634507337585092,126386183,0.0016634507337585092
126.39120800,126391208,0.0016634507337585092,126391208,0.0016634507337585092
126.39622900,126396229,0.0016634507337585092,126396229,0.0016634507337585092
126.40163300,126401633,0.0016634507337585092,126401633,0.0016634507337585092
126.40663500,126406635,0.0016634507337585092,126406635,0.0016634507337585092
126.41164800,126411648,0.0016634507337585092,126411648,0.0016634507337585092
126.41663300,126416633,0.0005981539143249393,126416633,0.0005981539143249393
126.42163700,126421637,0.0016634507337585092,126421637,0.0016634507337585092
126.42663200,126426632,0.002728747669607401,126426632,0.002728747669607401
126.43163300,126431633,0.002728747669607401,126431633,0.002728747669607401
126.43663300,126436633,0.002728747669607401,126436633,0.002728747669607401
126.44163300,126441633,0.0016634507337585092,126441633,0.0016634507337585092
126.44663500,126446635,0.0016634507337585092,126446635,0.0016634507337585092
126.45163400,126451634,0.002728747669607401,126451634,0.002728747669607401
126.45666100,126456661,0.0037940447218716145,126456661,0.0037940447218716145
126.46168600,126461686,0.004859341308474541,126461686,0.004859341308474541
126.46671700,126466717,0.0037940447218716145,126466717,0.0037940447218716145
126.47174000,126471740,0.002728747669607401,126471740,0.002728747669607401
126.47663400,126476634,0.0016634507337585092,126476634,0.0016634507337585092
126.48163400,126481634,0.0005981539143249393,126481634,0.0005981539143249393
126.48663400,126486634,0.0016634507337585092,126486634,0.0016634507337585092
126.49163400,126491634,0.002728747669607401,126491634,0.002728747669607401
126.49663300,126496633,0.002728747669607401,126496633,0.002728747669607401
126.50164200,126501642,0.002728747669607401,126501642,0.002728747669607401
126.50663700,126506637,0.0016634507337585092,126506637,0.0016634507337585092
126.51163300,126511633,0.0005981539143249393,126511633,0.0005981539143249393
126.51663300,126516633,0.0005981539143249393,126516633,0.0005981539143249393
126.52163200,126521632,0.0005981539143249393,126521632,0.0005981539143249393
126.52665500,126526655,0.0005981539143249393,126526655,0.0005981539143249393
126.53166400,126531664,0.0016634507337585092,126531664,0.0016634507337585092
126.53669200,126536692,0.0016634507337585092,126536692,0.0016634507337585092
126.54172600,126541726,0.0016634507337585092,126541726,0.0016634507337585092
126.54673800,126546738,0.0016634507337585092,126546738,0.0016634507337585092
126.55163600,126551636,0.0016634507337585092,126551636,0.0016634507337585092
126.55663400,126556634,0.0005981539143249393,126556634,0.0005981539143249393
126.56164100,126561641,0.0005981539143249393,126561641,0.0005981539143249393
126.56663800,126566638,0.0005981539143249393,126566638,0.0005981539143249393
126.57163700,126571637,0.0005981539143249393,126571637,0.0005981539143249393
126.57663800,126576638,0.0005981539143249393,126576638,0.0005981539143249393
126.58163800,126581638,0.0005981539143249393,126581638,0.0005981539143249393
126.58663700,126586637,-0.0004671430215239525,126586637,-0.0004671430215239525
126.59164100,126591641,-0.0015324399573728442,126591641,-0.0015324399573728442
126.59663700,126596637,-0.002597736893221736,126596637,-0.002597736893221736
126.60165700,126601657,-0.003663033712655306,126601657,-0.003663033712655306
126.60669000,126606690,-0.004728330764919519,126606690,-0.004728330764919519
126.61170200,126611702,-0.003663033712655306,126611702,-0.003663033712655306
126.61672300,126616723,-0.002597736893221736,126616723,-0.002597736893221736
126.62174800,126621748,-0.0015324399573728442,126621748,-0.0015324399573728442
126.62713600,126627136,-0.0004671430215239525,126627136,-0.0004671430215239525
126.63213600,126632136,-0.0004671430215239525,126632136,-0.0004671430215239525
126.63713600,126637136,0.0016634507337585092,126637136,0.0016634507337585092
126.64213600,126642136,0.002728747669607401,126642136,0.002728747669607401
126.64713700,126647137,0.002728747669607401,126647137,0.002728747669607401
126.65214000,126652140,0.0016634507337585092,126652140,0.0016634507337585092
126.65713700,126657137,0.0005981539143249393,126657137,0.0005981539143249393
126.66218500,126662185,0.0005981539143249393,126662185,0.0005981539143249393
126.66713300,126667133,0.0005981539143249393,126667133,0.0005981539143249393
126.67216300,126672163,0.0016634507337585092,126672163,0.0016634507337585092
126.67723900,126677239,0.0016634507337585092,126677239,0.0016634507337585092
126.68220400,126682204,0.0005981539143249393,126682204,0.0005981539143249393
126.68723400,126687234,0.0005981539143249393,126687234,0.0005981539143249393
126.69231000,126692310,0.0005981539143249393,126692310,0.0005981539143249393
126.69728400,126697284,0.0005981539143249393,126697284,0.0005981539143249393
126.70237400,126702374,0.0005981539143249393,126702374,0.0005981539143249393
126.70713200,126707132,0.0005981539143249393,126707132,0.0005981539143249393
126.71214200,126712142,0.0016634507337585092,126712142,0.0016634507337585092
126.71713500,126717135,0.0016634507337585092,126717135,0.0016634507337585092
126.72213300,126722133,0.0016634507337585092,126722133,0.0016634507337585092
126.72713600,126727136,0.0005981539143249393,126727136,0.0005981539143249393
126.73213400,126732134,0.0016634507337585092,126732134,0.0016634507337585092
126.73717100,126737171,0.002728747669607401,126737171,0.002728747669607401
126.74220700,126742207,0.002728747669607401,126742207,0.002728747669607401
126.74723400,126747234,0.0037940447218716145,126747234,0.0037940447218716145
126.75213500,126752135,0.002728747669607401,126752135,0.002728747669607401
126.75713800,126757138,0.002728747669607401,126757138,0.002728747669607401
126.76213500,126762135,0.002728747669607401,126762135,0.002728747669607401
126.76713400,126767134,0.002728747669607401,126767134,0.002728747669607401
126.77213600,126772136,0.002728747669607401,126772136,0.002728747669607401
126.77713600,126777136,0.0016634507337585092,126777136,0.0016634507337585092
126.78213500,126782135,0.0016634507337585092,126782135,0.0016634507337585092
126.78715800,126787158,0.0005981539143249393,126787158,0.0005981539143249393
126.79218600,126792186,0.0005981539143249393,126792186,0.0005981539143249393
126.79721300,126797213,0.0005981539143249393,126797213,0.0005981539143249393
126.80224500,126802245,-0.0004671430215239525,126802245,-0.0004671430215239525
126.80713500,126807135,-0.0004671430215239525,126807135,-0.0004671430215239525
126.81213400,126812134,-0.0004671430215239525,126812134,-0.0004671430215239525
126.81713700,126817137,-0.0004671430215239525,126817137,-0.0004671430215239525
126.82213600,126822136,-0.0004671430215239525,126822136,-0.0004671430215239525
126.82763600,126827636,-0.0004671430215239525,126827636,-0.0004671430215239525
126.83263300,126832633,0.0005981539143249393,126832633,0.0005981539143249393
126.83763300,126837633,0.0005981539143249393,126837633,0.0005981539143249393
126.84263200,126842632,0.0005981539143249393,126842632,0.0005981539143249393
126.84720300,126847203,0.0016634507337585092,126847203,0.0016634507337585092
126.85221700,126852217,0.002728747669607401,126852217,0.002728747669607401
126.85724200,126857242,0.002728747669607401,126857242,0.002728747669607401
126.86263300,126862633,0.0037940447218716145,126862633,0.0037940447218716145
126.86763400,126867634,0.0037940447218716145,126867634,0.0037940447218716145
126.87263200,126872632,0.0037940447218716145,126872632,0.0037940447218716145
126.87763300,126877633,0.002728747669607401,126877633,0.002728747669607401
126.88263300,126882633,0.0016634507337585092,126882633,0.0016634507337585092
126.88763400,126887634,0.0016634507337585092,126887634,0.0016634507337585092
126.89263400,126892634,0.0016634507337585092,126892634,0.0016634507337585092
126.89763400,126897634,0.0016634507337585092,126897634,0.0016634507337585092
126.90263500,126902635,0.002728747669607401,126902635,0.002728747669607401
126.90763600,126907636,0.0016634507337585092,126907636,0.0016634507337585092
126.91265600,126912656,0.0005981539143249393,126912656,0.0005981539143249393
126.91768100,126917681,-0.0004671430215239525,126917681,-0.0004671430215239525
126.92270600,126922706,-0.0004671430215239525,126922706,-0.0004671430215239525
126.92772900,126927729,0.0005981539143249393,126927729,0.0005981539143249393
126.93275700,126932757,0.0016634507337585092,126932757,0.0016634507337585092
126.93763500,126937635,0.0016634507337585092,126937635,0.0016634507337585092
126.94263400,126942634,0.0005981539143249393,126942634,0.0005981539143249393
126.94763700,126947637,-0.0004671430215239525,126947637,-0.0004671430215239525
126.95263300,126952633,-0.0015324399573728442,126952633,-0.0015324399573728442
126.95763600,126957636,-0.0004671430215239525,126957636,-0.0004671430215239525
126.96263300,126962633,-0.0004671430215239525,126962633,-0.0004671430215239525
126.96763300,126967633,0.0005981539143249393,126967633,0.0005981539143249393
126.97263300,126972633,0.0016634507337585092,126972633,0.0016634507337585092
126.97763300,126977633,0.002728747669607401,126977633,0.002728747669607401
126.98263400,126982634,0.002728747669607401,126982634,0.002728747669607401
126.98765000,126987650,0.002728747669607401,126987650,0.002728747669607401
126.99267000,126992670,0.0016634507337585092,126992670,0.0016634507337585092
126.99769800,126997698,0.0016634507337585092,126997698,0.0016634507337585092
127.00272500,127002725,0.0016634507337585092,127002725,0.0016634507337585092
127.00774900,127007749,0.0016634507337585092,127007749,0.0016634507337585092
127.01263400,127012634,0.0005981539143249393,127012634,0.0005981539143249393
127.01763500,127017635,0.0005981539143249393,127017635,0.0005981539143249393
127.02263400,127022634,0.0016634507337585092,127022634,0.0016634507337585092
127.02764700,127027647,0.002728747669607401,127027647,0.002728747669607401
127.03263600,127032636,0.0016634507337585092,127032636,0.0016634507337585092
127.03763700,127037637,0.0016634507337585092,127037637,0.0016634507337585092
127.04263600,127042636,0.0005981539143249393,127042636,0.0005981539143249393
127.04763600,127047636,0.0005981539143249393,127047636,0.0005981539143249393
127.05264300,127052643,0.0005981539143249393,127052643,0.0005981539143249393
127.05813400,127058134,0.0016634507337585092,127058134,0.0016634507337585092
127.06314700,127063147,0.0016634507337585092,127063147,0.0016634507337585092
127.06768100,127067681,0.0016634507337585092,127067681,0.0016634507337585092
127.07270300,127072703,0.0016634507337585092,127072703,0.0016634507337585092
127.07773600,127077736,0.0016634507337585092,127077736,0.0016634507337585092
127.08275800,127082758,0.002728747669607401,127082758,0.002728747669607401
127.08813200,127088132,0.0037940447218716145,127088132,0.0037940447218716145
127.09313600,127093136,0.0037940447218716145,127093136,0.0037940447218716145
127.09813500,127098135,0.002728747669607401,127098135,0.002728747669607401
127.10313500,127103135,0.0016634507337585092,127103135,0.0016634507337585092
127.10813300,127108133,0.0016634507337585092,127108133,0.0016634507337585092
127.11313300,127113133,0.0005981539143249393,127113133,0.0005981539143249393
127.11813400,127118134,0.0005981539143249393,127118134,0.0005981539143249393
127.12313500,127123135,0.0016634507337585092,127123135,0.0016634507337585092
127.12813500,127128135,0.002728747669607401,127128135,0.002728747669607401
127.13313600,127133136,0.002728747669607401,127133136,0.002728747669607401
127.13814400,127138144,0.002728747669607401,127138144,0.002728747669607401
127.14316700,127143167,0.0005981539143249393,127143167,0.0005981539143249393
127.14819400,127148194,-0.0004671430215239525,127148194,-0.0004671430215239525
127.15321500,127153215,-0.0004671430215239525,127153215,-0.0004671430215239525
127.15823800,127158238,0.0005981539143249393,127158238,0.0005981539143249393
127.16313600,127163136,0.0016634507337585092,127163136,0.0016634507337585092
127.16813600,127168136,0.002728747669607401,127168136,0.002728747669607401
127.17313800,127173138,0.0037940447218716145,127173138,0.0037940447218716145
127.17813700,127178137,0.0037940447218716145,127178137,0.0037940447218716145
127.18313700,127183137,0.0037940447218716145,127183137,0.0037940447218716145
127.18813700,127188137,0.002728747669607401,127188137,0.002728747669607401
127.19313700,127193137,0.002728747669607401,127193137,0.002728747669607401
127.19814000,127198140,0.0016634507337585092,127198140,0.0016634507337585092
127.20314400,127203144,-0.0004671430215239525,127203144,-0.0004671430215239525
127.20817800,127208178,-0.0015324399573728442,127208178,-0.0015324399573728442
127.21313300,127213133,-0.0015324399573728442,127213133,-0.0015324399573728442
127.21817700,127218177,-0.0015324399573728442,127218177,-0.0015324399573728442
127.22313200,127223132,-0.0015324399573728442,127223132,-0.0015324399573728442
127.22822500,127228225,-0.0004671430215239525,127228225,-0.0004671430215239525
127.23314800,127233148,-0.0004671430215239525,127233148,-0.0004671430215239525
127.23821900,127238219,0.0005981539143249393,127238219,0.0005981539143249393
127.24317500,127243175,0.0005981539143249393,127243175,0.0005981539143249393
127.24828900,127248289,0.0005981539143249393,127248289,0.0005981539143249393
127.25319600,127253196,0.0005981539143249393,127253196,0.0005981539143249393
127.25820000,127258200,0.0005981539143249393,127258200,0.0005981539143249393
127.26323500,127263235,0.0005981539143249393,127263235,0.0005981539143249393
127.26823900,127268239,0.0016634507337585092,127268239,0.0016634507337585092
127.27313600,127273136,0.0016634507337585092,127273136,0.0016634507337585092
127.27813700,127278137,0.0005981539143249393,127278137,0.0005981539143249393
127.28363500,127283635,0.0005981539143249393,127283635,0.0005981539143249393
127.28863300,127288633,0.0016634507337585092,127288633,0.0016634507337585092
127.29363400,127293634,0.0016634507337585092,127293634,0.0016634507337585092
127.29863700,127298637,0.0016634507337585092,127298637,0.0016634507337585092
127.30363400,127303634,0.002728747669607401,127303634,0.002728747669607401
127.30863300,127308633,0.002728747669607401,127308633,0.002728747669607401
127.31363500,127313635,0.002728747669607401,127313635,0.002728747669607401
127.31863400,127318634,0.0016634507337585092,127318634,0.0016634507337585092
127.32363300,127323633,0.0016634507337585092,127323633,0.0016634507337585092
127.32863300,127328633,0.0016634507337585092,127328633,0.0016634507337585092
127.33363200,127333632,0.0005981539143249393,127333632,0.0005981539143249393
127.33863400,127338634,0.0005981539143249393,127338634,0.0005981539143249393
127.34363400,127343634,0.0005981539143249393,127343634,0.0005981539143249393
127.34863400,127348634,0.0005981539143249393,127348634,0.0005981539143249393
127.35364900,127353649,0.0005981539143249393,127353649,0.0005981539143249393
127.35864900,127358649,0.0016634507337585092,127358649,0.0016634507337585092
127.36368400,127363684,0.002728747669607401,127363684,0.002728747669607401
127.36867800,127368678,0.002728747669607401,127368678,0.002728747669607401
127.37371100,127373711,0.002728747669607401,127373711,0.002728747669607401
127.37871000,127378710,0.0016634507337585092,127378710,0.0016634507337585092
127.38380100,127383801,0.0016634507337585092,127383801,0.0016634507337585092
127.38873400,127388734,0.0016634507337585092,127388734,0.0016634507337585092
127.39363500,127393635,0.0016634507337585092,127393635,0.0016634507337585092
127.39863300,127398633,0.0016634507337585092,127398633,0.0016634507337585092
127.40363400,127403634,0.002728747669607401,127403634,0.002728747669607401
127.40863500,127408635,0.0016634507337585092,127408635,0.0016634507337585092
127.41363300,127413633,0.0016634507337585092,127413633,0.0016634507337585092
127.41863500,127418635,0.0016634507337585092,127418635,0.0016634507337585092
127.42369100,127423691,0.0005981539143249393,127423691,0.0005981539143249393
127.42863400,127428634,0.0005981539143249393,127428634,0.0005981539143249393
127.43363500,127433635,0.0005981539143249393,127433635,0.0005981539143249393
127.43863600,127438636,0.0005981539143249393,127438636,0.0005981539143249393
127.44363400,127443634,0.0005981539143249393,127443634,0.0005981539143249393
127.44863400,127448634,0.0016634507337585092,127448634,0.0016634507337585092
127.45364100,127453641,0.002728747669607401,127453641,0.002728747669607401
127.45863600,127458636,0.0037940447218716145,127458636,0.0037940447218716145
127.46363700,127463637,0.002728747669607401,127463637,0.002728747669607401
127.46863300,127468633,0.002728747669607401,127468633,0.002728747669607401
127.47363900,127473639,0.0016634507337585092,127473639,0.0016634507337585092
127.47864200,127478642,0.0005981539143249393,127478642,0.0005981539143249393
127.48363300,127483633,-0.0004671430215239525,127483633,-0.0004671430215239525
127.48863200,127488632,-0.0004671430215239525,127488632,-0.0004671430215239525
127.49364000,127493640,0.0005981539143249393,127493640,0.0005981539143249393
127.49863600,127498636,0.0005981539143249393,127498636,0.0005981539143249393
127.50366700,127503667,0.002728747669607401,127503667,0.002728747669607401
127.50866300,127508663,0.0037940447218716145,127508663,0.0037940447218716145
127.51369100,127513691,0.0037940447218716145,127513691,0.0037940447218716145
127.51869200,127518692,0.004859341308474541,127518692,0.004859341308474541
127.52371400,127523714,0.0037940447218716145,127523714,0.0037940447218716145
127.52872200,127528722,0.002728747669607401,127528722,0.002728747669607401
127.53374500,127533745,0.0016634507337585092,127533745,0.0016634507337585092
127.53874600,127538746,0.0016634507337585092,127538746,0.0016634507337585092
127.54413600,127544136,0.0016634507337585092,127544136,0.0016634507337585092
127.54913400,127549134,0.002728747669607401,127549134,0.002728747669607401
127.55413300,127554133,0.002728747669607401,127554133,0.002728747669607401
127.55913400,127559134,0.002728747669607401,127559134,0.002728747669607401
127.56413200,127564132,0.002728747669607401,127564132,0.002728747669607401
127.56913300,127569133,0.002728747669607401,127569133,0.002728747669607401
127.57413400,127574134,0.0016634507337585092,127574134,0.0016634507337585092
127.57913700,127579137,0.0016634507337585092,127579137,0.0016634507337585092
127.58413400,127584134,0.0016634507337585092,127584134,0.0016634507337585092
127.58913400,127589134,0.0016634507337585092,127589134,0.0016634507337585092
127.59413600,127594136,0.002728747669607401,127594136,0.002728747669607401
127.59914300,127599143,0.002728747669607401,127599143,0.002728747669607401
127.60413600,127604136,0.002728747669607401,127604136,0.002728747669607401
127.60913600,127609136,0.002728747669607401,127609136,0.002728747669607401
127.61413400,127614134,0.002728747669607401,127614134,0.002728747669607401
127.61913900,127619139,0.0016634507337585092,127619139,0.0016634507337585092
127.62414000,127624140,0.0005981539143249393,127624140,0.0005981539143249393
127.62913300,127629133,0.0016634507337585092,127629133,0.0016634507337585092
127.63413400,127634134,0.0016634507337585092,127634134,0.0016634507337585092
127.63913500,127639135,0.002728747669607401,127639135,0.002728747669607401
127.64415300,127644153,0.0037940447218716145,127644153,0.0037940447218716145
127.64916000,127649160,0.002728747669607401,127649160,0.002728747669607401
127.65418300,127654183,0.0005981539143249393,127654183,0.0005981539143249393
127.65917100,127659171,0.0005981539143249393,127659171,0.0005981539143249393
127.66419700,127664197,0.0016634507337585092,127664197,0.0016634507337585092
127.66919800,127669198,0.0016634507337585092,127669198,0.0016634507337585092
127.67422700,127674227,0.0016634507337585092,127674227,0.0016634507337585092
127.67923200,127679232,0.0016634507337585092,127679232,0.0016634507337585092
127.68425600,127684256,0.0016634507337585092,127684256,0.0016634507337585092
127.68925200,127689252,0.0016634507337585092,127689252,0.0016634507337585092
127.69414000,127694140,0.0016634507337585092,127694140,0.0016634507337585092
127.69913300,127699133,0.0005981539143249393,127699133,0.0005981539143249393
127.70413600,127704136,0.0005981539143249393,127704136,0.0005981539143249393
127.70913500,127709135,0.0005981539143249393,127709135,0.0005981539143249393
127.71413700,127714137,0.0016634507337585092,127714137,0.0016634507337585092
127.71913300,127719133,0.0016634507337585092,127719133,0.0016634507337585092
127.72414800,127724148,0.0016634507337585092,127724148,0.0016634507337585092
127.72913600,127729136,0.0016634507337585092,127729136,0.0016634507337585092
127.73463800,127734638,0.0016634507337585092,127734638,0.0016634507337585092
127.73963400,127739634,0.0016634507337585092,127739634,0.0016634507337585092
127.74464200,127744642,0.0016634507337585092,127744642,0.0016634507337585092
127.74963800,127749638,0.002728747669607401,127749638,0.002728747669607401
127.75463700,127754637,0.002728747669607401,127754637,0.002728747669607401
127.75963200,127759632,0.002728747669607401,127759632,0.002728747669607401
127.76465900,127764659,0.0016634507337585092,127764659,0.0016634507337585092
127.76963800,127769638,0.0016634507337585092,127769638,0.0016634507337585092
127.77464800,127774648,0.0005981539143249393,127774648,0.0005981539143249393
127.77963300,127779633,-0.0004671430215239525,127779633,-0.0004671430215239525
127.78469900,127784699,-0.0004671430215239525,127784699,-0.0004671430215239525
127.78963200,127789632,-0.0004671430215239525,127789632,-0.0004671430215239525
127.79467500,127794675,0.0005981539143249393,127794675,0.0005981539143249393
127.79963400,127799634,0.0005981539143249393,127799634,0.0005981539143249393
127.80474300,127804743,0.0016634507337585092,127804743,0.0016634507337585092
127.80965900,127809659,0.0016634507337585092,127809659,0.0016634507337585092
127.81477100,127814771,0.002728747669607401,127814771,0.002728747669607401
127.81968000,127819680,0.002728747669607401,127819680,0.002728747669607401
127.82481300,127824813,0.002728747669607401,127824813,0.002728747669607401
127.82971300,127829713,0.0016634507337585092,127829713,0.0016634507337585092
127.83471500,127834715,0.0016634507337585092,127834715,0.0016634507337585092
127.83974200,127839742,0.0016634507337585092,127839742,0.0016634507337585092
127.84474500,127844745,0.002728747669607401,127844745,0.002728747669607401
127.84963900,127849639,0.002728747669607401,127849639,0.002728747669607401
127.85463400,127854634,0.0016634507337585092,127854634,0.0016634507337585092
127.85963200,127859632,0.0005981539143249393,127859632,0.0005981539143249393
127.86463300,127864633,0.0005981539143249393,127864633,0.0005981539143249393
127.86963300,127869633,0.0016634507337585092,127869633,0.0016634507337585092
127.87463300,127874633,0.0016634507337585092,127874633,0.0016634507337585092
127.87963300,127879633,0.0016634507337585092,127879633,0.0016634507337585092
127.88463700,127884637,0.0016634507337585092,127884637,0.0016634507337585092
127.88963300,127889633,0.0016634507337585092,127889633,0.0016634507337585092
127.89463400,127894634,-0.0004671430215239525,127894634,-0.0004671430215239525
127.89963300,127899633,-0.0004671430215239525,127899633,-0.0004671430215239525
127.90463500,127904635,-0.0004671430215239525,127904635,-0.0004671430215239525
127.90963200,127909632,0.0005981539143249393,127909632,0.0005981539143249393
127.91463400,127914634,0.0016634507337585092,127914634,0.0016634507337585092
127.91963300,127919633,0.002728747669607401,127919633,0.002728747669607401
127.92463600,127924636,0.002728747669607401,127924636,0.002728747669607401
127.92963300,127929633,0.002728747669607401,127929633,0.002728747669607401
127.93463300,127934633,0.002728747669607401,127934633,0.002728747669607401
127.93964100,127939641,0.002728747669607401,127939641,0.002728747669607401
127.94463500,127944635,0.002728747669607401,127944635,0.002728747669607401
127.94965000,127949650,0.002728747669607401,127949650,0.002728747669607401
127.95465500,127954655,0.0016634507337585092,127954655,0.0016634507337585092
127.95967800,127959678,-0.0004671430215239525,127959678,-0.0004671430215239525
127.96468000,127964680,-0.0004671430215239525,127964680,-0.0004671430215239525
127.96970900,127969709,-0.0015324399573728442,127969709,-0.0015324399573728442
127.97471300,127974713,-0.0004671430215239525,127974713,-0.0004671430215239525
127.97973300,127979733,0.0005981539143249393,127979733,0.0005981539143249393
127.98473100,127984731,0.0005981539143249393,127984731,0.0005981539143249393
127.98975700,127989757,0.0016634507337585092,127989757,0.0016634507337585092
127.99475600,127994756,0.0016634507337585092,127994756,0.0016634507337585092
128.00013500,128000135,0.0016634507337585092,128000135,0.0016634507337585092
128.00513300,128005133,0.0016634507337585092,128005133,0.0016634507337585092
128.01013400,128010134,0.0005981539143249393,128010134,0.0005981539143249393
128.01513500,128015135,-0.0004671430215239525,128015135,-0.0004671430215239525
128.02013100,128020131,0.0005981539143249393,128020131,0.0005981539143249393
128.02513400,128025134,0.0016634507337585092,128025134,0.0016634507337585092
128.03013400,128030134,0.002728747669607401,128030134,0.002728747669607401
128.03513300,128035133,0.002728747669607401,128035133,0.002728747669607401
128.04014800,128040148,0.002728747669607401,128040148,0.002728747669607401
128.04514400,128045144,0.0005981539143249393,128045144,0.0005981539143249393
128.05013500,128050135,-0.0004671430215239525,128050135,-0.0004671430215239525
128.05513300,128055133,-0.0015324399573728442,128055133,-0.0015324399573728442
128.06013300,128060133,-0.0004671430215239525,128060133,-0.0004671430215239525
128.06513600,128065136,0.0005981539143249393,128065136,0.0005981539143249393
128.07013300,128070133,0.0016634507337585092,128070133,0.0016634507337585092
128.07513400,128075134,0.0037940447218716145,128075134,0.0037940447218716145
128.08013300,128080133,0.0037940447218716145,128080133,0.0037940447218716145
128.08513300,128085133,0.002728747669607401,128085133,0.002728747669607401
128.09013400,128090134,0.002728747669607401,128090134,0.002728747669607401
128.09513300,128095133,0.0016634507337585092,128095133,0.0016634507337585092
128.10014800,128100148,0.0016634507337585092,128100148,0.0016634507337585092
128.10514300,128105143,0.002728747669607401,128105143,0.002728747669607401
128.11016600,128110166,0.002728747669607401,128110166,0.002728747669607401
128.11516900,128115169,0.0037940447218716145,128115169,0.0037940447218716145
128.12019600,128120196,0.0037940447218716145,128120196,0.0037940447218716145
128.12520600,128125206,0.002728747669607401,128125206,0.002728747669607401
128.13023800,128130238,0.0016634507337585092,128130238,0.0016634507337585092
128.13523000,128135230,0.0016634507337585092,128135230,0.0016634507337585092
128.14025800,128140258,0.002728747669607401,128140258,0.002728747669607401
128.14525600,128145256,0.002728747669607401,128145256,0.002728747669607401
128.15013700,128150137,0.002728747669607401,128150137,0.002728747669607401
128.15513500,128155135,0.0016634507337585092,128155135,0.0016634507337585092
128.16014300,128160143,0.0005981539143249393,128160143,0.0005981539143249393
128.16513600,128165136,0.0005981539143249393,128165136,0.0005981539143249393
128.17013800,128170138,0.0016634507337585092,128170138,0.0016634507337585092
128.17513700,128175137,0.002728747669607401,128175137,0.002728747669607401
128.18013600,128180136,0.002728747669607401,128180136,0.002728747669607401
128.18563500,128185635,0.002728747669607401,128185635,0.002728747669607401
128.19064100,128190641,0.002728747669607401,128190641,0.002728747669607401
128.19563300,128195633,0.0037940447218716145,128195633,0.0037940447218716145
128.20063300,128200633,0.002728747669607401,128200633,0.002728747669607401
128.20564000,128205640,0.0016634507337585092,128205640,0.0016634507337585092
128.21063300,128210633,-0.0004671430215239525,128210633,-0.0004671430215239525
128.21563600,128215636,-0.0015324399573728442,128215636,-0.0015324399573728442
128.22063200,128220632,-0.0004671430215239525,128220632,-0.0004671430215239525
128.22563300,128225633,0.0005981539143249393,128225633,0.0005981539143249393
128.23063300,128230633,0.002728747669607401,128230633,0.002728747669607401
128.23563500,128235635,0.002728747669607401,128235635,0.002728747669607401
128.24064000,128240640,0.002728747669607401,128240640,0.002728747669607401
128.24563400,128245634,0.0016634507337585092,128245634,0.0016634507337585092
128.25066300,128250663,0.0016634507337585092,128250663,0.0016634507337585092
128.25566800,128255668,0.0016634507337585092,128255668,0.0016634507337585092
128.26069100,128260691,0.0016634507337585092,128260691,0.0016634507337585092
128.26568500,128265685,0.002728747669607401,128265685,0.002728747669607401
128.27071500,128270715,0.002728747669607401,128270715,0.002728747669607401
128.27571300,128275713,0.002728747669607401,128275713,0.002728747669607401
128.28074200,128280742,0.0016634507337585092,128280742,0.0016634507337585092
128.28573500,128285735,0.0005981539143249393,128285735,0.0005981539143249393
128.29064000,128290640,-0.0004671430215239525,128290640,-0.0004671430215239525
128.29563300,128295633,-0.0004671430215239525,128295633,-0.0004671430215239525
128.30063900,128300639,-0.0004671430215239525,128300639,-0.0004671430215239525
128.30563300,128305633,0.0005981539143249393,128305633,0.0005981539143249393
128.31063800,128310638,0.0005981539143249393,128310638,0.0005981539143249393
128.31563300,128315633,0.0016634507337585092,128315633,0.0016634507337585092
128.32063800,128320638,0.002728747669607401,128320638,0.002728747669607401
128.32563400,128325634,0.002728747669607401,128325634,0.002728747669607401
128.33063700,128330637,0.0037940447218716145,128330637,0.0037940447218716145
128.33563500,128335635,0.002728747669607401,128335635,0.002728747669607401
128.34063800,128340638,0.0016634507337585092,128340638,0.0016634507337585092
128.34563300,128345633,0.0005981539143249393,128345633,0.0005981539143249393
128.35063700,128350637,-0.0004671430215239525,128350637,-0.0004671430215239525
128.35563300,128355633,-0.0004671430215239525,128355633,-0.0004671430215239525
128.36063600,128360636,0.0005981539143249393,128360636,0.0005981539143249393
128.36563400,128365634,0.0005981539143249393,128365634,0.0005981539143249393
128.37063300,128370633,-0.0004671430215239525,128370633,-0.0004671430215239525
128.37563200,128375632,0.0005981539143249393,128375632,0.0005981539143249393
128.38063300,128380633,0.0016634507337585092,128380633,0.0016634507337585092
128.38565400,128385654,0.002728747669607401,128385654,0.002728747669607401
128.39065600,128390656,0.002728747669607401,128390656,0.002728747669607401
128.39569100,128395691,0.002728747669607401,128395691,0.002728747669607401
128.40069400,128400694,0.002728747669607401,128400694,0.002728747669607401
128.40572900,128405729,0.0016634507337585092,128405729,0.0016634507337585092
128.41073600,128410736,0.002728747669607401,128410736,0.002728747669607401
128.41613400,128416134,0.002728747669607401,128416134,0.002728747669607401
128.42113600,128421136,0.0037940447218716145,128421136,0.0037940447218716145
128.42613300,128426133,0.0037940447218716145,128426133,0.0037940447218716145
128.43113600,128431136,0.002728747669607401,128431136,0.002728747669607401
128.43613400,128436134,0.0016634507337585092,128436134,0.0016634507337585092
128.44113200,128441132,0.0016634507337585092,128441132,0.0016634507337585092
128.44613400,128446134,0.0016634507337585092,128446134,0.0016634507337585092
128.45113400,128451134,0.0016634507337585092,128451134,0.0016634507337585092
128.45613300,128456133,0.0005981539143249393,128456133,0.0005981539143249393
128.46113300,128461133,0.0005981539143249393,128461133,0.0005981539143249393
128.46613300,128466133,0.0016634507337585092,128466133,0.0016634507337585092
128.47113200,128471132,0.0016634507337585092,128471132,0.0016634507337585092
128.47613400,128476134,0.002728747669607401,128476134,0.002728747669607401
128.48113300,128481133,0.002728747669607401,128481133,0.002728747669607401
128.48613300,128486133,0.0037940447218716145,128486133,0.0037940447218716145
128.49113400,128491134,0.0037940447218716145,128491134,0.0037940447218716145
128.49615800,128496158,0.0037940447218716145,128496158,0.0037940447218716145
128.50115900,128501159,0.002728747669607401,128501159,0.002728747669607401
128.50618300,128506183,0.002728747669607401,128506183,0.002728747669607401
128.51118100,128511181,0.0016634507337585092,128511181,0.0016634507337585092
128.51620700,128516207,0.0016634507337585092,128516207,0.0016634507337585092
128.52120600,128521206,0.0016634507337585092,128521206,0.0016634507337585092
128.52623000,128526230,0.0016634507337585092,128526230,0.0016634507337585092
128.53123700,128531237,0.002728747669607401,128531237,0.002728747669607401
128.53625200,128536252,0.002728747669607401,128536252,0.002728747669607401
128.54125700,128541257,0.002728747669607401,128541257,0.002728747669607401
128.54613800,128546138,0.0016634507337585092,128546138,0.0016634507337585092
128.55113300,128551133,0.0016634507337585092,128551133,0.0016634507337585092
128.55614000,128556140,0.0016634507337585092,128556140,0.0016634507337585092
128.56113200,128561132,0.002728747669607401,128561132,0.002728747669607401
128.56614500,128566145,0.002728747669607401,128566145,0.002728747669607401
128.57113500,128571135,0.0016634507337585092,128571135,0.0016634507337585092
128.57614000,128576140,0.0005981539143249393,128576140,0.0005981539143249393
128.58113900,128581139,0.0005981539143249393,128581139,0.0005981539143249393
128.58613800,128586138,0.0005981539143249393,128586138,0.0005981539143249393
128.59113300,128591133,0.0016634507337585092,128591133,0.0016634507337585092
128.59613600,128596136,0.0005981539143249393,128596136,0.0005981539143249393
128.60114200,128601142,0.0005981539143249393,128601142,0.0005981539143249393
128.60613600,128606136,0.0005981539143249393,128606136,0.0005981539143249393
128.61119200,128611192,0.0005981539143249393,128611192,0.0005981539143249393
128.61613700,128616137,0.0016634507337585092,128616137,0.0016634507337585092
128.62113300,128621133,0.002728747669607401,128621133,0.002728747669607401
128.62613300,128626133,0.0037940447218716145,128626133,0.0037940447218716145
128.63113500,128631135,0.0037940447218716145,128631135,0.0037940447218716145
128.63663500,128636635,0.004859341308474541,128636635,0.004859341308474541
128.64163200,128641632,0.004859341308474541,128641632,0.004859341308474541
128.64664100,128646641,0.0037940447218716145,128646641,0.0037940447218716145
128.65164600,128651646,0.002728747669607401,128651646,0.002728747669607401
128.65666600,128656666,0.0016634507337585092,128656666,0.0016634507337585092
128.66166400,128661664,0.0005981539143249393,128661664,0.0005981539143249393
128.66668800,128666688,0.0016634507337585092,128666688,0.0016634507337585092
128.67169100,128671691,0.002728747669607401,128671691,0.002728747669607401
128.67671100,128676711,0.0037940447218716145,128676711,0.0037940447218716145
128.68171400,128681714,0.0037940447218716145,128681714,0.0037940447218716145
128.68625400,128686254,0.0037940447218716145,128686254,0.0037940447218716145
128.69175200,128691752,0.0037940447218716145,128691752,0.0037940447218716145
128.69663900,128696639,0.0037940447218716145,128696639,0.0037940447218716145
128.70163300,128701633,0.0037940447218716145,128701633,0.0037940447218716145
128.70663500,128706635,0.0037940447218716145,128706635,0.0037940447218716145
128.71163200,128711632,0.0037940447218716145,128711632,0.0037940447218716145
128.71664200,128716642,0.002728747669607401,128716642,0.002728747669607401
128.72164100,128721641,0.0016634507337585092,128721641,0.0016634507337585092
128.72663200,128726632,0.0005981539143249393,128726632,0.0005981539143249393
128.73164200,128731642,-0.0004671430215239525,128731642,-0.0004671430215239525
128.73663600,128736636,0.0005981539143249393,128736636,0.0005981539143249393
128.74163300,128741633,0.0016634507337585092,128741633,0.0016634507337585092
128.74663200,128746632,0.0037940447218716145,128746632,0.0037940447218716145
128.75163200,128751632,0.002728747669607401,128751632,0.002728747669607401
128.75663600,128756636,0.0016634507337585092,128756636,0.0016634507337585092
128.76164100,128761641,0.0005981539143249393,128761641,0.0005981539143249393
128.76663400,128766634,0.0005981539143249393,128766634,0.0005981539143249393
128.77164100,128771641,0.0016634507337585092,128771641,0.0016634507337585092
128.77664400,128776644,0.002728747669607401,128776644,0.002728747669607401
128.78163700,128781637,0.002728747669607401,128781637,0.002728747669607401
128.78663600,128786636,0.0016634507337585092,128786636,0.0016634507337585092
128.79163500,128791635,0.0016634507337585092,128791635,0.0016634507337585092
128.79664300,128796643,0.0016634507337585092,128796643,0.0016634507337585092
128.80164500,128801645,0.0016634507337585092,128801645,0.0016634507337585092
128.80666700,128806667,0.0005981539143249393,128806667,0.0005981539143249393
128.81165900,128811659,0.0016634507337585092,128811659,0.0016634507337585092
128.81669200,128816692,0.0016634507337585092,128816692,0.0016634507337585092
128.82168200,128821682,0.0016634507337585092,128821682,0.0016634507337585092
128.82671700,128826717,0.0016634507337585092,128826717,0.0016634507337585092
128.83170900,128831709,0.002728747669607401,128831709,0.002728747669607401
128.83674200,128836742,0.002728747669607401,128836742,0.002728747669607401
128.84173100,128841731,0.0037940447218716145,128841731,0.0037940447218716145
128.84676500,128846765,0.002728747669607401,128846765,0.002728747669607401
128.85175600,128851756,0.0016634507337585092,128851756,0.0016634507337585092
128.85663900,128856639,0.0005981539143249393,128856639,0.0005981539143249393
128.86213100,128862131,0.0016634507337585092,128862131,0.0016634507337585092
128.86713700,128867137,0.002728747669607401,128867137,0.002728747669607401
128.87213200,128872132,0.0016634507337585092,128872132,0.0016634507337585092
128.87834500,128878345,-0.0004671430215239525,128878345,-0.0004671430215239525
128.88213700,128882137,-0.0015324399573728442,128882137,-0.0015324399573728442
128.88714700,128887147,-0.0015324399573728442,128887147,-0.0015324399573728442
128.89213600,128892136,-0.0004671430215239525,128892136,-0.0004671430215239525
128.89713800,128897138,0.0005981539143249393,128897138,0.0005981539143249393
128.90213400,128902134,0.0016634507337585092,128902134,0.0016634507337585092
128.90716400,128907164,0.0016634507337585092,128907164,0.0016634507337585092
128.91213600,128912136,0.002728747669607401,128912136,0.002728747669607401
128.91714800,128917148,0.0037940447218716145,128917148,0.0037940447218716145
128.92213200,128922132,0.002728747669607401,128922132,0.002728747669607401
128.92720300,128927203,0.0016634507337585092,128927203,0.0016634507337585092
128.93213500,128932135,0.0005981539143249393,128932135,0.0005981539143249393
128.93725500,128937255,0.0005981539143249393,128937255,0.0005981539143249393
128.94214900,128942149,0.0005981539143249393,128942149,0.0005981539143249393
128.94715200,128947152,0.0016634507337585092,128947152,0.0016634507337585092
128.95219300,128952193,0.0016634507337585092,128952193,0.0016634507337585092
128.95718600,128957186,0.0016634507337585092,128957186,0.0016634507337585092
128.96222000,128962220,0.0016634507337585092,128962220,0.0016634507337585092
128.96722300,128967223,0.0016634507337585092,128967223,0.0016634507337585092
128.97224400,128972244,0.002728747669607401,128972244,0.002728747669607401
128.97724900,128977249,0.002728747669607401,128977249,0.002728747669607401
128.98213400,128982134,0.002728747669607401,128982134,0.002728747669607401
128.98713400,128987134,0.0016634507337585092,128987134,0.0016634507337585092
128.99213300,128992133,0.0005981539143249393,128992133,0.0005981539143249393
128.99713600,128997136,0.0005981539143249393,128997136,0.0005981539143249393
129.00213300,129002133,0.0005981539143249393,129002133,0.0005981539143249393
129.00713300,129007133,0.0016634507337585092,129007133,0.0016634507337585092
129.01213300,129012133,0.002728747669607401,129012133,0.002728747669607401
129.01714000,129017140,0.0016634507337585092,129017140,0.0016634507337585092
129.02213400,129022134,0.0005981539143249393,129022134,0.0005981539143249393
129.02713300,129027133,-0.0004671430215239525,129027133,-0.0004671430215239525
129.03213300,129032133,0.0005981539143249393,129032133,0.0005981539143249393
129.03713500,129037135,0.0005981539143249393,129037135,0.0005981539143249393
129.04213300,129042133,0.0005981539143249393,129042133,0.0005981539143249393
129.04713600,129047136,0.0005981539143249393,129047136,0.0005981539143249393
129.05213700,129052137,0.0016634507337585092,129052137,0.0016634507337585092
129.05714400,129057144,0.0016634507337585092,129057144,0.0016634507337585092
129.06215900,129062159,0.002728747669607401,129062159,0.002728747669607401
129.06716400,129067164,0.0037940447218716145,129067164,0.0037940447218716145
129.07218600,129072186,0.0037940447218716145,129072186,0.0037940447218716145
129.07718500,129077185,0.0037940447218716145,129077185,0.0037940447218716145
129.08221500,129082215,0.0037940447218716145,129082215,0.0037940447218716145
129.08722400,129087224,0.0037940447218716145,129087224,0.0037940447218716145
129.09223900,129092239,0.0037940447218716145,129092239,0.0037940447218716145
129.09724500,129097245,0.0037940447218716145,129097245,0.0037940447218716145
129.10263300,129102633,0.002728747669607401,129102633,0.002728747669607401
129.10763400,129107634,0.0016634507337585092,129107634,0.0016634507337585092
129.11263300,129112633,0.0005981539143249393,129112633,0.0005981539143249393
129.11763300,129117633,0.0005981539143249393,129117633,0.0005981539143249393
129.12263600,129122636,0.0005981539143249393,129122636,0.0005981539143249393
129.12763900,129127639,0.0005981539143249393,129127639,0.0005981539143249393
129.13263800,129132638,0.0005981539143249393,129132638,0.0005981539143249393
129.13763300,129137633,0.0005981539143249393,129137633,0.0005981539143249393
129.14263600,129142636,-0.0004671430215239525,129142636,-0.0004671430215239525
129.14764100,129147641,-0.0004671430215239525,129147641,-0.0004671430215239525
129.15263300,129152633,0.0005981539143249393,129152633,0.0005981539143249393
129.15763600,129157636,0.0016634507337585092,129157636,0.0016634507337585092
129.16263600,129162636,0.0037940447218716145,129162636,0.0037940447218716145
129.16763200,129167632,0.0037940447218716145,129167632,0.0037940447218716145
129.17263500,129172635,0.0016634507337585092,129172635,0.0016634507337585092
129.17763900,129177639,0.0005981539143249393,129177639,0.0005981539143249393
129.18264100,129182641,-0.0004671430215239525,129182641,-0.0004671430215239525
129.18763500,129187635,-0.0004671430215239525,129187635,-0.0004671430215239525
129.19264300,129192643,-0.0004671430215239525,129192643,-0.0004671430215239525
129.19763600,129197636,0.0005981539143249393,129197636,0.0005981539143249393
129.20265200,129202652,0.0016634507337585092,129202652,0.0016634507337585092
129.20765300,129207653,0.0016634507337585092,129207653,0.0016634507337585092
129.21267300,129212673,0.0016634507337585092,129212673,0.0016634507337585092
129.21767400,129217674,0.0005981539143249393,129217674,0.0005981539143249393
129.22270100,129222701,0.0005981539143249393,129222701,0.0005981539143249393
129.22770000,129227700,0.0005981539143249393,129227700,0.0005981539143249393
129.23272500,129232725,0.0005981539143249393,129232725,0.0005981539143249393
129.23772800,129237728,0.0005981539143249393,129237728,0.0005981539143249393
129.24275100,129242751,0.0005981539143249393,129242751,0.0005981539143249393
129.24775300,129247753,0.0005981539143249393,129247753,0.0005981539143249393
129.25263400,129252634,0.0016634507337585092,129252634,0.0016634507337585092
129.25763400,129257634,0.0016634507337585092,129257634,0.0016634507337585092
129.26263400,129262634,0.0016634507337585092,129262634,0.0016634507337585092
129.26764000,129267640,0.002728747669607401,129267640,0.002728747669607401
129.27263500,129272635,0.0037940447218716145,129272635,0.0037940447218716145
129.27763500,129277635,0.002728747669607401,129277635,0.002728747669607401
129.28263300,129282633,0.002728747669607401,129282633,0.002728747669607401
129.28763200,129287632,0.0016634507337585092,129287632,0.0016634507337585092
129.29263500,129292635,0.0016634507337585092,129292635,0.0016634507337585092
129.29763200,129297632,0.0016634507337585092,129297632,0.0016634507337585092
129.30263400,129302634,0.0016634507337585092,129302634,0.0016634507337585092
129.30763300,129307633,0.0016634507337585092,129307633,0.0016634507337585092
129.31263200,129312632,0.002728747669607401,129312632,0.002728747669607401
129.31813800,129318138,0.002728747669607401,129318138,0.002728747669607401
129.32313500,129323135,0.0005981539143249393,129323135,0.0005981539143249393
129.32813900,129328139,-0.0004671430215239525,129328139,-0.0004671430215239525
129.33313300,129333133,-0.0004671430215239525,129333133,-0.0004671430215239525
129.33813600,129338136,0.0005981539143249393,129338136,0.0005981539143249393
129.34316400,129343164,0.0016634507337585092,129343164,0.0016634507337585092
129.34815400,129348154,0.002728747669607401,129348154,0.002728747669607401
129.35318100,129353181,0.002728747669607401,129353181,0.002728747669607401
129.35817700,129358177,0.002728747669607401,129358177,0.002728747669607401
129.36321400,129363214,0.0016634507337585092,129363214,0.0016634507337585092
129.36820700,129368207,0.0016634507337585092,129368207,0.0016634507337585092
129.37323300,129373233,0.0016634507337585092,129373233,0.0016634507337585092
129.37822900,129378229,0.002728747669607401,129378229,0.002728747669607401
129.38326100,129383261,0.002728747669607401,129383261,0.002728747669607401
129.38825500,129388255,0.002728747669607401,129388255,0.002728747669607401
129.39313800,129393138,0.0016634507337585092,129393138,0.0016634507337585092
129.39813300,129398133,0.0005981539143249393,129398133,0.0005981539143249393
129.40314300,129403143,0.0016634507337585092,129403143,0.0016634507337585092
129.40814000,129408140,0.0016634507337585092,129408140,0.0016634507337585092
129.41315800,129413158,0.0016634507337585092,129413158,0.0016634507337585092
129.41813400,129418134,0.0005981539143249393,129418134,0.0005981539143249393
129.42313700,129423137,0.0005981539143249393,129423137,0.0005981539143249393
129.42813400,129428134,0.0016634507337585092,129428134,0.0016634507337585092
129.43314400,129433144,0.0016634507337585092,129433144,0.0016634507337585092
129.43813300,129438133,0.0016634507337585092,129438133,0.0016634507337585092
129.44313900,129443139,0.0005981539143249393,129443139,0.0005981539143249393
129.44813500,129448135,0.0005981539143249393,129448135,0.0005981539143249393
129.45314700,129453147,0.0016634507337585092,129453147,0.0016634507337585092
129.45813300,129458133,0.002728747669607401,129458133,0.002728747669607401
129.46313900,129463139,0.002728747669607401,129463139,0.002728747669607401
129.46813400,129468134,0.0016634507337585092,129468134,0.0016634507337585092
129.47313600,129473136,0.0005981539143249393,129473136,0.0005981539143249393
129.47813400,129478134,-0.0004671430215239525,129478134,-0.0004671430215239525
129.48813100,129488131,4.3629889488220215,129488131,4.3629889488220215
129.49813800,129498138,8.726445198059082,129498138,8.726445198059082
129.50816000,129508160,11.453605651855469,129508160,11.453605651855469
129.51818100,129518181,8.18207836151123,129518181,8.18207836151123
129.52820000,129528200,3.886801242828369,129528200,3.886801242828369
129.53823000,129538230,0.8198115229606628,129538230,0.8198115229606628
129.54825400,129548254,-0.6375147104263306,129548254,-0.6375147104263306
129.55863600,129558636,-0.9443202018737793,129558636,-0.9443202018737793
129.56863400,129568634,-0.7035630941390991,129568634,-0.7035630941390991
129.57863200,129578632,-0.3498845398426056,129578632,-0.3498845398426056
129.58863200,129588632,-0.08569090068340302,129588632,-0.08569090068340302
129.59864100,129598641,0.04640592262148857,129598641,0.04640592262148857
129.60863400,129608634,0.07943012565374374,129608634,0.07943012565374374
129.61863400,129618634,0.06345067173242569,129618634,0.06345067173242569
129.62863300,129628633,0.03468765690922737,129628633,0.03468765690922737
129.63863300,129638633,0.011251122690737247,129638633,0.011251122690737247
129.64863500,129648635,-0.0004671430215239525,129648635,-0.0004671430215239525
129.65864700,129658647,-0.003663033712655306,129658647,-0.003663033712655306
129.66867900,129668679,-0.002597736893221736,129668679,-0.002597736893221736
129.67869500,129678695,0.0005981539143249393,129678695,0.0005981539143249393
129.68871900,129688719,0.0016634507337585092,129688719,0.0016634507337585092
129.69875400,129698754,0.002728747669607401,129698754,0.002728747669607401
129.70863300,129708633,0.0016634507337585092,129708633,0.0016634507337585092
129.71863800,129718638,0.0016634507337585092,129718638,0.0016634507337585092
129.72863600,129728636,0.0005981539143249393,129728636,0.0005981539143249393
129.73863500,129738635,0.0005981539143249393,129738635,0.0005981539143249393
129.74863300,129748633,0.0016634507337585092,129748633,0.0016634507337585092
129.75863400,129758634,0.0016634507337585092,129758634,0.0016634507337585092
129.76913300,129769133,0.002728747669607401,129769133,0.002728747669607401
129.77913500,129779135,0.002728747669607401,129779135,0.002728747669607401
129.78913500,129789135,0.002728747669607401,129789135,0.002728747669607401
129.79913200,129799132,0.0016634507337585092,129799132,0.0016634507337585092
129.80914400,129809144,0.0005981539143249393,129809144,0.0005981539143249393
129.81917000,129819170,0.0005981539143249393,129819170,0.0005981539143249393
129.82919700,129829197,0.0016634507337585092,129829197,0.0016634507337585092
129.83921600,129839216,0.0016634507337585092,129839216,0.0016634507337585092
129.84923900,129849239,0.002728747669607401,129849239,0.002728747669607401
129.85913400,129859134,0.0016634507337585092,129859134,0.0016634507337585092
129.86913300,129869133,0.0016634507337585092,129869133,0.0016634507337585092
129.87913500,129879135,0.0016634507337585092,129879135,0.0016634507337585092
129.88914200,129889142,0.0016634507337585092,129889142,0.0016634507337585092
129.89913400,129899134,0.0016634507337585092,129899134,0.0016634507337585092
129.90913800,129909138,0.002728747669607401,129909138,0.002728747669607401
129.91913900,129919139,0.002728747669607401,129919139,0.002728747669607401
129.92913700,129929137,0.0037940447218716145,129929137,0.0037940447218716145
129.93913500,129939135,0.002728747669607401,129939135,0.002728747669607401
129.94913700,129949137,0.002728747669607401,129949137,0.002728747669607401
129.95915300,129959153,0.0037940447218716145,129959153,0.0037940447218716145
129.96921700,129969217,0.0037940447218716145,129969217,0.0037940447218716145
129.97925500,129979255,0.0037940447218716145,129979255,0.0037940447218716145
129.98930000,129989300,0.0037940447218716145,129989300,0.0037940447218716145
129.99931700,129999317,0.002728747669607401,129999317,0.002728747669607401
130.00935000,130009350,0.002728747669607401,130009350,0.002728747669607401
130.01963900,130019639,0.002728747669607401,130019639,0.002728747669607401
130.02964400,130029644,0.002728747669607401,130029644,0.002728747669607401
130.03963400,130039634,0.0016634507337585092,130039634,0.0016634507337585092
130.04964400,130049644,0.0016634507337585092,130049644,0.0016634507337585092
130.05963600,130059636,0.0016634507337585092,130059636,0.0016634507337585092
130.06963700,130069637,0.0016634507337585092,130069637,0.0016634507337585092
130.07963400,130079634,0.0016634507337585092,130079634,0.0016634507337585092
130.08963500,130089635,0.0005981539143249393,130089635,0.0005981539143249393
130.09963600,130099636,0.0005981539143249393,130099636,0.0005981539143249393
130.10963200,130109632,0.0016634507337585092,130109632,0.0016634507337585092
130.11964700,130119647,0.002728747669607401,130119647,0.002728747669607401
130.12966300,130129663,0.002728747669607401,130129663,0.002728747669607401
130.13969300,130139693,0.0016634507337585092,130139693,0.0016634507337585092
130.14972500,130149725,0.0005981539143249393,130149725,0.0005981539143249393
130.15974100,130159741,0.0005981539143249393,130159741,0.0005981539143249393
130.16963700,130169637,0.0005981539143249393,130169637,0.0005981539143249393
130.17963300,130179633,0.0005981539143249393,130179633,0.0005981539143249393
130.18963300,130189633,0.0005981539143249393,130189633,0.0005981539143249393
130.19963300,130199633,0.0005981539143249393,130199633,0.0005981539143249393
130.20963200,130209632,0.0016634507337585092,130209632,0.0016634507337585092
130.22013400,130220134,0.0016634507337585092,130220134,0.0016634507337585092
130.23013500,130230135,0.0016634507337585092,130230135,0.0016634507337585092
130.24014400,130240144,0.0005981539143249393,130240144,0.0005981539143249393
130.25013400,130250134,0.0005981539143249393,130250134,0.0005981539143249393
130.26013500,130260135,0.0005981539143249393,130260135,0.0005981539143249393
130.27013500,130270135,0.0005981539143249393,130270135,0.0005981539143249393
130.28016600,130280166,0.0016634507337585092,130280166,0.0016634507337585092
130.29020000,130290200,0.002728747669607401,130290200,0.002728747669607401
130.30021600,130300216,0.002728747669607401,130300216,0.002728747669607401
130.31024800,130310248,0.002728747669607401,130310248,0.002728747669607401
130.32013400,130320134,0.0016634507337585092,130320134,0.0016634507337585092
130.33013300,130330133,0.0016634507337585092,130330133,0.0016634507337585092
130.34013300,130340133,0.0016634507337585092,130340133,0.0016634507337585092
130.35013600,130350136,0.002728747669607401,130350136,0.002728747669607401
130.36013300,130360133,0.002728747669607401,130360133,0.002728747669607401
130.37013300,130370133,0.0016634507337585092,130370133,0.0016634507337585092
130.38013400,130380134,0.0016634507337585092,130380134,0.0016634507337585092
130.39013500,130390135,0.0005981539143249393,130390135,0.0005981539143249393
130.40013200,130400132,0.0005981539143249393,130400132,0.0005981539143249393
130.41013300,130410133,0.0016634507337585092,130410133,0.0016634507337585092
130.42013400,130420134,0.0016634507337585092,130420134,0.0016634507337585092
130.43015600,130430156,0.002728747669607401,130430156,0.002728747669607401
130.44017300,130440173,0.0016634507337585092,130440173,0.0016634507337585092
130.45019400,130450194,0.0016634507337585092,130450194,0.0016634507337585092
130.46022200,130460222,0.0016634507337585092,130460222,0.0016634507337585092
130.47024500,130470245,0.002728747669607401,130470245,0.002728747669607401
130.48063600,130480636,0.002728747669607401,130480636,0.002728747669607401
130.49064400,130490644,0.002728747669607401,130490644,0.002728747669607401
130.50063300,130500633,0.002728747669607401,130500633,0.002728747669607401
130.51063200,130510632,0.0016634507337585092,130510632,0.0016634507337585092
130.52063200,130520632,0.0016634507337585092,130520632,0.0016634507337585092
130.53063400,130530634,0.0016634507337585092,130530634,0.0016634507337585092
130.54063200,130540632,0.0016634507337585092,130540632,0.0016634507337585092
130.55063700,130550637,0.0016634507337585092,130550637,0.0016634507337585092
130.56063300,130560633,0.002728747669607401,130560633,0.002728747669607401
130.57063600,130570636,0.002728747669607401,130570636,0.002728747669607401
130.58064800,130580648,0.002728747669607401,130580648,0.002728747669607401
130.59067300,130590673,0.002728747669607401,130590673,0.002728747669607401
130.60070000,130600700,0.0016634507337585092,130600700,0.0016634507337585092
130.61072200,130610722,0.0016634507337585092,130610722,0.0016634507337585092
130.62080600,130620806,0.0016634507337585092,130620806,0.0016634507337585092
130.63063200,130630632,0.0005981539143249393,130630632,0.0005981539143249393
130.64063400,130640634,0.0016634507337585092,130640634,0.0016634507337585092
130.65063500,130650635,0.0016634507337585092,130650635,0.0016634507337585092
130.66063300,130660633,0.002728747669607401,130660633,0.002728747669607401
130.67064700,130670647,0.0037940447218716145,130670647,0.0037940447218716145
130.68113700,130681137,0.0037940447218716145,130681137,0.0037940447218716145
130.69113300,130691133,0.0037940447218716145,130691133,0.0037940447218716145
130.70113300,130701133,0.002728747669607401,130701133,0.002728747669607401
130.71113200,130711132,0.0016634507337585092,130711132,0.0016634507337585092
130.72113300,130721133,0.0005981539143249393,130721133,0.0005981539143249393
130.73114600,130731146,0.0005981539143249393,130731146,0.0005981539143249393
130.74116600,130741166,0.0016634507337585092,130741166,0.0016634507337585092
130.75118800,130751188,0.0016634507337585092,130751188,0.0016634507337585092
130.76121500,130761215,0.0016634507337585092,130761215,0.0016634507337585092
130.77124500,130771245,0.0016634507337585092,130771245,0.0016634507337585092
130.78113800,130781138,0.0016634507337585092,130781138,0.0016634507337585092
130.79113200,130791132,0.0005981539143249393,130791132,0.0005981539143249393
130.80114400,130801144,0.0005981539143249393,130801144,0.0005981539143249393
130.81113400,130811134,0.0005981539143249393,130811134,0.0005981539143249393
130.82113200,130821132,0.0016634507337585092,130821132,0.0016634507337585092
130.83113600,130831136,0.0016634507337585092,130831136,0.0016634507337585092
130.84113500,130841135,0.002728747669607401,130841135,0.002728747669607401
130.85114000,130851140,0.002728747669607401,130851140,0.002728747669607401
130.86113500,130861135,0.002728747669607401,130861135,0.002728747669607401
130.87113800,130871138,0.0016634507337585092,130871138,0.0016634507337585092
130.88114800,130881148,0.0005981539143249393,130881148,0.0005981539143249393
130.89116500,130891165,0.0005981539143249393,130891165,0.0005981539143249393
130.90119400,130901194,0.0005981539143249393,130901194,0.0005981539143249393
130.91121900,130911219,0.0005981539143249393,130911219,0.0005981539143249393
130.92125200,130921252,0.0016634507337585092,130921252,0.0016634507337585092
130.93163500,130931635,0.0016634507337585092,130931635,0.0016634507337585092
130.94163400,130941634,0.002728747669607401,130941634,0.002728747669607401
130.95163600,130951636,0.002728747669607401,130951636,0.002728747669607401
130.96164200,130961642,0.002728747669607401,130961642,0.002728747669607401
130.97163300,130971633,0.002728747669607401,130971633,0.002728747669607401
130.98163600,130981636,0.002728747669607401,130981636,0.002728747669607401
130.99163400,130991634,0.0016634507337585092,130991634,0.0016634507337585092
131.00163300,131001633,0.0016634507337585092,131001633,0.0016634507337585092
131.01163600,131011636,0.0016634507337585092,131011636,0.0016634507337585092
131.02163300,131021633,0.002728747669607401,131021633,0.002728747669607401
131.03166400,131031664,0.002728747669607401,131031664,0.002728747669607401
131.04168600,131041686,0.0037940447218716145,131041686,0.0037940447218716145
131.05172100,131051721,0.0037940447218716145,131051721,0.0037940447218716145
131.06174300,131061743,0.002728747669607401,131061743,0.002728747669607401
131.07163700,131071637,0.0016634507337585092,131071637,0.0016634507337585092
131.08163700,131081637,0.0016634507337585092,131081637,0.0016634507337585092
131.09165000,131091650,0.0016634507337585092,131091650,0.0016634507337585092
131.10163500,131101635,0.0016634507337585092,131101635,0.0016634507337585092
131.11163300,131111633,0.0016634507337585092,131111633,0.0016634507337585092
131.12213700,131122137,0.0005981539143249393,131122137,0.0005981539143249393
131.13213700,131132137,0.0005981539143249393,131132137,0.0005981539143249393
131.14215300,131142153,0.0005981539143249393,131142153,0.0005981539143249393
131.15220400,131152204,0.0016634507337585092,131152204,0.0016634507337585092
131.16221300,131162213,0.0016634507337585092,131162213,0.0016634507337585092
131.17216800,131172168,0.0016634507337585092,131172168,0.0016634507337585092
131.18220000,131182200,0.0005981539143249393,131182200,0.0005981539143249393
131.19223200,131192232,0.0005981539143249393,131192232,0.0005981539143249393
131.20214200,131202142,0.0005981539143249393,131202142,0.0005981539143249393
131.21214000,131212140,0.0016634507337585092,131212140,0.0016634507337585092
131.22213800,131222138,0.0016634507337585092,131222138,0.0016634507337585092
131.23213200,131232132,0.002728747669607401,131232132,0.002728747669607401
131.24213600,131242136,0.002728747669607401,131242136,0.002728747669607401
131.25213700,131252137,0.002728747669607401,131252137,0.002728747669607401
131.26213400,131262134,0.0016634507337585092,131262134,0.0016634507337585092
131.27213500,131272135,0.0005981539143249393,131272135,0.0005981539143249393
131.28213800,131282138,0.0005981539143249393,131282138,0.0005981539143249393
131.29213600,131292136,0.0005981539143249393,131292136,0.0005981539143249393
131.30213300,131302133,0.0005981539143249393,131302133,0.0005981539143249393
131.31214800,131312148,0.0005981539143249393,131312148,0.0005981539143249393
131.32218100,131322181,0.0005981539143249393,131322181,0.0005981539143249393
131.33220800,131332208,0.0005981539143249393,131332208,0.0005981539143249393
131.34224500,131342245,0.0005981539143249393,131342245,0.0005981539143249393
131.35263300,131352633,0.0005981539143249393,131352633,0.0005981539143249393
131.36263700,131362637,0.0005981539143249393,131362637,0.0005981539143249393
131.37263800,131372638,0.0005981539143249393,131372638,0.0005981539143249393
131.38263300,131382633,0.0005981539143249393,131382633,0.0005981539143249393
131.39263600,131392636,0.0005981539143249393,131392636,0.0005981539143249393
131.40264100,131402641,0.0005981539143249393,131402641,0.0005981539143249393
131.41263300,131412633,0.0016634507337585092,131412633,0.0016634507337585092
131.42263500,131422635,0.0016634507337585092,131422635,0.0016634507337585092
131.43263600,131432636,0.0016634507337585092,131432636,0.0016634507337585092
131.44263200,131442632,0.0016634507337585092,131442632,0.0016634507337585092
131.45264600,131452646,0.0016634507337585092,131452646,0.0016634507337585092
131.46266900,131462669,0.0005981539143249393,131462669,0.0005981539143249393
131.47271700,131472717,0.0005981539143249393,131472717,0.0005981539143249393
131.48273400,131482734,0.0005981539143249393,131482734,0.0005981539143249393
131.49274400,131492744,0.0005981539143249393,131492744,0.0005981539143249393
131.50263300,131502633,0.0005981539143249393,131502633,0.0005981539143249393
131.51263400,131512634,0.0005981539143249393,131512634,0.0005981539143249393
131.52263400,131522634,0.0016634507337585092,131522634,0.0016634507337585092
131.53263400,131532634,0.002728747669607401,131532634,0.002728747669607401
131.54263500,131542635,0.002728747669607401,131542635,0.002728747669607401
131.55264100,131552641,0.0016634507337585092,131552641,0.0016634507337585092
131.56263300,131562633,0.002728747669607401,131562633,0.002728747669607401
131.57263400,131572634,0.002728747669607401,131572634,0.002728747669607401
131.58313400,131583134,0.0037940447218716145,131583134,0.0037940447218716145
131.59313500,131593135,0.002728747669607401,131593135,0.002728747669607401
131.60314000,131603140,0.0016634507337585092,131603140,0.0016634507337585092
131.61317500,131613175,0.0005981539143249393,131613175,0.0005981539143249393
131.62318400,131623184,0.0005981539143249393,131623184,0.0005981539143249393
131.63321700,131633217,0.0016634507337585092,131633217,0.0016634507337585092
131.64323800,131643238,0.0016634507337585092,131643238,0.0016634507337585092
131.65313900,131653139,0.0016634507337585092,131653139,0.0016634507337585092
131.66313700,131663137,0.0016634507337585092,131663137,0.0016634507337585092
131.67313600,131673136,0.002728747669607401,131673136,0.002728747669607401
131.68313500,131683135,0.0016634507337585092,131683135,0.0016634507337585092
131.69313600,131693136,0.0016634507337585092,131693136,0.0016634507337585092
131.70313600,131703136,0.0016634507337585092,131703136,0.0016634507337585092
131.71313300,131713133,0.002728747669607401,131713133,0.002728747669607401
131.72313400,131723134,0.002728747669607401,131723134,0.002728747669607401
131.73313200,131733132,0.002728747669607401,131733132,0.002728747669607401
131.74313600,131743136,0.0016634507337585092,131743136,0.0016634507337585092
131.75314100,131753141,0.0016634507337585092,131753141,0.0016634507337585092
131.76313400,131763134,0.0016634507337585092,131763134,0.0016634507337585092
131.77316200,131773162,0.0016634507337585092,131773162,0.0016634507337585092
131.78318900,131783189,0.0005981539143249393,131783189,0.0005981539143249393
131.79321500,131793215,0.0016634507337585092,131793215,0.0016634507337585092
131.80323400,131803234,0.0016634507337585092,131803234,0.0016634507337585092
131.81363500,131813635,0.002728747669607401,131813635,0.002728747669607401
131.82363300,131823633,0.002728747669607401,131823633,0.002728747669607401
131.83363700,131833637,0.0016634507337585092,131833637,0.0016634507337585092
131.84363700,131843637,0.0005981539143249393,131843637,0.0005981539143249393
131.85363200,131853632,0.0005981539143249393,131853632,0.0005981539143249393
131.86364500,131863645,0.0005981539143249393,131863645,0.0005981539143249393
131.87363500,131873635,0.0016634507337585092,131873635,0.0016634507337585092
131.88363400,131883634,0.0016634507337585092,131883634,0.0016634507337585092
131.89363200,131893632,0.002728747669607401,131893632,0.002728747669607401
131.90364200,131903642,0.002728747669607401,131903642,0.002728747669607401
131.91364500,131913645,0.0016634507337585092,131913645,0.0016634507337585092
131.92368100,131923681,0.002728747669607401,131923681,0.002728747669607401
131.93369800,131933698,0.002728747669607401,131933698,0.002728747669607401
131.94372300,131943723,0.002728747669607401,131943723,0.002728747669607401
131.95374900,131953749,0.002728747669607401,131953749,0.002728747669607401
131.96369000,131963690,0.002728747669607401,131963690,0.002728747669607401
131.97364400,131973644,0.002728747669607401,131973644,0.002728747669607401
131.98363600,131983636,0.0016634507337585092,131983636,0.0016634507337585092
131.99363300,131993633,0.0005981539143249393,131993633,0.0005981539143249393
132.00363300,132003633,0.0005981539143249393,132003633,0.0005981539143249393
132.01363400,132013634,0.0005981539143249393,132013634,0.0005981539143249393
132.02363600,132023636,0.0016634507337585092,132023636,0.0016634507337585092
132.03413600,132034136,0.0016634507337585092,132034136,0.0016634507337585092
132.04413700,132044137,0.0016634507337585092,132044137,0.0016634507337585092
132.05413500,132054135,0.0016634507337585092,132054135,0.0016634507337585092
132.06416100,132064161,0.0005981539143249393,132064161,0.0005981539143249393
132.07418400,132074184,0.0005981539143249393,132074184,0.0005981539143249393
132.08421200,132084212,0.0005981539143249393,132084212,0.0005981539143249393
132.09423300,132094233,0.0016634507337585092,132094233,0.0016634507337585092
132.10425600,132104256,0.0016634507337585092,132104256,0.0016634507337585092
132.11413400,132114134,0.0016634507337585092,132114134,0.0016634507337585092
132.12413600,132124136,0.002728747669607401,132124136,0.002728747669607401
132.13413500,132134135,0.002728747669607401,132134135,0.002728747669607401
132.14413500,132144135,0.002728747669607401,132144135,0.002728747669607401
132.15413600,132154136,0.002728747669607401,132154136,0.002728747669607401
132.16413700,132164137,0.0016634507337585092,132164137,0.0016634507337585092
132.17413800,132174138,0.0016634507337585092,132174138,0.0016634507337585092
132.18414600,132184146,0.0016634507337585092,132184146,0.0016634507337585092
132.19419600,132194196,0.002728747669607401,132194196,0.002728747669607401
132.20417700,132204177,0.0037940447218716145,132204177,0.0037940447218716145
132.21421500,132214215,0.0037940447218716145,132214215,0.0037940447218716145
132.22421100,132224211,0.0037940447218716145,132224211,0.0037940447218716145
132.23429200,132234292,0.0037940447218716145,132234292,0.0037940447218716145
132.24420100,132244201,0.0037940447218716145,132244201,0.0037940447218716145
132.25419600,132254196,0.0037940447218716145,132254196,0.0037940447218716145
132.26423200,132264232,0.002728747669607401,132264232,0.002728747669607401
132.27422800,132274228,0.0016634507337585092,132274228,0.0016634507337585092
132.28464100,132284641,0.0016634507337585092,132284641,0.0016634507337585092
132.29478000,132294780,0.0016634507337585092,132294780,0.0016634507337585092
132.30463400,132304634,0.0016634507337585092,132304634,0.0016634507337585092
132.31463600,132314636,0.002728747669607401,132314636,0.002728747669607401
132.32463300,132324633,0.002728747669607401,132324633,0.002728747669607401
132.33463400,132334634,0.0016634507337585092,132334634,0.0016634507337585092
132.34463400,132344634,0.0016634507337585092,132344634,0.0016634507337585092
132.35463600,132354636,0.0005981539143249393,132354636,0.0005981539143249393
132.36463200,132364632,0.0005981539143249393,132364632,0.0005981539143249393
132.37463300,132374633,0.0016634507337585092,132374633,0.0016634507337585092
132.38463300,132384633,0.002728747669607401,132384633,0.002728747669607401
132.39463600,132394636,0.0037940447218716145,132394636,0.0037940447218716145
132.40463500,132404635,0.0037940447218716145,132404635,0.0037940447218716145
132.41463800,132414638,0.0037940447218716145,132414638,0.0037940447218716145
132.42463200,132424632,0.0037940447218716145,132424632,0.0037940447218716145
132.43463700,132434637,0.0037940447218716145,132434637,0.0037940447218716145
132.44463700,132444637,0.002728747669607401,132444637,0.002728747669607401
132.45463600,132454636,0.0016634507337585092,132454636,0.0016634507337585092
132.46463600,132464636,0.0005981539143249393,132464636,0.0005981539143249393
132.47463200,132474632,-0.0004671430215239525,132474632,-0.0004671430215239525
132.48513700,132485137,0.0005981539143249393,132485137,0.0005981539143249393
132.49513500,132495135,0.0005981539143249393,132495135,0.0005981539143249393
132.50515400,132505154,0.0005981539143249393,132505154,0.0005981539143249393
132.51516000,132515160,0.0005981539143249393,132515160,0.0005981539143249393
132.52517300,132525173,0.0005981539143249393,132525173,0.0005981539143249393
132.53517600,132535176,0.0005981539143249393,132535176,0.0005981539143249393
132.54520200,132545202,0.0005981539143249393,132545202,0.0005981539143249393
132.55520300,132555203,0.0016634507337585092,132555203,0.0016634507337585092
132.56522300,132565223,0.0016634507337585092,132565223,0.0016634507337585092
132.57522300,132575223,0.0005981539143249393,132575223,0.0005981539143249393
132.58525300,132585253,0.0005981539143249393,132585253,0.0005981539143249393
132.59527900,132595279,0.0016634507337585092,132595279,0.0016634507337585092
132.60513400,132605134,0.0016634507337585092,132605134,0.0016634507337585092
132.61514000,132615140,0.002728747669607401,132615140,0.002728747669607401
132.62513400,132625134,0.002728747669607401,132625134,0.002728747669607401
132.63513400,132635134,0.002728747669607401,132635134,0.002728747669607401
132.64513500,132645135,0.002728747669607401,132645135,0.002728747669607401
132.65513400,132655134,0.0016634507337585092,132655134,0.0016634507337585092
132.66513200,132665132,0.0016634507337585092,132665132,0.0016634507337585092
132.67513400,132675134,0.0005981539143249393,132675134,0.0005981539143249393
132.68513400,132685134,0.0005981539143249393,132685134,0.0005981539143249393
132.69513400,132695134,0.0005981539143249393,132695134,0.0005981539143249393
132.70564000,132705640,0.0005981539143249393,132705640,0.0005981539143249393
132.71563200,132715632,0.0005981539143249393,132715632,0.0005981539143249393
132.72563900,132725639,0.0016634507337585092,132725639,0.0016634507337585092
132.73563500,132735635,0.002728747669607401,132735635,0.002728747669607401
132.74563300,132745633,0.0037940447218716145,132745633,0.0037940447218716145
132.75563300,132755633,0.0037940447218716145,132755633,0.0037940447218716145
132.76563400,132765634,0.002728747669607401,132765634,0.002728747669607401
132.77563300,132775633,0.002728747669607401,132775633,0.002728747669607401
132.78563500,132785635,0.0016634507337585092,132785635,0.0016634507337585092
132.79563700,132795637,0.0005981539143249393,132795637,0.0005981539143249393
132.80564100,132805641,0.0005981539143249393,132805641,0.0005981539143249393
132.81564000,132815640,0.0005981539143249393,132815640,0.0005981539143249393
132.82566900,132825669,0.0016634507337585092,132825669,0.0016634507337585092
132.83566500,132835665,0.0016634507337585092,132835665,0.0016634507337585092
132.84568900,132845689,0.002728747669607401,132845689,0.002728747669607401
132.85570100,132855701,0.0016634507337585092,132855701,0.0016634507337585092
132.86571200,132865712,0.0005981539143249393,132865712,0.0005981539143249393
132.87571900,132875719,0.0005981539143249393,132875719,0.0005981539143249393
132.88574700,132885747,0.0005981539143249393,132885747,0.0005981539143249393
132.89574700,132895747,0.0016634507337585092,132895747,0.0016634507337585092
132.90563500,132905635,0.002728747669607401,132905635,0.002728747669607401
132.91563600,132915636,0.002728747669607401,132915636,0.002728747669607401
132.92563600,132925636,0.002728747669607401,132925636,0.002728747669607401
132.93613200,132936132,0.002728747669607401,132936132,0.002728747669607401
132.94613400,132946134,0.002728747669607401,132946134,0.002728747669607401
132.95613300,132956133,0.0016634507337585092,132956133,0.0016634507337585092
132.96613700,132966137,0.002728747669607401,132966137,0.002728747669607401
132.97613500,132976135,0.002728747669607401,132976135,0.002728747669607401
132.98613200,132986132,0.002728747669607401,132986132,0.002728747669607401
132.99613600,132996136,0.0016634507337585092,132996136,0.0016634507337585092
133.00613400,133006134,0.0005981539143249393,133006134,0.0005981539143249393
133.01613200,133016132,0.0005981539143249393,133016132,0.0005981539143249393
133.02613600,133026136,0.0005981539143249393,133026136,0.0005981539143249393
133.03613300,133036133,0.0005981539143249393,133036133,0.0005981539143249393
133.04614100,133046141,0.0005981539143249393,133046141,0.0005981539143249393
133.05613900,133056139,0.0005981539143249393,133056139,0.0005981539143249393
133.06613400,133066134,0.0005981539143249393,133066134,0.0005981539143249393
133.07613300,133076133,0.0016634507337585092,133076133,0.0016634507337585092
133.08613400,133086134,0.002728747669607401,133086134,0.002728747669607401
133.09613600,133096136,0.0037940447218716145,133096136,0.0037940447218716145
133.10614700,133106147,0.0037940447218716145,133106147,0.0037940447218716145
133.11614700,133116147,0.002728747669607401,133116147,0.002728747669607401
133.12617600,133126176,0.002728747669607401,133126176,0.002728747669607401
133.13616700,133136167,0.0016634507337585092,133136167,0.0016634507337585092
133.14619500,133146195,0.0016634507337585092,133146195,0.0016634507337585092
133.15619600,133156196,0.0016634507337585092,133156196,0.0016634507337585092
133.16621500,133166215,0.002728747669607401,133166215,0.002728747669607401
133.17621600,133176216,0.002728747669607401,133176216,0.002728747669607401
133.18624500,133186245,0.0016634507337585092,133186245,0.0016634507337585092
133.19625300,133196253,0.0016634507337585092,133196253,0.0016634507337585092
133.20663600,133206636,0.0016634507337585092,133206636,0.0016634507337585092
133.21663400,133216634,0.0016634507337585092,133216634,0.0016634507337585092
133.22663300,133226633,0.0005981539143249393,133226633,0.0005981539143249393
133.23663800,133236638,0.0005981539143249393,133236638,0.0005981539143249393
133.24663600,133246636,0.0005981539143249393,133246636,0.0005981539143249393
133.25663300,133256633,0.0016634507337585092,133256633,0.0016634507337585092
133.26664000,133266640,0.002728747669607401,133266640,0.002728747669607401
133.27663600,133276636,0.002728747669607401,133276636,0.002728747669607401
133.28664100,133286641,0.002728747669607401,133286641,0.002728747669607401
133.29663600,133296636,0.002728747669607401,133296636,0.002728747669607401
133.30663700,133306637,0.002728747669607401,133306637,0.002728747669607401
133.31663200,133316632,0.002728747669607401,133316632,0.002728747669607401
133.32663700,133326637,0.002728747669607401,133326637,0.002728747669607401
133.33663400,133336634,0.0016634507337585092,133336634,0.0016634507337585092
133.34663400,133346634,0.0016634507337585092,133346634,0.0016634507337585092
133.35663300,133356633,0.0005981539143249393,133356633,0.0005981539143249393
133.36663300,133366633,0.0005981539143249393,133366633,0.0005981539143249393
133.37663200,133376632,0.0005981539143249393,133376632,0.0005981539143249393
133.38720200,133387202,0.0016634507337585092,133387202,0.0016634507337585092
133.39713600,133397136,0.002728747669607401,133397136,0.002728747669607401
133.40713300,133407133,0.0037940447218716145,133407133,0.0037940447218716145
133.41716500,133417165,0.0037940447218716145,133417165,0.0037940447218716145
133.42717300,133427173,0.0037940447218716145,133427173,0.0037940447218716145
133.43719500,133437195,0.0037940447218716145,133437195,0.0037940447218716145
133.44719700,133447197,0.0037940447218716145,133447197,0.0037940447218716145
133.45722000,133457220,0.002728747669607401,133457220,0.002728747669607401
133.46723600,133467236,0.0016634507337585092,133467236,0.0016634507337585092
133.47725300,133477253,0.0016634507337585092,133477253,0.0016634507337585092
133.48726300,133487263,0.0016634507337585092,133487263,0.0016634507337585092
133.49713200,133497132,0.0005981539143249393,133497132,0.0005981539143249393
133.50713300,133507133,0.0016634507337585092,133507133,0.0016634507337585092
133.51713500,133517135,0.0016634507337585092,133517135,0.0016634507337585092
133.52713200,133527132,0.0016634507337585092,133527132,0.0016634507337585092
133.53713400,133537134,0.0016634507337585092,133537134,0.0016634507337585092
133.54713400,133547134,0.002728747669607401,133547134,0.002728747669607401
133.55713600,133557136,0.002728747669607401,133557136,0.002728747669607401
133.56714300,133567143,0.002728747669607401,133567143,0.002728747669607401
133.57714200,133577142,0.002728747669607401,133577142,0.002728747669607401
133.58713600,133587136,0.0016634507337585092,133587136,0.0016634507337585092
133.59713300,133597133,0.0005981539143249393,133597133,0.0005981539143249393
133.60713400,133607134,0.0016634507337585092,133607134,0.0016634507337585092
133.61763300,133617633,0.002728747669607401,133617633,0.002728747669607401
133.62763600,133627636,0.002728747669607401,133627636,0.002728747669607401
133.63763200,133637632,0.002728747669607401,133637632,0.002728747669607401
133.64763400,133647634,0.002728747669607401,133647634,0.002728747669607401
133.65763200,133657632,0.0016634507337585092,133657632,0.0016634507337585092
133.66763600,133667636,0.0016634507337585092,133667636,0.0016634507337585092
133.67763600,133677636,0.0005981539143249393,133677636,0.0005981539143249393
133.68763400,133687634,0.0005981539143249393,133687634,0.0005981539143249393
133.69764000,133697640,0.0005981539143249393,133697640,0.0005981539143249393
133.70763600,133707636,0.0005981539143249393,133707636,0.0005981539143249393
133.71766000,133717660,0.0005981539143249393,133717660,0.0005981539143249393
133.72766800,133727668,0.0005981539143249393,133727668,0.0005981539143249393
133.73769700,133737697,0.0005981539143249393,133737697,0.0005981539143249393
133.74770600,133747706,0.0005981539143249393,133747706,0.0005981539143249393
133.75771700,133757717,0.0016634507337585092,133757717,0.0016634507337585092
133.76772400,133767724,0.0037940447218716145,133767724,0.0037940447218716145
133.77777800,133777778,0.0037940447218716145,133777778,0.0037940447218716145
133.78775600,133787756,0.0037940447218716145,133787756,0.0037940447218716145
133.79763400,133797634,0.002728747669607401,133797634,0.002728747669607401
133.80763300,133807633,0.002728747669607401,133807633,0.002728747669607401
133.81764300,133817643,0.002728747669607401,133817643,0.002728747669607401
133.82763500,133827635,0.002728747669607401,133827635,0.002728747669607401
133.83813600,133838136,0.002728747669607401,133838136,0.002728747669607401
133.84813600,133848136,0.002728747669607401,133848136,0.002728747669607401
133.85813200,133858132,0.0016634507337585092,133858132,0.0016634507337585092
133.86813500,133868135,0.0016634507337585092,133868135,0.0016634507337585092
133.87813400,133878134,0.0016634507337585092,133878134,0.0016634507337585092
133.88813400,133888134,0.0016634507337585092,133888134,0.0016634507337585092
133.89813500,133898135,0.0005981539143249393,133898135,0.0005981539143249393
133.90813400,133908134,0.0005981539143249393,133908134,0.0005981539143249393
133.91813400,133918134,0.0016634507337585092,133918134,0.0016634507337585092
133.92813600,133928136,0.002728747669607401,133928136,0.002728747669607401
133.93813300,133938133,0.0037940447218716145,133938133,0.0037940447218716145
133.94813300,133948133,0.0037940447218716145,133948133,0.0037940447218716145
133.95814000,133958140,0.0037940447218716145,133958140,0.0037940447218716145
133.96813300,133968133,0.0037940447218716145,133968133,0.0037940447218716145
133.97813800,133978138,0.002728747669607401,133978138,0.002728747669607401
133.98813500,133988135,0.0016634507337585092,133988135,0.0016634507337585092
133.99815100,133998151,0.0005981539143249393,133998151,0.0005981539143249393
134.00815500,134008155,0.0016634507337585092,134008155,0.0016634507337585092
134.01818400,134018184,0.0016634507337585092,134018184,0.0016634507337585092
134.02817700,134028177,0.002728747669607401,134028177,0.002728747669607401
134.03819700,134038197,0.002728747669607401,134038197,0.002728747669607401
134.04819800,134048198,0.0016634507337585092,134048198,0.0016634507337585092
134.05821900,134058219,0.0016634507337585092,134058219,0.0016634507337585092
134.06823100,134068231,0.0016634507337585092,134068231,0.0016634507337585092
134.07824800,134078248,0.0016634507337585092,134078248,0.0016634507337585092
134.08824400,134088244,0.0016634507337585092,134088244,0.0016634507337585092
134.09863200,134098632,0.002728747669607401,134098632,0.002728747669607401
134.10863300,134108633,0.002728747669607401,134108633,0.002728747669607401
134.11863400,134118634,0.002728747669607401,134118634,0.002728747669607401
134.12864200,134128642,0.0016634507337585092,134128642,0.0016634507337585092
134.13863600,134138636,0.0005981539143249393,134138636,0.0005981539143249393
134.14864100,134148641,0.0005981539143249393,134148641,0.0005981539143249393
134.15863400,134158634,0.0016634507337585092,134158634,0.0016634507337585092
134.16864000,134168640,0.0016634507337585092,134168640,0.0016634507337585092
134.17863400,134178634,0.002728747669607401,134178634,0.002728747669607401
134.18864000,134188640,0.002728747669607401,134188640,0.002728747669607401
134.19863300,134198633,0.0016634507337585092,134198633,0.0016634507337585092
134.20863400,134208634,0.0005981539143249393,134208634,0.0005981539143249393
134.21863500,134218635,0.0005981539143249393,134218635,0.0005981539143249393
134.22864200,134228642,0.0005981539143249393,134228642,0.0005981539143249393
134.23863500,134238635,0.0016634507337585092,134238635,0.0016634507337585092
134.24863400,134248634,0.0016634507337585092,134248634,0.0016634507337585092
134.25863400,134258634,0.0016634507337585092,134258634,0.0016634507337585092
134.26863200,134268632,0.0016634507337585092,134268632,0.0016634507337585092
134.27863500,134278635,0.0016634507337585092,134278635,0.0016634507337585092
134.28864200,134288642,0.002728747669607401,134288642,0.002728747669607401
134.29866400,134298664,0.0037940447218716145,134298664,0.0037940447218716145
134.30916300,134309163,0.002728747669607401,134309163,0.002728747669607401
134.31918800,134319188,0.0016634507337585092,134319188,0.0016634507337585092
134.32918700,134329187,0.0016634507337585092,134329187,0.0016634507337585092
134.33921800,134339218,0.0005981539143249393,134339218,0.0005981539143249393
134.34920700,134349207,0.0005981539143249393,134349207,0.0005981539143249393
134.35923500,134359235,0.0016634507337585092,134359235,0.0016634507337585092
134.36924700,134369247,0.002728747669607401,134369247,0.002728747669607401
134.37913800,134379138,0.0016634507337585092,134379138,0.0016634507337585092
134.38914000,134389140,0.0005981539143249393,134389140,0.0005981539143249393
134.39916200,134399162,-0.0004671430215239525,134399162,-0.0004671430215239525
134.40914000,134409140,-0.0004671430215239525,134409140,-0.0004671430215239525
134.41915800,134419158,0.0005981539143249393,134419158,0.0005981539143249393
134.42913500,134429135,0.0005981539143249393,134429135,0.0005981539143249393
134.43913800,134439138,0.0016634507337585092,134439138,0.0016634507337585092
134.44913300,134449133,0.0016634507337585092,134449133,0.0016634507337585092
134.45913300,134459133,0.0016634507337585092,134459133,0.0016634507337585092
134.46913500,134469135,0.0016634507337585092,134469135,0.0016634507337585092
134.47913600,134479136,0.0016634507337585092,134479136,0.0016634507337585092
134.48413600,134484136,-34.908119201660156,134484136,-34.908119201660156
134.48913400,134489134,-0.003663033712655306,134489134,-0.003663033712655306
134.49413600,134494136,0.0016634507337585092,134494136,0.0016634507337585092
134.49913800,134499138,0.0037940447218716145,134499138,0.0037940447218716145
134.50413400,134504134,0.0016634507337585092,134504134,0.0016634507337585092
134.50914000,134509140,0.0037940447218716145,134509140,0.0037940447218716145
134.51413700,134514137,0.005924638360738754,134514137,0.005924638360738754
134.51963600,134519636,0.0016634507337585092,134519636,0.0016634507337585092
134.52463800,134524638,0.0016634507337585092,134524638,0.0016634507337585092
134.52963800,134529638,0.0037940447218716145,134529638,0.0037940447218716145
134.53463800,134534638,0.0005981539143249393,134534638,0.0005981539143249393
134.53963500,134539635,0.0037940447218716145,134539635,0.0037940447218716145
134.54463600,134544636,0.006989935413002968,134544636,0.006989935413002968
134.54963400,134549634,-0.0004671430215239525,134549634,-0.0004671430215239525
134.55463400,134554634,0.005924638360738754,134554634,0.005924638360738754
134.55963300,134559633,0.0037940447218716145,134559633,0.0037940447218716145
134.56463600,134564636,-0.0015324399573728442,134564636,-0.0015324399573728442
134.56965300,134569653,-0.0015324399573728442,134569653,-0.0015324399573728442
134.57464100,134574641,0.002728747669607401,134574641,0.002728747669607401
134.57963300,134579633,0.002728747669607401,134579633,0.002728747669607401
134.58465400,134584654,0.0005981539143249393,134584654,0.0005981539143249393
134.58965200,134589652,0.002728747669607401,134589652,0.002728747669607401
134.59465200,134594652,0.0016634507337585092,134594652,0.0016634507337585092
134.59966100,134599661,0.0037940447218716145,134599661,0.0037940447218716145
134.60467700,134604677,0.009120529517531395,134604677,0.009120529517531395
134.60968700,134609687,0.002728747669607401,134609687,0.002728747669607401
134.61467600,134614676,0.004859341308474541,134614676,0.004859341308474541
134.61967900,134619679,0.005924638360738754,134619679,0.005924638360738754
134.62470100,134624701,0.0005981539143249393,134624701,0.0005981539143249393
134.62970300,134629703,0.0016634507337585092,134629703,0.0016634507337585092
134.63470100,134634701,0.0037940447218716145,134634701,0.0037940447218716145
134.63970000,134639700,0.002728747669607401,134639700,0.002728747669607401
134.64472600,134644726,0.0005981539143249393,134644726,0.0005981539143249393
134.64972800,134649728,0.002728747669607401,134649728,0.002728747669607401
134.65473000,134654730,0.002728747669607401,134654730,0.002728747669607401
134.65972700,134659727,0.005924638360738754,134659727,0.005924638360738754
134.66475200,134664752,-0.0004671430215239525,134664752,-0.0004671430215239525
134.66975200,134669752,0.0037940447218716145,134669752,0.0037940447218716145
134.67475300,134674753,-0.0015324399573728442,134674753,-0.0015324399573728442
134.67975200,134679752,-0.0004671430215239525,134679752,-0.0004671430215239525
134.68463500,134684635,0.0016634507337585092,134684635,0.0016634507337585092
134.68963700,134689637,0.005924638360738754,134689637,0.005924638360738754
134.69463600,134694636,0.002728747669607401,134694636,0.002728747669607401
134.69963700,134699637,0.0016634507337585092,134699637,0.0016634507337585092
134.70463500,134704635,0.004859341308474541,134704635,0.004859341308474541
134.70963300,134709633,-0.0004671430215239525,134709633,-0.0004671430215239525
134.71463400,134714634,0.004859341308474541,134714634,0.004859341308474541
134.71963500,134719635,0.0037940447218716145,134719635,0.0037940447218716145
134.72463200,134724632,0.0037940447218716145,134724632,0.0037940447218716145
134.72963200,134729632,-0.0015324399573728442,134729632,-0.0015324399573728442
134.73463500,134734635,0.0005981539143249393,134734635,0.0005981539143249393
134.73964000,134739640,0.0005981539143249393,134739640,0.0005981539143249393
134.74514100,134745141,0.0016634507337585092,134745141,0.0016634507337585092
134.75014600,134750146,0.0016634507337585092,134750146,0.0016634507337585092
134.75513300,134755133,0.0005981539143249393,134755133,0.0005981539143249393
134.76013400,134760134,0.005924638360738754,134760134,0.005924638360738754
134.76513300,134765133,0.004859341308474541,134765133,0.004859341308474541
134.77013200,134770132,0.0005981539143249393,134770132,0.0005981539143249393
134.77513200,134775132,-0.002597736893221736,134775132,-0.002597736893221736
134.78013500,134780135,0.002728747669607401,134780135,0.002728747669607401
134.78514500,134785145,0.004859341308474541,134785145,0.004859341308474541
134.79013700,134790137,0.0037940447218716145,134790137,0.0037940447218716145
134.79513600,134795136,-0.002597736893221736,134795136,-0.002597736893221736
134.80013500,134800135,0.005924638360738754,134800135,0.005924638360738754
134.80513200,134805132,-0.0004671430215239525,134805132,-0.0004671430215239525
134.81013400,134810134,-0.0004671430215239525,134810134,-0.0004671430215239525
134.81514400,134815144,0.006989935413002968,134815144,0.006989935413002968
134.82013800,134820138,0.0037940447218716145,134820138,0.0037940447218716145
134.82516600,134825166,0.0016634507337585092,134825166,0.0016634507337585092
134.83016100,134830161,-0.003663033712655306,134830161,-0.003663033712655306
134.83516300,134835163,0.0037940447218716145,134835163,0.0037940447218716145
134.84016300,134840163,-0.0004671430215239525,134840163,-0.0004671430215239525
134.84519800,134845198,-0.0015324399573728442,134845198,-0.0015324399573728442
134.85019600,134850196,0.002728747669607401,134850196,0.002728747669607401
134.85519100,134855191,0.0016634507337585092,134855191,0.0016634507337585092
134.86018700,134860187,0.0005981539143249393,134860187,0.0005981539143249393
134.86521800,134865218,0.0005981539143249393,134865218,0.0005981539143249393
134.87021600,134870216,-0.0004671430215239525,134870216,-0.0004671430215239525
134.87521700,134875217,0.0016634507337585092,134875217,0.0016634507337585092
134.88021900,134880219,0.0005981539143249393,134880219,0.0005981539143249393
134.88524000,134885240,0.002728747669607401,134885240,0.002728747669607401
134.89023900,134890239,0.0016634507337585092,134890239,0.0016634507337585092
134.89524100,134895241,0.0016634507337585092,134895241,0.0016634507337585092
134.90023700,134900237,0.0005981539143249393,134900237,0.0005981539143249393
134.90513800,134905138,-0.0004671430215239525,134905138,-0.0004671430215239525
134.91013400,134910134,0.005924638360738754,134910134,0.005924638360738754
134.91513700,134915137,0.0016634507337585092,134915137,0.0016634507337585092
