timestamp,TimeUS,ACCx
124.57812800,124578128,-0.11013327538967133
124.58315700,124583157,-0.1149216815829277
124.58833700,124588337,-0.11971008777618408
124.59336300,124593363,-0.1149216815829277
124.59839700,124598397,-0.1149216815829277
124.60342000,124603420,-0.11971008777618408
124.60845200,124608452,-0.11971008777618408
124.61397400,124613974,-0.11013327538967133
124.61900200,124619002,-0.11971008777618408
124.62402600,124624026,-0.11013327538967133
124.62905300,124629053,-0.11971008777618408
124.63408600,124634086,-0.12449848651885986
124.63911100,124639111,-0.11971008777618408
124.64413600,124644136,-0.1149216815829277
124.64916000,124649160,-0.11013327538967133
124.65433300,124654333,-0.11013327538967133
124.65936700,124659367,-0.11971008777618408
124.66439700,124664397,-0.11971008777618408
124.66941500,124669415,-0.11971008777618408
124.67444400,124674444,-0.11013327538967133
124.67946900,124679469,-0.10534487664699554
124.68449800,124684498,-0.11971008777618408
124.68952400,124689524,-0.11971008777618408
124.69454700,124694547,-0.11013327538967133
124.69957300,124699573,-0.11013327538967133
124.70460000,124704600,-0.11971008777618408
124.70962400,124709624,-0.1149216815829277
124.71465300,124714653,-0.1149216815829277
124.71971100,124719711,-0.11013327538967133
124.72481300,124724813,-0.11971008777618408
124.72983900,124729839,-0.1149216815829277
124.73486100,124734861,-0.11013327538967133
124.74038800,124740388,-0.1149216815829277
124.74542100,124745421,-0.11013327538967133
124.75045500,124750455,-0.1149216815829277
124.75547500,124755475,-0.11013327538967133
124.76050500,124760505,-0.1149216815829277
124.76553300,124765533,-0.1149216815829277
124.77055400,124770554,-0.1149216815829277
124.77558100,124775581,-0.11971008777618408
124.78060600,124780606,-0.1149216815829277
124.78563500,124785635,-0.11971008777618408
124.79065400,124790654,-0.1149216815829277
124.79580300,124795803,-0.10534487664699554
124.80082700,124800827,-0.1149216815829277
124.80585000,124805850,-0.1149216815829277
124.81087600,124810876,-0.11971008777618408
124.81590200,124815902,-0.1149216815829277
124.82092200,124820922,-0.11971008777618408
124.82595000,124825950,-0.1149216815829277
124.83097800,124830978,-0.10534487664699554
124.83600300,124836003,-0.11971008777618408
124.84152900,124841529,-0.12449848651885986
124.84655500,124846555,-0.11013327538967133
124.85158200,124851582,-0.11013327538967133
124.85660800,124856608,-0.10055647045373917
124.86163900,124861639,-0.1149216815829277
124.86666400,124866664,-0.1149216815829277
124.87184600,124871846,-0.10534487664699554
124.87686900,124876869,-0.1149216815829277
124.88188900,124881889,-0.11971008777618408
124.88691400,124886914,-0.11971008777618408
124.89194400,124891944,-0.1149216815829277
124.89697800,124896978,-0.12449848651885986
124.90200500,124902005,-0.1149216815829277
124.90702300,124907023,-0.1149216815829277
124.91205000,124912050,-0.10055647045373917
124.91707500,124917075,-0.11013327538967133
124.92210000,124922100,-0.11971008777618408
124.92712900,124927129,-0.11971008777618408
124.93215600,124932156,-0.12449848651885986
124.93730400,124937304,-0.10534487664699554
124.94232400,124942324,-0.10534487664699554
124.94735300,124947353,-0.1149216815829277
124.95237700,124952377,-0.1149216815829277
124.95740000,124957400,-0.11971008777618408
124.96242500,124962425,-0.1149216815829277
124.96795200,124967952,-0.1149216815829277
124.97298000,124972980,-0.11971008777618408
124.97801100,124978011,-0.11971008777618408
124.98303300,124983033,-0.11971008777618408
124.98806300,124988063,-0.12449848651885986
124.99308900,124993089,-0.10534487664699554
124.99811400,124998114,-0.1149216815829277
125.00313500,125003135,-0.11013327538967133
125.00816000,125008160,-0.1149216815829277
125.01333800,125013338,-0.11971008777618408
125.01837000,125018370,-0.11971008777618408
125.02339100,125023391,-0.10534487664699554
125.02842100,125028421,-0.1149216815829277
125.03344900,125033449,-0.11013327538967133
125.03847000,125038470,-0.1149216815829277
125.04349100,125043491,-0.11013327538967133
125.04851600,125048516,-0.10534487664699554
125.05354700,125053547,-0.1149216815829277
125.05857300,125058573,-0.11013327538967133
125.06360000,125063600,-0.1149216815829277
125.06862300,125068623,-0.11971008777618408
125.07365400,125073654,-0.10534487664699554
125.07882800,125078828,-0.1149216815829277
125.08392000,125083920,-0.1149216815829277
125.08894000,125088940,-0.11971008777618408
125.09396900,125093969,-0.11971008777618408
125.09899700,125098997,-0.1149216815829277
125.10402600,125104026,-0.1149216815829277
125.10906800,125109068,-0.11971008777618408
125.11410100,125114101,-0.11971008777618408
125.11962900,125119629,-0.1149216815829277
125.12465500,125124655,-0.11971008777618408
125.12931000,125129310,-0.11013327538967133
125.13434100,125134341,-0.1149216815829277
125.13986700,125139867,-0.1149216815829277
125.14489200,125144892,-0.1149216815829277
125.14991900,125149919,-0.10534487664699554
125.15494000,125154940,-0.11971008777618408
125.15996600,125159966,-0.11971008777618408
125.16498800,125164988,-0.1149216815829277
125.17001300,125170013,-0.1149216815829277
125.17503500,125175035,-0.11013327538967133
125.18005800,125180058,-0.11013327538967133
125.18508700,125185087,-0.11013327538967133
125.19011500,125190115,-0.11971008777618408
125.19513800,125195138,-0.1149216815829277
125.20016000,125200160,-0.1149216815829277
125.20530500,125205305,-0.11971008777618408
125.21033100,125210331,-0.1149216815829277
125.21535300,125215353,-0.1149216815829277
125.22038100,125220381,-0.11013327538967133
125.22540700,125225407,-0.11971008777618408
125.23043100,125230431,-0.1149216815829277
125.23595600,125235956,-0.11971008777618408
125.24097500,125240975,-0.11971008777618408
125.24601300,125246013,-0.11013327538967133
125.25103800,125251038,-0.10534487664699554
125.25606600,125256066,-0.1149216815829277
125.26108800,125261088,-0.1149216815829277
125.26611400,125266114,-0.11971008777618408
125.27113500,125271135,-0.11013327538967133
125.27615900,125276159,-0.1149216815829277
125.28130700,125281307,-0.1149216815829277
125.28633200,125286332,-0.10534487664699554
125.29135400,125291354,-0.10534487664699554
125.29637900,125296379,-0.11013327538967133
125.30140700,125301407,-0.1149216815829277
125.30643300,125306433,-0.12449848651885986
125.31145800,125311458,-0.11013327538967133
125.31648200,125316482,-0.10534487664699554
125.32150900,125321509,-0.11013327538967133
125.32653000,125326530,-0.11013327538967133
125.33155600,125331556,-0.1149216815829277
125.33709000,125337090,-0.11013327538967133
125.34211500,125342115,-0.12449848651885986
125.34714000,125347140,-0.11013327538967133
125.35216200,125352162,-0.1149216815829277
125.35683200,125356832,-0.11013327538967133
125.36235800,125362358,-0.11971008777618408
125.36738200,125367382,-0.11013327538967133
125.37240500,125372405,-0.11013327538967133
125.37742900,125377429,-0.1149216815829277
125.38245400,125382454,-0.11013327538967133
125.38748100,125387481,-0.1149216815829277
125.39251400,125392514,-0.11971008777618408
125.39753500,125397535,-0.1149216815829277
125.40255700,125402557,-0.1149216815829277
125.40760400,125407604,-0.11971008777618408
125.41262600,125412626,-0.11971008777618408
125.41764800,125417648,-0.12449848651885986
125.42279200,125422792,-0.11971008777618408
125.42780500,125427805,-0.10534487664699554
125.43282900,125432829,-0.12449848651885986
125.43785300,125437853,-0.1149216815829277
125.44287600,125442876,-0.1149216815829277
125.44790500,125447905,-0.10534487664699554
125.45293000,125452930,-0.1149216815829277
125.45845100,125458451,-0.10534487664699554
125.46348400,125463484,-0.10534487664699554
125.46851200,125468512,-0.1149216815829277
125.47354500,125473545,-0.1149216815829277
125.47856600,125478566,-0.11971008777618408
125.48359200,125483592,-0.1149216815829277
125.48862100,125488621,-0.11971008777618408
125.49364600,125493646,-0.11013327538967133
125.49867000,125498670,-0.11971008777618408
125.50381000,125503810,-0.11971008777618408
125.50882600,125508826,-0.11971008777618408
125.51385200,125513852,-0.1149216815829277
125.51887400,125518874,-0.1149216815829277
125.52390500,125523905,-0.11013327538967133
125.52892500,125528925,-0.1149216815829277
125.53394600,125533946,-0.1149216815829277
125.53897000,125538970,-0.11013327538967133
125.54399500,125543995,-0.11971008777618408
125.54902200,125549022,-0.1149216815829277
125.55404700,125554047,-0.11013327538967133
125.55957000,125559570,-0.1149216815829277
125.56459600,125564596,-0.11013327538967133
125.56962100,125569621,-0.11013327538967133
125.57464300,125574643,-0.1149216815829277
125.57967100,125579671,-0.11971008777618408
125.58484000,125584840,-0.11013327538967133
125.58994700,125589947,-0.11013327538967133
125.59498700,125594987,-0.11013327538967133
125.60002100,125600021,-0.1149216815829277
125.60502800,125605028,-0.1149216815829277
125.61005700,125610057,-0.11971008777618408
125.61509600,125615096,-0.1149216815829277
125.62013100,125620131,-0.11971008777618408
125.62516800,125625168,-0.1149216815829277
125.63031300,125630313,-0.1149216815829277
125.63535400,125635354,-0.11971008777618408
125.64039900,125640399,-0.1149216815829277
125.64544200,125645442,-0.10055647045373917
125.65046900,125650469,-0.1149216815829277
125.65549700,125655497,-0.1149216815829277
125.66052400,125660524,-0.11971008777618408
125.66554800,125665548,-0.11013327538967133
125.67057400,125670574,-0.11013327538967133
125.67560300,125675603,-0.11013327538967133
125.68062500,125680625,-0.1149216815829277
125.68565400,125685654,-0.10534487664699554
125.69073900,125690739,-0.1149216815829277
125.69581700,125695817,-0.11971008777618408
125.70084200,125700842,-0.11971008777618408
125.70586700,125705867,-0.1149216815829277
125.71091600,125710916,-0.11013327538967133
125.71594300,125715943,-0.1149216815829277
125.72097200,125720972,-0.11971008777618408
125.72600200,125726002,-0.1149216815829277
125.73152500,125731525,-0.1149216815829277
125.73655300,125736553,-0.11971008777618408
125.74157700,125741577,-0.10534487664699554
125.74659900,125746599,-0.11013327538967133
125.75162500,125751625,-0.11971008777618408
125.75664700,125756647,-0.10534487664699554
125.76170100,125761701,-0.11971008777618408
125.76680200,125766802,-0.1149216815829277
125.77182500,125771825,-0.1149216815829277
125.77684800,125776848,-0.11013327538967133
125.78187400,125781874,-0.1149216815829277
125.78689500,125786895,-0.11013327538967133
125.79192300,125791923,-0.1149216815829277
125.79695100,125796951,-0.1149216815829277
125.80197900,125801979,-0.11971008777618408
125.80700200,125807002,-0.11013327538967133
125.81202800,125812028,-0.11013327538967133
125.81705400,125817054,-0.10534487664699554
125.82208400,125822084,-0.1149216815829277
125.82710400,125827104,-0.1149216815829277
125.83263000,125832630,-0.10534487664699554
125.83765700,125837657,-0.11971008777618408
125.84230300,125842303,-0.11971008777618408
125.84783000,125847830,-0.11971008777618408
125.85285500,125852855,-0.1149216815829277
125.85787700,125857877,-0.1149216815829277
125.86290700,125862907,-0.10534487664699554
125.86792500,125867925,-0.11971008777618408
125.87295100,125872951,-0.1149216815829277
125.87797400,125877974,-0.11971008777618408
125.88299900,125882999,-0.11013327538967133
125.88802500,125888025,-0.12449848651885986
125.89304600,125893046,-0.12449848651885986
125.89807300,125898073,-0.11971008777618408
125.90309300,125903093,-0.1149216815829277
125.90811800,125908118,-0.10055647045373917
125.91315200,125913152,-0.1149216815829277
125.91820100,125918201,-0.11013327538967133
125.92334100,125923341,-0.1149216815829277
125.92836800,125928368,-0.10534487664699554
125.93338900,125933389,-0.1149216815829277
125.93841600,125938416,-0.11971008777618408
125.94343700,125943437,-0.1149216815829277
125.94896600,125948966,-0.1149216815829277
125.95399800,125953998,-0.11971008777618408
125.95902300,125959023,-0.11971008777618408
125.96405400,125964054,-0.1149216815829277
125.96908000,125969080,-0.11971008777618408
125.97410500,125974105,-0.11971008777618408
125.97913100,125979131,-0.11971008777618408
125.98415200,125984152,-0.11013327538967133
125.98922900,125989229,-0.1149216815829277
125.99431300,125994313,-0.11013327538967133
125.99934000,125999340,-0.1149216815829277
126.00436700,126004367,-0.11971008777618408
126.00939300,126009393,-0.1149216815829277
126.01441500,126014415,-0.10534487664699554
126.01944200,126019442,-0.1149216815829277
126.02446900,126024469,-0.10534487664699554
126.02949500,126029495,-0.1149216815829277
126.03452100,126034521,-0.1149216815829277
126.03954200,126039542,-0.1149216815829277
126.04457200,126044572,-0.1149216815829277
126.05009800,126050098,-0.10534487664699554
126.05512300,126055123,-0.1149216815829277
126.06014900,126060149,-0.10534487664699554
126.06520400,126065204,-0.11971008777618408
126.07031200,126070312,-0.1149216815829277
126.07533600,126075336,-0.11013327538967133
126.08036100,126080361,-0.1149216815829277
126.08538400,126085384,-0.11013327538967133
126.09041100,126090411,-0.1149216815829277
126.09544800,126095448,-0.1149216815829277
126.10047200,126100472,-0.11013327538967133
126.10549900,126105499,-0.11971008777618408
126.11053000,126110530,-0.12928688526153564
126.11555300,126115553,-0.1149216815829277
126.12058000,126120580,-0.1149216815829277
126.12560300,126125603,-0.11013327538967133
126.13062700,126130627,-0.11013327538967133
126.13565500,126135655,-0.1149216815829277
126.14088600,126140886,-0.1149216815829277
126.14591500,126145915,-0.1149216815829277
126.15094600,126150946,-0.1149216815829277
126.15597000,126155970,-0.11013327538967133
126.16099200,126160992,-0.1149216815829277
126.16602200,126166022,-0.11971008777618408
126.17104900,126171049,-0.11971008777618408
126.17606800,126176068,-0.11013327538967133
126.18109400,126181094,-0.11013327538967133
126.18661500,126186615,-0.11013327538967133
126.19164400,126191644,-0.11013327538967133
126.19667700,126196677,-0.1149216815829277
126.20140400,126201404,-0.1149216815829277
126.20642800,126206428,-0.11013327538967133
126.21146800,126211468,-0.1149216815829277
126.21651000,126216510,-0.1149216815829277
126.22203400,126222034,-0.11013327538967133
126.22706100,126227061,-0.1149216815829277
126.23209200,126232092,-0.12928688526153564
126.23711900,126237119,-0.1149216815829277
126.24214400,126242144,-0.12449848651885986
126.24717200,126247172,-0.12928688526153564
126.25230600,126252306,-0.11971008777618408
126.25733600,126257336,-0.1149216815829277
126.26236600,126262366,-0.1149216815829277
126.26738800,126267388,-0.11971008777618408
126.27241200,126272412,-0.1149216815829277
126.27743900,126277439,-0.11013327538967133
126.28246200,126282462,-0.1149216815829277
126.28748700,126287487,-0.11971008777618408
126.29253400,126292534,-0.11971008777618408
126.29753900,126297539,-0.1149216815829277
126.30256600,126302566,-0.1149216815829277
126.30759200,126307592,-0.11971008777618408
126.31261800,126312618,-0.11971008777618408
126.31763700,126317637,-0.1149216815829277
126.32316600,126323166,-0.11013327538967133
126.32780100,126327801,-0.1149216815829277
126.33282800,126332828,-0.10534487664699554
126.33784900,126337849,-0.11013327538967133
126.34337400,126343374,-0.12449848651885986
126.34839500,126348395,-0.11971008777618408
126.35342000,126353420,-0.11971008777618408
126.35844300,126358443,-0.1149216815829277
126.36347300,126363473,-0.1149216815829277
126.36849600,126368496,-0.11971008777618408
126.37352100,126373521,-0.1149216815829277
126.37854500,126378545,-0.11971008777618408
126.38356900,126383569,-0.1149216815829277
126.38859500,126388595,-0.11971008777618408
126.39361800,126393618,-0.1149216815829277
126.39865400,126398654,-0.11013327538967133
126.40380800,126403808,-0.1149216815829277
126.40883200,126408832,-0.10534487664699554
126.41386600,126413866,-0.11013327538967133
126.41888500,126418885,-0.11013327538967133
126.42391200,126423912,-0.1149216815829277
126.42893200,126428932,-0.11013327538967133
126.43395800,126433958,-0.11013327538967133
126.43898200,126438982,-0.10534487664699554
126.44450600,126444506,-0.11013327538967133
126.44952900,126449529,-0.11971008777618408
126.45455300,126454553,-0.1149216815829277
126.45957600,126459576,-0.11013327538967133
126.46460500,126464605,-0.1149216815829277
126.46963100,126469631,-0.11013327538967133
126.47465900,126474659,-0.11971008777618408
126.47980600,126479806,-0.10534487664699554
126.48482800,126484828,-0.11013327538967133
126.48985400,126489854,-0.11971008777618408
126.49487300,126494873,-0.1149216815829277
126.49989900,126499899,-0.11013327538967133
126.50492400,126504924,-0.11971008777618408
126.50995800,126509958,-0.11013327538967133
126.51498700,126514987,-0.11971008777618408
126.52001300,126520013,-0.11971008777618408
126.52503300,126525033,-0.11971008777618408
126.53005700,126530057,-0.11971008777618408
126.53508300,126535083,-0.11013327538967133
126.54060400,126540604,-0.12449848651885986
126.54563200,126545632,-0.1149216815829277
126.55065100,126550651,-0.1149216815829277
126.55530700,126555307,-0.11971008777618408
126.56083400,126560834,-0.11013327538967133
126.56585400,126565854,-0.11013327538967133
126.57088300,126570883,-0.1149216815829277
126.57591100,126575911,-0.1149216815829277
126.58094200,126580942,-0.11971008777618408
126.58596300,126585963,-0.1149216815829277
126.59098800,126590988,-0.11971008777618408
126.59601200,126596012,-0.11013327538967133
126.60103800,126601038,-0.1149216815829277
126.60606100,126606061,-0.1149216815829277
126.61108300,126611083,-0.11013327538967133
126.61610800,126616108,-0.12449848651885986
126.62113300,126621133,-0.1149216815829277
126.62615300,126626153,-0.11013327538967133
126.63130500,126631305,-0.10534487664699554
126.63632900,126636329,-0.1149216815829277
126.64135500,126641355,-0.1149216815829277
126.64638200,126646382,-0.11971008777618408
126.65140800,126651408,-0.11013327538967133
126.65643000,126656430,-0.11971008777618408
126.66195300,126661953,-0.1149216815829277
126.66697800,126666978,-0.11971008777618408
126.67200700,126672007,-0.1149216815829277
126.67702500,126677025,-0.12449848651885986
126.68205100,126682051,-0.11013327538967133
126.68708500,126687085,-0.12928688526153564
126.69211000,126692110,-0.11013327538967133
126.69713300,126697133,-0.1149216815829277
126.70215700,126702157,-0.11971008777618408
126.70740800,126707408,-0.11013327538967133
126.71243700,126712437,-0.11971008777618408
126.71746600,126717466,-0.1149216815829277
126.72249100,126722491,-0.11971008777618408
126.72752400,126727524,-0.11971008777618408
126.73256100,126732561,-0.1149216815829277
126.73759900,126737599,-0.11013327538967133
126.74262700,126742627,-0.1149216815829277
126.74766900,126747669,-0.11971008777618408
126.75281700,126752817,-0.11971008777618408
126.75786200,126757862,-0.1149216815829277
126.76292600,126762926,-0.11013327538967133
126.76795200,126767952,-0.1149216815829277
126.77300100,126773001,-0.11971008777618408
126.77802800,126778028,-0.1149216815829277
126.78305000,126783050,-0.1149216815829277
126.78807800,126788078,-0.11013327538967133
126.79310500,126793105,-0.11013327538967133
126.79813200,126798132,-0.12449848651885986
126.80316000,126803160,-0.11013327538967133
126.80834100,126808341,-0.1149216815829277
126.81336600,126813366,-0.1149216815829277
126.81839000,126818390,-0.11013327538967133
126.82341600,126823416,-0.12449848651885986
126.82844300,126828443,-0.12449848651885986
126.83346800,126833468,-0.11971008777618408
126.83849600,126838496,-0.1149216815829277
126.84358700,126843587,-0.1149216815829277
126.84860900,126848609,-0.11971008777618408
126.85363700,126853637,-0.1149216815829277
126.85916300,126859163,-0.11971008777618408
126.86381100,126863811,-0.11013327538967133
126.86884100,126868841,-0.11971008777618408
126.87387200,126873872,-0.11971008777618408
126.87939600,126879396,-0.11013327538967133
126.88442300,126884423,-0.11971008777618408
126.88944700,126889447,-0.11971008777618408
126.89446900,126894469,-0.11013327538967133
126.89949600,126899496,-0.11013327538967133
126.90452400,126904524,-0.11971008777618408
126.90954900,126909549,-0.11971008777618408
126.91457000,126914570,-0.1149216815829277
126.91959400,126919594,-0.11971008777618408
126.92462300,126924623,-0.12449848651885986
126.92964800,126929648,-0.11013327538967133
126.93467100,126934671,-0.1149216815829277
126.93980800,126939808,-0.10534487664699554
126.94483500,126944835,-0.10534487664699554
126.94986500,126949865,-0.11013327538967133
126.95489000,126954890,-0.11971008777618408
126.95990700,126959907,-0.11971008777618408
126.96493400,126964934,-0.11971008777618408
126.96995900,126969959,-0.11013327538967133
126.97548800,126975488,-0.10534487664699554
126.98051400,126980514,-0.1149216815829277
126.98554100,126985541,-0.11013327538967133
126.99056300,126990563,-0.1149216815829277
126.99558900,126995589,-0.1149216815829277
127.00061300,127000613,-0.11013327538967133
127.00564100,127005641,-0.11013327538967133
127.01066600,127010666,-0.1149216815829277
127.01580800,127015808,-0.11013327538967133
127.02084500,127020845,-0.1149216815829277
127.02587000,127025870,-0.11013327538967133
127.03089300,127030893,-0.11013327538967133
127.03591700,127035917,-0.11013327538967133
127.04094500,127040945,-0.1149216815829277
127.04596500,127045965,-0.1149216815829277
127.05099100,127050991,-0.1149216815829277
127.05601300,127056013,-0.1149216815829277
127.06103700,127061037,-0.11013327538967133
127.06607000,127066070,-0.11971008777618408
127.07109700,127071097,-0.12928688526153564
127.07662500,127076625,-0.1149216815829277
127.08164800,127081648,-0.11971008777618408
127.08669300,127086693,-0.1149216815829277
127.09131200,127091312,-0.12449848651885986
127.09683100,127096831,-0.11971008777618408
127.10185600,127101856,-0.11013327538967133
127.10688200,127106882,-0.10534487664699554
127.11190700,127111907,-0.12449848651885986
127.11693200,127116932,-0.11013327538967133
127.12195500,127121955,-0.11971008777618408
127.12697800,127126978,-0.1149216815829277
127.13200500,127132005,-0.1149216815829277
127.13703000,127137030,-0.11971008777618408
127.14205900,127142059,-0.11971008777618408
127.14708000,127147080,-0.11013327538967133
127.15210300,127152103,-0.1149216815829277
127.15712600,127157126,-0.1149216815829277
127.16215000,127162150,-0.1149216815829277
127.16719200,127167192,-0.11971008777618408
127.17230500,127172305,-0.11971008777618408
127.17732800,127177328,-0.1149216815829277
127.18235600,127182356,-0.1149216815829277
127.18787800,127187878,-0.11971008777618408
127.19290300,127192903,-0.11013327538967133
127.19793100,127197931,-0.11971008777618408
127.20295700,127202957,-0.11971008777618408
127.20799400,127207994,-0.11971008777618408
127.21801500,127218015,-0.11013327538967133
127.22804000,127228040,-0.11013327538967133
127.23806400,127238064,-0.1149216815829277
127.24809300,127248093,-0.1149216815829277
127.25862900,127258629,-0.11013327538967133
127.26867200,127268672,-0.10534487664699554
127.27881600,127278816,-0.1149216815829277
127.28886600,127288866,-0.11971008777618408
127.29889600,127298896,-0.11013327538967133
127.30892600,127308926,-0.11971008777618408
127.31895700,127318957,-0.11013327538967133
127.32898500,127328985,-0.1149216815829277
127.33951100,127339511,-0.10055647045373917
127.34954100,127349541,-0.1149216815829277
127.35957100,127359571,-0.1149216815829277
127.36960000,127369600,-0.11971008777618408
127.37962700,127379627,-0.11013327538967133
127.38965700,127389657,-0.11971008777618408
127.39981400,127399814,-0.11971008777618408
127.41033800,127410338,-0.1149216815829277
127.42036500,127420365,-0.11013327538967133
127.43038700,127430387,-0.11971008777618408
127.44041200,127440412,-0.1149216815829277
127.45043300,127450433,-0.1149216815829277
127.46045600,127460456,-0.1149216815829277
127.47098000,127470980,-0.1149216815829277
127.48100400,127481004,-0.1149216815829277
127.49103200,127491032,-0.11971008777618408
127.50105200,127501052,-0.11971008777618408
127.51108300,127511083,-0.11971008777618408
127.52160900,127521609,-0.1149216815829277
127.53163600,127531636,-0.10534487664699554
127.54165900,127541659,-0.1149216815829277
127.55180300,127551803,-0.11971008777618408
127.56182400,127561824,-0.11013327538967133
127.57185200,127571852,-0.11013327538967133
127.58187300,127581873,-0.11013327538967133
127.59239600,127592396,-0.1149216815829277
127.60243200,127602432,-0.1149216815829277
127.61246300,127612463,-0.1149216815829277
127.62248700,127622487,-0.11013327538967133
127.63250900,127632509,-0.11971008777618408
127.64254100,127642541,-0.1149216815829277
127.65306200,127653062,-0.11971008777618408
127.66309100,127663091,-0.11971008777618408
127.67311600,127673116,-0.1149216815829277
127.68314300,127683143,-0.11013327538967133
127.69317200,127693172,-0.11971008777618408
127.70330100,127703301,-0.1149216815829277
127.71333000,127713330,-0.1149216815829277
127.72385300,127723853,-0.11971008777618408
127.73387800,127733878,-0.1149216815829277
127.74390100,127743901,-0.11013327538967133
127.75392100,127753921,-0.1149216815829277
127.76394500,127763945,-0.11971008777618408
127.77397300,127773973,-0.1149216815829277
127.78449800,127784498,-0.11971008777618408
127.79452400,127794524,-0.1149216815829277
127.80455900,127804559,-0.11971008777618408
127.81457700,127814577,-0.1149216815829277
127.82460100,127824601,-0.1149216815829277
127.83513000,127835130,-0.11971008777618408
127.84517600,127845176,-0.1149216815829277
127.85530900,127855309,-0.1149216815829277
127.86533800,127865338,-0.10534487664699554
127.87536600,127875366,-0.1149216815829277
127.88539700,127885397,-0.11013327538967133
127.89542700,127895427,-0.11013327538967133
127.90544900,127905449,-0.11013327538967133
127.91597000,127915970,-0.11013327538967133
127.92599500,127925995,-0.1149216815829277
127.93601700,127936017,-0.1149216815829277
127.94604000,127946040,-0.10055647045373917
127.95606600,127956066,-0.11971008777618408
127.96659300,127966593,-0.1149216815829277
127.97662300,127976623,-0.1149216815829277
127.98664800,127986648,-0.1149216815829277
127.99670900,127996709,-0.1149216815829277
128.00681000,128006810,-0.1149216815829277
128.01683000,128016830,-0.1149216815829277
128.02685300,128026853,-0.1149216815829277
128.03737600,128037376,-0.11971008777618408
128.04740100,128047401,-0.11013327538967133
128.05742100,128057421,-0.11013327538967133
128.06745100,128067451,-0.11013327538967133
128.07747000,128077470,-0.1149216815829277
128.08750300,128087503,-0.11013327538967133
128.09803900,128098039,-0.11013327538967133
128.10806100,128108061,-0.11971008777618408
128.11808900,128118089,-0.11971008777618408
128.12812300,128128123,-0.11013327538967133
128.13814600,128138146,-0.1149216815829277
128.14817000,128148170,-0.11971008777618408
128.15830800,128158308,-0.11013327538967133
128.16883000,128168830,-0.1149216815829277
128.17885000,128178850,-0.1149216815829277
128.18888700,128188887,-0.1149216815829277
128.19891500,128198915,-0.1149216815829277
128.20894700,128208947,-0.11013327538967133
128.21897200,128218972,-0.1149216815829277
128.22950100,128229501,-0.11971008777618408
128.23952500,128239525,-0.11013327538967133
128.24955200,128249552,-0.11013327538967133
128.25957800,128259578,-0.11013327538967133
128.26960300,128269603,-0.1149216815829277
128.28012600,128280126,-0.1149216815829277
128.29015000,128290150,-0.11013327538967133
128.30020400,128300204,-0.1149216815829277
128.31034500,128310345,-0.1149216815829277
128.32037300,128320373,-0.10055647045373917
128.33039500,128330395,-0.11971008777618408
128.34042200,128340422,-0.1149216815829277
128.35044700,128350447,-0.10534487664699554
128.36097500,128360975,-0.1149216815829277
128.37101900,128371019,-0.1149216815829277
128.38105000,128381050,-0.10534487664699554
128.39108600,128391086,-0.11013327538967133
128.40112300,128401123,-0.11971008777618408
128.41115200,128411152,-0.1149216815829277
128.42130800,128421308,-0.1149216815829277
128.43137200,128431372,-0.11013327538967133
128.44189800,128441898,-0.10534487664699554
128.45192500,128451925,-0.11971008777618408
128.46195200,128461952,-0.11971008777618408
128.47198100,128471981,-0.12449848651885986
128.48202000,128482020,-0.1149216815829277
128.49204900,128492049,-0.11013327538967133
128.50257300,128502573,-0.1149216815829277
128.51259900,128512599,-0.11013327538967133
128.52262400,128522624,-0.11971008777618408
128.53264800,128532648,-0.12449848651885986
128.54267000,128542670,-0.11013327538967133
128.55280200,128552802,-0.1149216815829277
128.56332500,128563325,-0.11013327538967133
128.57334900,128573349,-0.10534487664699554
128.58337800,128583378,-0.11971008777618408
128.59340100,128593401,-0.1149216815829277
128.60343000,128603430,-0.1149216815829277
128.61345200,128613452,-0.11013327538967133
128.62397600,128623976,-0.1149216815829277
128.63401000,128634010,-0.11971008777618408
128.64403200,128644032,-0.11013327538967133
128.65405700,128654057,-0.11971008777618408
128.66413900,128664139,-0.11971008777618408
128.67410400,128674104,-0.11971008777618408
128.68464100,128684641,-0.10534487664699554
128.69467200,128694672,-0.1149216815829277
128.70480200,128704802,-0.1149216815829277
128.71482900,128714829,-0.1149216815829277
128.72485500,128724855,-0.11013327538967133
128.73487700,128734877,-0.1149216815829277
128.74490100,128744901,-0.11971008777618408
128.75543000,128755430,-0.1149216815829277
128.76545100,128765451,-0.1149216815829277
128.77548400,128775484,-0.1149216815829277
128.78550500,128785505,-0.12449848651885986
128.79553100,128795531,-0.12449848651885986
128.80555300,128805553,-0.1149216815829277
128.81607600,128816076,-0.1149216815829277
128.82610100,128826101,-0.11971008777618408
128.83612700,128836127,-0.11013327538967133
128.84615000,128846150,-0.1149216815829277
128.85617200,128856172,-0.11971008777618408
128.86630700,128866307,-0.11971008777618408
128.87994300,128879943,-0.10534487664699554
128.88693100,128886931,-0.11971008777618408
128.89694800,128896948,-0.11971008777618408
128.90697200,128906972,-0.1149216815829277
128.91699200,128916992,-0.12449848651885986
128.92701800,128927018,-0.11971008777618408
128.93704000,128937040,-0.11013327538967133
128.94758100,128947581,-0.11013327538967133
128.95761000,128957610,-0.1149216815829277
128.96763800,128967638,-0.11971008777618408
128.97766800,128977668,-0.11013327538967133
128.98784100,128987841,-0.1149216815829277
128.99790500,128997905,-0.1149216815829277
129.00792900,129007929,-0.12449848651885986
129.01795800,129017958,-0.1149216815829277
129.02848300,129028483,-0.12449848651885986
129.03850400,129038504,-0.1149216815829277
129.04852700,129048527,-0.12449848651885986
129.05855500,129058555,-0.1149216815829277
129.06857800,129068578,-0.11971008777618408
129.07910200,129079102,-0.1149216815829277
129.08913300,129089133,-0.10534487664699554
129.09915700,129099157,-0.1149216815829277
129.10931000,129109310,-0.1149216815829277
129.11933400,129119334,-0.10534487664699554
129.12935600,129129356,-0.10055647045373917
129.13938100,129139381,-0.11971008777618408
129.14990500,129149905,-0.11013327538967133
129.15993000,129159930,-0.11971008777618408
129.16995500,129169955,-0.11971008777618408
129.17998400,129179984,-0.11013327538967133
129.19001400,129190014,-0.11971008777618408
129.20004000,129200040,-0.11013327538967133
129.21056600,129210566,-0.1149216815829277
129.22059000,129220590,-0.09576806426048279
129.23061400,129230614,-0.11013327538967133
129.24064400,129240644,-0.12928688526153564
129.25066900,129250669,-0.11013327538967133
129.26084000,129260840,-0.11013327538967133
129.27086700,129270867,-0.11013327538967133
129.28089700,129280897,-0.12449848651885986
129.29142400,129291424,-0.1149216815829277
129.30145200,129301452,-0.11971008777618408
129.31147400,129311474,-0.10534487664699554
129.32149900,129321499,-0.11013327538967133
129.33152100,129331521,-0.10055647045373917
129.34204900,129342049,-0.1149216815829277
129.35206900,129352069,-0.11971008777618408
129.36209600,129362096,-0.10534487664699554
129.37212600,129372126,-0.11013327538967133
129.38214400,129382144,-0.1149216815829277
129.39220400,129392204,-0.11013327538967133
129.40230900,129402309,-0.1149216815829277
129.41283000,129412830,-0.1149216815829277
129.42285400,129422854,-0.1149216815829277
129.43287600,129432876,-0.11971008777618408
129.44290300,129442903,-0.11971008777618408
129.45292400,129452924,-0.10534487664699554
129.46294300,129462943,-0.1149216815829277
129.47346700,129473467,-0.1149216815829277
129.48349200,129483492,-0.1149216815829277
129.49351800,129493518,-0.11971008777618408
129.50353900,129503539,-0.11013327538967133
129.51356400,129513564,-0.11013327538967133
129.52409200,129524092,-0.11013327538967133
129.53411200,129534112,-0.11971008777618408
129.54414100,129544141,-0.1149216815829277
129.55415800,129554158,-0.1149216815829277
129.56430200,129564302,-0.11971008777618408
129.57432900,129574329,-0.11013327538967133
129.58435700,129584357,-0.11971008777618408
129.59488200,129594882,-0.11971008777618408
129.60490600,129604906,-0.12928688526153564
129.61499400,129614994,-0.11013327538967133
129.62495200,129624952,-0.1149216815829277
129.63498000,129634980,-0.1149216815829277
129.64501000,129645010,-0.10534487664699554
129.65559500,129655595,-0.10534487664699554
129.66556300,129665563,-0.11971008777618408
129.67558300,129675583,-0.1149216815829277
129.68560800,129685608,-0.11013327538967133
129.69564000,129695640,-0.11013327538967133
129.70616300,129706163,-0.11971008777618408
129.71580800,129715808,-0.11013327538967133
129.72632900,129726329,-0.1149216815829277
129.73635400,129736354,-0.11013327538967133
129.74637700,129746377,-0.1149216815829277
129.75639900,129756399,-0.11971008777618408
129.76642400,129766424,-0.1149216815829277
129.77695900,129776959,-0.1149216815829277
129.78699000,129786990,-0.1149216815829277
129.79701300,129797013,-0.11971008777618408
129.80703700,129807037,-0.1149216815829277
129.81706100,129817061,-0.11013327538967133
129.82708300,129827083,-0.10534487664699554
129.83760700,129837607,-0.1149216815829277
129.84763200,129847632,-0.10055647045373917
129.85766300,129857663,-0.1149216815829277
129.86780500,129867805,-0.11971008777618408
129.87783000,129877830,-0.11971008777618408
129.88785700,129887857,-0.1149216815829277
129.89788200,129897882,-0.11013327538967133
129.90840600,129908406,-0.1149216815829277
129.91843000,129918430,-0.11013327538967133
129.92845400,129928454,-0.1149216815829277
129.93847800,129938478,-0.1149216815829277
129.94850300,129948503,-0.1149216815829277
129.95853900,129958539,-0.10534487664699554
129.96905700,129969057,-0.11013327538967133
129.97908400,129979084,-0.11013327538967133
129.98910600,129989106,-0.1149216815829277
129.99912800,129999128,-0.1149216815829277
130.00915300,130009153,-0.11013327538967133
130.01920100,130019201,-0.10534487664699554
130.02933600,130029336,-0.11013327538967133
130.03985500,130039855,-0.11013327538967133
130.04989000,130049890,-0.1149216815829277
130.05991400,130059914,-0.11971008777618408
130.06994300,130069943,-0.11013327538967133
130.07997300,130079973,-0.12449848651885986
130.09000000,130090000,-0.10534487664699554
130.10052800,130100528,-0.10534487664699554
130.11288700,130112887,-0.10534487664699554
130.12055100,130120551,-0.11971008777618408
130.13058000,130130580,-0.1149216815829277
130.14061000,130140610,-0.11013327538967133
130.15113100,130151131,-0.12449848651885986
130.16115000,130161150,-0.1149216815829277
130.17119900,130171199,-0.1149216815829277
130.18130600,130181306,-0.11013327538967133
130.19133000,130191330,-0.11971008777618408
130.20135500,130201355,-0.11971008777618408
130.21138300,130211383,-0.1149216815829277
130.22191100,130221911,-0.12449848651885986
130.23193300,130231933,-0.11013327538967133
130.24195800,130241958,-0.11013327538967133
130.25197800,130251978,-0.11013327538967133
130.26201600,130262016,-0.11971008777618408
130.27204900,130272049,-0.10534487664699554
130.28258100,130282581,-0.11971008777618408
130.29260700,130292607,-0.11013327538967133
130.30263900,130302639,-0.11971008777618408
130.31266500,130312665,-0.11013327538967133
130.32280300,130322803,-0.11013327538967133
130.33282500,130332825,-0.11013327538967133
130.34286000,130342860,-0.10534487664699554
130.35337500,130353375,-0.11971008777618408
130.36339700,130363397,-0.10534487664699554
130.37342100,130373421,-0.11971008777618408
130.38344200,130383442,-0.12928688526153564
130.39346800,130393468,-0.10534487664699554
130.40399300,130403993,-0.11971008777618408
130.41401800,130414018,-0.11971008777618408
130.42404200,130424042,-0.12449848651885986
130.43406200,130434062,-0.1149216815829277
130.44409000,130444090,-0.11013327538967133
130.45411300,130454113,-0.11971008777618408
130.46464200,130464642,-0.11013327538967133
130.47466400,130474664,-0.1149216815829277
130.48481200,130484812,-0.11013327538967133
130.49484300,130494843,-0.10534487664699554
130.50486800,130504868,-0.11971008777618408
130.51488700,130514887,-0.11013327538967133
130.52490900,130524909,-0.10534487664699554
130.53543400,130535434,-0.1149216815829277
130.54546100,130545461,-0.1149216815829277
130.55548500,130555485,-0.11971008777618408
130.56551700,130565517,-0.11971008777618408
130.57553800,130575538,-0.11013327538967133
130.58556300,130585563,-0.1149216815829277
130.59608600,130596086,-0.11971008777618408
130.60611600,130606116,-0.11971008777618408
130.61614000,130616140,-0.11971008777618408
130.62616500,130626165,-0.11013327538967133
130.63631600,130636316,-0.1149216815829277
130.64633800,130646338,-0.11971008777618408
130.65636700,130656367,-0.1149216815829277
130.66688900,130666889,-0.1149216815829277
130.67691700,130676917,-0.11013327538967133
130.68693700,130686937,-0.1149216815829277
130.69696100,130696961,-0.10534487664699554
130.70698700,130706987,-0.1149216815829277
130.71750800,130717508,-0.10534487664699554
130.72753400,130727534,-0.11013327538967133
130.73755900,130737559,-0.11971008777618408
130.74758300,130747583,-0.12449848651885986
130.75760600,130757606,-0.1149216815829277
130.76763100,130767631,-0.11013327538967133
130.77815600,130778156,-0.1149216815829277
130.78830400,130788304,-0.1149216815829277
130.79833200,130798332,-0.11013327538967133
130.80835500,130808355,-0.11971008777618408
130.81838000,130818380,-0.12928688526153564
130.82840300,130828403,-0.11013327538967133
130.83842700,130838427,-0.11013327538967133
130.84895400,130848954,-0.11971008777618408
130.85897500,130858975,-0.11971008777618408
130.86901000,130869010,-0.11013327538967133
130.87903300,130879033,-0.11013327538967133
130.88905200,130889052,-0.11971008777618408
130.89908300,130899083,-0.11971008777618408
130.90960600,130909606,-0.11971008777618408
130.91963400,130919634,-0.11013327538967133
130.92966200,130929662,-0.12449848651885986
130.93981600,130939816,-0.1149216815829277
130.94984100,130949841,-0.10055647045373917
130.95986500,130959865,-0.11971008777618408
130.96989100,130969891,-0.1149216815829277
130.98042200,130980422,-0.11971008777618408
130.99044000,130990440,-0.1149216815829277
131.00047000,131000470,-0.11013327538967133
131.01049300,131010493,-0.1149216815829277
131.02052100,131020521,-0.1149216815829277
131.03054700,131030547,-0.11971008777618408
131.04107200,131041072,-0.11971008777618408
131.05110400,131051104,-0.1149216815829277
131.06112900,131061129,-0.1149216815829277
131.07115000,131071150,-0.11013327538967133
131.08121000,131081210,-0.1149216815829277
131.09130500,131091305,-0.1149216815829277
131.10183800,131101838,-0.11971008777618408
131.11191000,131111910,-0.10534487664699554
131.12193400,131121934,-0.11013327538967133
131.13196700,131131967,-0.11971008777618408
131.14200100,131142001,-0.11013327538967133
131.15203200,131152032,-0.11013327538967133
131.16206100,131162061,-0.1149216815829277
131.17259100,131172591,-0.11971008777618408
131.18262500,131182625,-0.12449848651885986
131.19265200,131192652,-0.10534487664699554
131.20270700,131202707,-0.1149216815829277
131.21281400,131212814,-0.11013327538967133
131.22284200,131222842,-0.11013327538967133
131.23286400,131232864,-0.11013327538967133
131.24339000,131243390,-0.1149216815829277
131.25341500,131253415,-0.11971008777618408
131.26344100,131263441,-0.11013327538967133
131.27346700,131273467,-0.11971008777618408
131.28348800,131283488,-0.10534487664699554
131.29351000,131293510,-0.1149216815829277
131.30403700,131304037,-0.10534487664699554
131.31406200,131314062,-0.11971008777618408
131.32409500,131324095,-0.1149216815829277
131.33413100,131334131,-0.11971008777618408
131.34415300,131344153,-0.1149216815829277
131.35420900,131354209,-0.1149216815829277
131.36433800,131364338,-0.1149216815829277
131.37486600,131374866,-0.11013327538967133
131.38488800,131384888,-0.11013327538967133
131.39490900,131394909,-0.1149216815829277
131.40493300,131404933,-0.11971008777618408
131.41496300,131414963,-0.12449848651885986
131.42498300,131424983,-0.11971008777618408
131.43550900,131435509,-0.1149216815829277
131.44553400,131445534,-0.11013327538967133
131.45556200,131455562,-0.11971008777618408
131.46559500,131465595,-0.11971008777618408
131.47561700,131475617,-0.11013327538967133
131.48613800,131486138,-0.11971008777618408
131.49616500,131496165,-0.1149216815829277
131.50630700,131506307,-0.11013327538967133
131.51633000,131516330,-0.11013327538967133
131.52635200,131526352,-0.11971008777618408
131.53637700,131536377,-0.1149216815829277
131.54640000,131546400,-0.1149216815829277
131.55692700,131556927,-0.1149216815829277
131.56695500,131566955,-0.1149216815829277
131.57697600,131576976,-0.11013327538967133
131.58700000,131587000,-0.11013327538967133
131.59702500,131597025,-0.1149216815829277
131.60705700,131607057,-0.11013327538967133
131.61758100,131617581,-0.11971008777618408
131.62760200,131627602,-0.1149216815829277
131.63762300,131637623,-0.11971008777618408
131.64764900,131647649,-0.11013327538967133
131.65770200,131657702,-0.10534487664699554
131.66780200,131667802,-0.1149216815829277
131.67782800,131677828,-0.1149216815829277
131.68835100,131688351,-0.11971008777618408
131.69837600,131698376,-0.11971008777618408
131.70840300,131708403,-0.11013327538967133
131.71842700,131718427,-0.1149216815829277
131.72844800,131728448,-0.1149216815829277
131.73897100,131738971,-0.10534487664699554
131.74899600,131748996,-0.1149216815829277
131.75902500,131759025,-0.11013327538967133
131.76905300,131769053,-0.11971008777618408
131.77907600,131779076,-0.11971008777618408
131.78910500,131789105,-0.1149216815829277
131.79962800,131799628,-0.11013327538967133
131.80965700,131809657,-0.11971008777618408
131.81980400,131819804,-0.11013327538967133
131.82983400,131829834,-0.12449848651885986
131.83986100,131839861,-0.11971008777618408
131.84988800,131849888,-0.10534487664699554
131.85991000,131859910,-0.11971008777618408
131.87043400,131870434,-0.11971008777618408
131.88045400,131880454,-0.12449848651885986
131.89047700,131890477,-0.12449848651885986
131.90050800,131900508,-0.11971008777618408
131.91053600,131910536,-0.11971008777618408
131.92056900,131920569,-0.12928688526153564
131.93109700,131931097,-0.1149216815829277
131.94111500,131941115,-0.1149216815829277
131.95114100,131951141,-0.11971008777618408
131.96116600,131961166,-0.11013327538967133
131.97130300,131971303,-0.11013327538967133
131.98133000,131981330,-0.11013327538967133
131.99135300,131991353,-0.11971008777618408
132.00188600,132001886,-0.1149216815829277
132.01191800,132011918,-0.1149216815829277
132.02195300,132021953,-0.11971008777618408
132.03197900,132031979,-0.11971008777618408
132.04200300,132042003,-0.11971008777618408
132.05202800,132052028,-0.1149216815829277
132.06255500,132062555,-0.1149216815829277
132.07257500,132072575,-0.1149216815829277
132.08260000,132082600,-0.1149216815829277
132.09268600,132092686,-0.1149216815829277
132.10264600,132102646,-0.1149216815829277
132.11317300,132113173,-0.1149216815829277
132.12330800,132123308,-0.1149216815829277
132.13333500,132133335,-0.11971008777618408
132.14335900,132143359,-0.10534487664699554
132.15337900,132153379,-0.12449848651885986
132.16341000,132163410,-0.11971008777618408
132.17343600,132173436,-0.11013327538967133
132.18395900,132183959,-0.1149216815829277
132.19398400,132193984,-0.1149216815829277
132.20400600,132204006,-0.11971008777618408
132.21403200,132214032,-0.11013327538967133
132.22405900,132224059,-0.11013327538967133
132.23409000,132234090,-0.12928688526153564
132.25461900,132254619,-0.11013327538967133
132.27466000,132274660,-0.1149216815829277
132.29522300,132295223,-0.11971008777618408
132.31531200,132315312,-0.1149216815829277
132.33534200,132335342,-0.11013327538967133
132.35586400,132355864,-0.11971008777618408
132.37589000,132375890,-0.11013327538967133
132.39591500,132395915,-0.11971008777618408
132.41644000,132416440,-0.11013327538967133
132.43646500,132436465,-0.10534487664699554
132.45699800,132456998,-0.11971008777618408
132.47701500,132477015,-0.11013327538967133
132.49704100,132497041,-0.1149216815829277
132.51756500,132517565,-0.11971008777618408
132.53758800,132537588,-0.11971008777618408
132.55811800,132558118,-0.1149216815829277
132.57814100,132578141,-0.11013327538967133
132.59816900,132598169,-0.11013327538967133
132.61880400,132618804,-0.11971008777618408
132.63882900,132638829,-0.11013327538967133
132.65884900,132658849,-0.11013327538967133
132.67937400,132679374,-0.1149216815829277
132.69939200,132699392,-0.11013327538967133
132.71992200,132719922,-0.11971008777618408
132.73995300,132739953,-0.10534487664699554
132.75998700,132759987,-0.11013327538967133
132.78051000,132780510,-0.1149216815829277
132.80053000,132800530,-0.11971008777618408
132.82106000,132821060,-0.11013327538967133
132.84108400,132841084,-0.1149216815829277
132.86110600,132861106,-0.1149216815829277
132.88164000,132881640,-0.10055647045373917
132.90166300,132901663,-0.1149216815829277
132.92181700,132921817,-0.1149216815829277
132.94233900,132942339,-0.1149216815829277
132.96236400,132962364,-0.11971008777618408
132.98288500,132982885,-0.1149216815829277
133.00290700,133002907,-0.11013327538967133
133.02293500,133022935,-0.11013327538967133
133.04345400,133043454,-0.11971008777618408
133.06347900,133063479,-0.11013327538967133
133.08400300,133084003,-0.12449848651885986
133.10403700,133104037,-0.11971008777618408
133.12406000,133124060,-0.12449848651885986
133.14458200,133144582,-0.1149216815829277
133.16461100,133164611,-0.10534487664699554
133.18513400,133185134,-0.11013327538967133
133.20517100,133205171,-0.11971008777618408
133.22531500,133225315,-0.11013327538967133
133.24583700,133245837,-0.1149216815829277
133.26586000,133265860,-0.11971008777618408
133.28588700,133285887,-0.10534487664699554
133.30640700,133306407,-0.10534487664699554
133.32643500,133326435,-0.11971008777618408
133.34696800,133346968,-0.1149216815829277
133.36700200,133367002,-0.1149216815829277
133.38702300,133387023,-0.10534487664699554
133.40755900,133407559,-0.11971008777618408
133.42758600,133427586,-0.1149216815829277
133.44811300,133448113,-0.11013327538967133
133.46813900,133468139,-0.1149216815829277
133.48817000,133488170,-0.11013327538967133
133.50880500,133508805,-0.11971008777618408
133.52882600,133528826,-0.11013327538967133
133.54885200,133548852,-0.11971008777618408
133.56937800,133569378,-0.11013327538967133
133.58940400,133589404,-0.11013327538967133
133.60993200,133609932,-0.11013327538967133
133.62995500,133629955,-0.11971008777618408
133.64998000,133649980,-0.11013327538967133
133.67050600,133670506,-0.1149216815829277
133.69053100,133690531,-0.1149216815829277
133.71105400,133711054,-0.1149216815829277
133.73108800,133731088,-0.11971008777618408
133.75111300,133751113,-0.11013327538967133
133.77164800,133771648,-0.11013327538967133
133.79170800,133791708,-0.11971008777618408
133.81180700,133811807,-0.11971008777618408
133.83233700,133832337,-0.12449848651885986
133.85236000,133852360,-0.1149216815829277
133.87289000,133872890,-0.11971008777618408
133.89291600,133892916,-0.1149216815829277
133.91294000,133912940,-0.11971008777618408
133.93346300,133933463,-0.11013327538967133
133.95348700,133953487,-0.11013327538967133
133.97401800,133974018,-0.10534487664699554
133.99404600,133994046,-0.11971008777618408
134.01406500,134014065,-0.1149216815829277
134.03458900,134034589,-0.1149216815829277
134.05461100,134054611,-0.11971008777618408
134.07514000,134075140,-0.11971008777618408
134.09516500,134095165,-0.11971008777618408
134.11530400,134115304,-0.1149216815829277
134.13583300,134135833,-0.11013327538967133
134.15586300,134155863,-0.10055647045373917
134.17588600,134175886,-0.11013327538967133
134.19641200,134196412,-0.11971008777618408
134.21643800,134216438,-0.11971008777618408
134.23696600,134236966,-0.10534487664699554
134.25699500,134256995,-0.11013327538967133
134.27702700,134277027,-0.1149216815829277
134.29755300,134297553,-0.11013327538967133
134.31757700,134317577,-0.11013327538967133
134.33810200,134338102,-0.11013327538967133
134.35812400,134358124,-0.11971008777618408
134.37815300,134378153,-0.11971008777618408
134.39881600,134398816,-0.10534487664699554
134.41883500,134418835,-0.1149216815829277
134.43885900,134438859,-0.11013327538967133
134.45938500,134459385,-0.1149216815829277
134.47941600,134479416,-0.11013327538967133
134.49994500,134499945,-0.11013327538967133
134.51997000,134519970,-0.1149216815829277
134.53999700,134539997,-0.11971008777618408
134.56052300,134560523,-0.11013327538967133
134.58054400,134580544,-0.11971008777618408
134.60106700,134601067,-0.1149216815829277
134.62109100,134621091,-0.11013327538967133
134.64112400,134641124,-0.11013327538967133
134.66164400,134661644,-0.11971008777618408
134.68166700,134681667,-0.1149216815829277
134.70190300,134701903,-0.11971008777618408
134.72242700,134722427,-0.11971008777618408
134.74245000,134742450,-0.11013327538967133
134.76247300,134762473,-0.10534487664699554
134.78299900,134782999,-0.11013327538967133
134.80302400,134803024,-0.11013327538967133
134.82355500,134823555,-0.1149216815829277
134.84357800,134843578,-0.1149216815829277
134.86367200,134863672,-0.11971008777618408
134.88412900,134884129,-0.11013327538967133
134.90415800,134904158,-0.11971008777618408
134.92480400,134924804,-0.11013327538967133
134.94483200,134944832,-0.1149216815829277
134.96485100,134964851,-0.1149216815829277
134.98537900,134985379,-0.10534487664699554
135.00540200,135005402,-0.11013327538967133
135.02542700,135025427,-0.1149216815829277
135.04595000,135045950,-0.11013327538967133
135.06597700,135065977,-0.1149216815829277
135.08650400,135086504,-0.11013327538967133
135.10653000,135106530,-0.11971008777618408
135.12655600,135126556,-0.10534487664699554
135.14708300,135147083,-0.11013327538967133
135.16710400,135167104,-0.12449848651885986
135.18763400,135187634,-0.12449848651885986
135.20765200,135207652,-0.11971008777618408
135.22780300,135227803,-0.12449848651885986
135.24833000,135248330,-0.11971008777618408
135.26841000,135268410,-0.12928688526153564
135.28838300,135288383,-0.1149216815829277
135.30890800,135308908,-0.1149216815829277
135.32893200,135328932,-0.1149216815829277
135.34945500,135349455,-0.10534487664699554
135.36950300,135369503,-0.11013327538967133
135.38950500,135389505,-0.12449848651885986
135.41002700,135410027,-0.11013327538967133
135.43005400,135430054,-0.11971008777618408
135.45057800,135450578,-0.1149216815829277
135.47060600,135470606,-0.1149216815829277
135.49113100,135491131,-0.11013327538967133
135.51115600,135511156,-0.11013327538967133
135.53131500,135531315,-0.10534487664699554
135.55135000,135551350,-0.11013327538967133
135.57189900,135571899,-0.11013327538967133
135.59190500,135591905,-0.11971008777618408
135.61243000,135612430,-0.1149216815829277
135.63245600,135632456,-0.10055647045373917
135.65248200,135652482,-0.1149216815829277
135.67300600,135673006,-0.11971008777618408
135.69303200,135693032,-0.1149216815829277
135.71355200,135713552,-0.10534487664699554
135.73357800,135733578,-0.1149216815829277
135.75361200,135753612,-0.1149216815829277
135.77414100,135774141,-0.11971008777618408
135.79416900,135794169,-0.11013327538967133
135.81430600,135814306,-0.1149216815829277
135.83485700,135834857,-0.11971008777618408
135.85488200,135854882,-0.1149216815829277
135.87540900,135875409,-0.1149216815829277
135.89543700,135895437,-0.11013327538967133
135.91545500,135915455,-0.11971008777618408
135.93598200,135935982,-0.1149216815829277
135.95600700,135956007,-0.1149216815829277
135.97653400,135976534,-0.11013327538967133
135.99655700,135996557,-0.11971008777618408
136.01658100,136016581,-0.11971008777618408
136.03711700,136037117,-0.11971008777618408
136.05714000,136057140,-0.11971008777618408
136.07766100,136077661,-0.11971008777618408
136.09783300,136097833,-0.11013327538967133
136.11785500,136117855,-0.10534487664699554
136.13838300,136138383,-0.1149216815829277
136.15840300,136158403,-0.11971008777618408
136.17842900,136178429,-0.1149216815829277
136.19895400,136198954,-0.11013327538967133
136.21898000,136218980,-0.1149216815829277
136.23950900,136239509,-0.11013327538967133
136.25959400,136259594,-0.10534487664699554
136.27955200,136279552,-0.11971008777618408
136.30009100,136300091,-0.1149216815829277
136.32010900,136320109,-0.1149216815829277
136.34063100,136340631,-0.11971008777618408
136.36066200,136360662,-0.1149216815829277
136.38080100,136380801,-0.1149216815829277
136.40132400,136401324,-0.10055647045373917
136.42134600,136421346,-0.1149216815829277
136.44137400,136441374,-0.12449848651885986
136.46196800,136461968,-0.11971008777618408
136.48196000,136481960,-0.11013327538967133
136.50247400,136502474,-0.1149216815829277
136.52249400,136522494,-0.11971008777618408
136.54257800,136542578,-0.1149216815829277
136.56304300,136563043,-0.11971008777618408
136.58306600,136583066,-0.12449848651885986
136.60359100,136603591,-0.11013327538967133
136.62361800,136623618,-0.11013327538967133
136.64364000,136643640,-0.1149216815829277
136.66416500,136664165,-0.1149216815829277
136.68434200,136684342,-0.11971008777618408
136.70437900,136704379,-0.11013327538967133
136.72490400,136724904,-0.12449848651885986
136.74492400,136744924,-0.1149216815829277
136.76495100,136764951,-0.11013327538967133
136.78547300,136785473,-0.1149216815829277
136.80550000,136805500,-0.1149216815829277
136.82602200,136826022,-0.11013327538967133
136.84605000,136846050,-0.1149216815829277
136.86657500,136866575,-0.11971008777618408
136.88660100,136886601,-0.1149216815829277
136.90665700,136906657,-0.11971008777618408
136.92715100,136927151,-0.10534487664699554
136.94721500,136947215,-0.1149216815829277
136.96730200,136967302,-0.1149216815829277
136.98782600,136987826,-0.1149216815829277
137.00785400,137007854,-0.11971008777618408
137.02837800,137028378,-0.10055647045373917
137.04840800,137048408,-0.11013327538967133
137.06843600,137068436,-0.11013327538967133
137.08895900,137088959,-0.1149216815829277
137.10899100,137108991,-0.11971008777618408
137.12951600,137129516,-0.1149216815829277
137.14954000,137149540,-0.10534487664699554
137.16956500,137169565,-0.11013327538967133
137.19008600,137190086,-0.11013327538967133
137.21011300,137210113,-0.1149216815829277
137.23063600,137230636,-0.11971008777618408
137.25066000,137250660,-0.12449848651885986
137.29130300,137291303,-0.1149216815829277
137.33133300,137331333,-0.11971008777618408
137.37189900,137371899,-0.11013327538967133
137.41242400,137412424,-0.11013327538967133
137.45294700,137452947,-0.11013327538967133
137.49347000,137493470,-0.1149216815829277
137.53399800,137533998,-0.1149216815829277
137.57452400,137574524,-0.11013327538967133
137.61454600,137614546,-0.11971008777618408
137.65507800,137655078,-0.1149216815829277
137.69560300,137695603,-0.1149216815829277
137.73612500,137736125,-0.10534487664699554
137.77664700,137776647,-0.1149216815829277
137.81718600,137817186,-0.1149216815829277
137.85736400,137857364,-0.11971008777618408
137.89783200,137897832,-0.11013327538967133
137.93835600,137938356,-0.11971008777618408
137.97887900,137978879,-0.1149216815829277
138.01940200,138019402,-0.11971008777618408
138.05992800,138059928,-0.10534487664699554
138.09995500,138099955,-0.11971008777618408
138.14047900,138140479,-0.11013327538967133
138.18106200,138181062,-0.11971008777618408
138.22152600,138221526,-0.1149216815829277
138.26205400,138262054,-0.1149216815829277
138.30257600,138302576,-0.11013327538967133
138.34310100,138343101,-0.11971008777618408
138.38312500,138383125,-0.11013327538967133
138.42364700,138423647,-0.1149216815829277
138.46420700,138464207,-0.1149216815829277
138.50484300,138504843,-0.10534487664699554
138.54536500,138545365,-0.11971008777618408
138.58539100,138585391,-0.1149216815829277
138.62597400,138625974,-0.1149216815829277
138.66644400,138666444,-0.1149216815829277
138.70696700,138706967,-0.11971008777618408
138.74748700,138747487,-0.1149216815829277
138.79166300,138791663,-0.1149216815829277
138.82813000,138828130,-0.12449848651885986
138.86865500,138868655,-0.11971008777618408
138.90933800,138909338,-0.11971008777618408
138.94986200,138949862,-0.11013327538967133
138.99038300,138990383,-0.11013327538967133
139.03041000,139030410,-0.1149216815829277
139.07093100,139070931,-0.11013327538967133
139.11145600,139111456,-0.1149216815829277
139.15199000,139151990,-0.11013327538967133
139.19251300,139192513,-0.11013327538967133
139.23304300,139233043,-0.1149216815829277
139.27356900,139273569,-0.11971008777618408
139.31359700,139313597,-0.11971008777618408
139.35411900,139354119,-0.11971008777618408
139.39464500,139394645,-0.1149216815829277
139.43516900,139435169,-0.1149216815829277
139.47580500,139475805,-0.1149216815829277
139.51633000,139516330,-0.11971008777618408
139.55636600,139556366,-0.11013327538967133
139.59689400,139596894,-0.1149216815829277
139.63741500,139637415,-0.1149216815829277
139.67799600,139677996,-0.11013327538967133
139.71846100,139718461,-0.1149216815829277
139.75898600,139758986,-0.1149216815829277
139.79950700,139799507,-0.11971008777618408
139.83953900,139839539,-0.1149216815829277
139.88006300,139880063,-0.11971008777618408
139.92058700,139920587,-0.11013327538967133
139.96111400,139961114,-0.11971008777618408
140.00163800,140001638,-0.12449848651885986
140.04216100,140042161,-0.11971008777618408
140.08230600,140082306,-0.1149216815829277
140.12283400,140122834,-0.11971008777618408
140.16335900,140163359,-0.11971008777618408
140.20388300,140203883,-0.10534487664699554
140.24441300,140244413,-0.12449848651885986
140.28496100,140284961,-0.11013327538967133
140.32498200,140324982,-0.11013327538967133
140.36550700,140365507,-0.10534487664699554
140.40603500,140406035,-0.11013327538967133
140.44656000,140446560,-0.1149216815829277
140.48708100,140487081,-0.11013327538967133
140.52760400,140527604,-0.1149216815829277
140.56812800,140568128,-0.1149216815829277
140.60815100,140608151,-0.1149216815829277
140.64870700,140648707,-0.11971008777618408
140.68930300,140689303,-0.1149216815829277
140.72982400,140729824,-0.11971008777618408
140.77034800,140770348,-0.1149216815829277
140.81087200,140810872,-0.11971008777618408
140.85089600,140850896,-0.11971008777618408
140.89141800,140891418,-0.11013327538967133
140.93200100,140932001,-0.10534487664699554
140.97247100,140972471,-0.11971008777618408
141.01299700,141012997,-0.12928688526153564
141.05351700,141053517,-0.1149216815829277
141.09404300,141094043,-0.1149216815829277
141.13407100,141134071,-0.11971008777618408
141.17459700,141174597,-0.11971008777618408
141.21512100,141215121,-0.10055647045373917
141.25564500,141255645,-0.11013327538967133
141.29616600,141296166,-0.11013327538967133
141.33630300,141336303,-0.1149216815829277
141.37682600,141376826,-0.11971008777618408
141.41734900,141417349,-0.11013327538967133
141.45787200,141457872,-0.11013327538967133
141.49839700,141498397,-0.1149216815829277
141.53892000,141538920,-0.11013327538967133
141.57945000,141579450,-0.1149216815829277
141.61947200,141619472,-0.10534487664699554
141.65999300,141659993,-0.11971008777618408
141.70051400,141700514,-0.11971008777618408
141.74104100,141741041,-0.12449848651885986
141.78156200,141781562,-0.12449848651885986
141.82208700,141822087,-0.11013327538967133
141.86261300,141862613,-0.11971008777618408
141.90313700,141903137,-0.1149216815829277
141.94321900,141943219,-0.11971008777618408
141.98381200,141983812,-0.11013327538967133
142.02433600,142024336,-0.1149216815829277
142.06485900,142064859,-0.1149216815829277
142.10538400,142105384,-0.11013327538967133
142.14541000,142145410,-0.11971008777618408
142.18593200,142185932,-0.11971008777618408
142.22645500,142226455,-0.10534487664699554
142.30748200,142307482,-0.1149216815829277
142.38850200,142388502,-0.11013327538967133
142.46907600,142469076,-0.1149216815829277
142.55005600,142550056,-0.10055647045373917
142.63108000,142631080,-0.1149216815829277
142.71210400,142712104,-0.11013327538967133
142.79312600,142793126,-0.1149216815829277
142.87366100,142873661,-0.11013327538967133
142.95480500,142954805,-0.11013327538967133
143.03582800,143035828,-0.12449848651885986
143.11635100,143116351,-0.10534487664699554
143.19737600,143197376,-0.11971008777618408
143.27840000,143278400,-0.11971008777618408
143.35942400,143359424,-0.11013327538967133
143.43994600,143439946,-0.1149216815829277
143.52097000,143520970,-0.11013327538967133
143.60199800,143601998,-0.11971008777618408
143.68301900,143683019,-0.1149216815829277
143.76353800,143763538,-0.11013327538967133
143.84456700,143844567,-0.11013327538967133
143.92558900,143925589,-0.1149216815829277
144.00661400,144006614,-0.1149216815829277
144.08763500,144087635,-0.1149216815829277
144.16815800,144168158,-0.11013327538967133
144.24931400,144249314,-0.11013327538967133
144.33033700,144330337,-0.11013327538967133
144.41085900,144410859,-0.1149216815829277
144.49188700,144491887,-0.1149216815829277
144.57290700,144572907,-0.1149216815829277
144.65393800,144653938,-0.11971008777618408
144.73449700,144734497,-0.11971008777618408
144.81549000,144815490,-0.1149216815829277
144.89652300,144896523,-0.11013327538967133
144.97754800,144977548,-0.1149216815829277
145.05807300,145058073,-0.11013327538967133
145.13911800,145139118,-0.11013327538967133
145.22014200,145220142,-0.12449848651885986
145.30116700,145301167,-0.11013327538967133
145.38187500,145381875,-0.1149216815829277
145.46289400,145462894,-0.10534487664699554
145.54392500,145543925,-0.11013327538967133
145.62446500,145624465,-0.11013327538967133
145.70548400,145705484,-0.11971008777618408
145.78651900,145786519,-0.1149216815829277
145.86754400,145867544,-0.1149216815829277
145.94806300,145948063,-0.1149216815829277
146.02909500,146029095,-0.11013327538967133
146.11011900,146110119,-0.11013327538967133
146.19114300,146191143,-0.11971008777618408
146.27216900,146272169,-0.1149216815829277
146.35285500,146352855,-0.11971008777618408
146.43392100,146433921,-0.11971008777618408
146.51445100,146514451,-0.11013327538967133
146.59547200,146595472,-0.11013327538967133
146.67650500,146676505,-0.11971008777618408
146.75753300,146757533,-0.1149216815829277
146.83855300,146838553,-0.11013327538967133
146.91909100,146919091,-0.1149216815829277
147.00010500,147000105,-0.11013327538967133
147.08112800,147081128,-0.11971008777618408
147.16215700,147162157,-0.11013327538967133
147.24287000,147242870,-0.11013327538967133
147.25190200,147251902,-0.10055647045373917
147.25243000,147252430,-0.10534487664699554
147.25294700,147252947,-0.1149216815829277
147.25348000,147253480,-0.1149216815829277
147.25401500,147254015,-0.1149216815829277
147.25456400,147254564,-0.1149216815829277
147.25509600,147255096,-0.1149216815829277
147.25561200,147255612,-0.11971008777618408
147.25613900,147256139,-0.12449848651885986
147.25667100,147256671,-0.11971008777618408
147.25734000,147257340,-0.11013327538967133
147.25736200,147257362,-0.11013327538967133
147.25785400,147257854,-0.1149216815829277
147.25839100,147258391,-0.11971008777618408
147.25892400,147258924,-0.11971008777618408
147.25945300,147259453,-0.11971008777618408
147.25998600,147259986,-0.11971008777618408
147.26050400,147260504,-0.11971008777618408
147.26104100,147261041,-0.1149216815829277
147.26158200,147261582,-0.1149216815829277
147.26209700,147262097,-0.11013327538967133
147.26262000,147262620,-0.10534487664699554
147.26314200,147263142,-0.10055647045373917
147.26366900,147263669,-0.10055647045373917
147.26434600,147264346,-0.10055647045373917
147.26489700,147264897,-0.10534487664699554
147.26492200,147264922,-0.1149216815829277
147.26539300,147265393,-0.11971008777618408
147.26592300,147265923,-0.11971008777618408
147.26645200,147266452,-0.12449848651885986
147.26698500,147266985,-0.11971008777618408
147.26750600,147267506,-0.1149216815829277
147.26802700,147268027,-0.1149216815829277
147.26855400,147268554,-0.11971008777618408
147.26909400,147269094,-0.12449848651885986
147.26962000,147269620,-0.11971008777618408
147.27014300,147270143,-0.1149216815829277
147.27066600,147270666,-0.1149216815829277
147.27141200,147271412,-0.1149216815829277
147.27200200,147272002,-0.1149216815829277
147.27203300,147272033,-0.11971008777618408
147.27250100,147272501,-0.1149216815829277
147.27302200,147273022,-0.1149216815829277
147.27355200,147273552,-0.11013327538967133
147.27408900,147274089,-0.11013327538967133
147.27461600,147274616,-0.1149216815829277
147.27514000,147275140,-0.1149216815829277
147.27566400,147275664,-0.11013327538967133
147.27630300,147276303,-0.1149216815829277
147.27688800,147276888,-0.11971008777618408
147.27741600,147277416,-0.12449848651885986
147.27793600,147277936,-0.11971008777618408
147.27846900,147278469,-0.1149216815829277
147.27900100,147279001,-0.11013327538967133
147.27955700,147279557,-0.10534487664699554
147.27957900,147279579,-0.10055647045373917
147.28005600,147280056,-0.10534487664699554
147.28057700,147280577,-0.11013327538967133
147.28110700,147281107,-0.11013327538967133
147.28165000,147281650,-0.1149216815829277
147.28226500,147282265,-0.1149216815829277
147.28286000,147282860,-0.1149216815829277
147.28338700,147283387,-0.11971008777618408
147.28392600,147283926,-0.12449848651885986
147.28446000,147284460,-0.12449848651885986
147.28498500,147284985,-0.11971008777618408
147.28550700,147285507,-0.11971008777618408
147.28603000,147286030,-0.1149216815829277
147.28658000,147286580,-0.1149216815829277
147.28709000,147287090,-0.11971008777618408
147.28764200,147287642,-0.11971008777618408
147.28766600,147287666,-0.11971008777618408
147.28813900,147288139,-0.1149216815829277
147.28866200,147288662,-0.1149216815829277
147.28934100,147289341,-0.1149216815829277
147.28986800,147289868,-0.1149216815829277
147.29039500,147290395,-0.11013327538967133
147.29092200,147290922,-0.1149216815829277
147.29145100,147291451,-0.11971008777618408
147.29198200,147291982,-0.11971008777618408
147.29251000,147292510,-0.1149216815829277
147.29302800,147293028,-0.11013327538967133
147.29355300,147293553,-0.10534487664699554
147.29408800,147294088,-0.11013327538967133
147.29461200,147294612,-0.1149216815829277
147.29513900,147295139,-0.1149216815829277
147.29566500,147295665,-0.1149216815829277
147.29644500,147296445,-0.11013327538967133
147.29646800,147296468,-0.10055647045373917
147.29694900,147296949,-0.09576806426048279
147.29747100,147297471,-0.10534487664699554
147.29799300,147297993,-0.1149216815829277
147.29852400,147298524,-0.11971008777618408
147.29905400,147299054,-0.12449848651885986
147.29958300,147299583,-0.12928688526153564
147.30010800,147300108,-0.12928688526153564
147.30063000,147300630,-0.11971008777618408
147.30115900,147301159,-0.11013327538967133
147.30190000,147301900,-0.10534487664699554
147.30192300,147301923,-0.10055647045373917
147.30239800,147302398,-0.11013327538967133
147.30291900,147302919,-0.11013327538967133
147.30344000,147303440,-0.11013327538967133
147.30397100,147303971,-0.11013327538967133
147.30450200,147304502,-0.11013327538967133
147.30502600,147305026,-0.1149216815829277
147.30554500,147305545,-0.1149216815829277
147.30606900,147306069,-0.11971008777618408
147.30661300,147306613,-0.11971008777618408
147.30713300,147307133,-0.11013327538967133
147.30766000,147307660,-0.11013327538967133
147.30833200,147308332,-0.10534487664699554
147.30894500,147308945,-0.10055647045373917
147.30896700,147308967,-0.10534487664699554
147.30945500,147309455,-0.1149216815829277
147.30998300,147309983,-0.11971008777618408
147.31049900,147310499,-0.11971008777618408
147.31102700,147311027,-0.12449848651885986
147.31156900,147311569,-0.12928688526153564
147.31208600,147312086,-0.12928688526153564
147.31261100,147312611,-0.12928688526153564
147.31313500,147313135,-0.12928688526153564
147.31365800,147313658,-0.12928688526153564
147.31437500,147314375,-0.12928688526153564
147.31490000,147314900,-0.12928688526153564
147.31544500,147315445,-0.12449848651885986
147.31546600,147315466,-0.12449848651885986
147.31595100,147315951,-0.13407529890537262
147.31648700,147316487,-0.1388636976480484
147.31701500,147317015,-0.13407529890537262
147.31754100,147317541,-0.12928688526153564
147.31806300,147318063,-0.12449848651885986
147.31858700,147318587,-0.1149216815829277
147.31912300,147319123,-0.11013327538967133
147.31964800,147319648,-0.10055647045373917
147.32017000,147320170,-0.10534487664699554
147.32085500,147320855,-0.1149216815829277
147.32142000,147321420,-0.1149216815829277
147.32195200,147321952,-0.11971008777618408
147.32248000,147322480,-0.11971008777618408
147.32299800,147322998,-0.11971008777618408
147.32355300,147323553,-0.11971008777618408
147.32357300,147323573,-0.11971008777618408
147.32407700,147324077,-0.11971008777618408
147.32459200,147324592,-0.12449848651885986
147.32511600,147325116,-0.12449848651885986
147.32563600,147325636,-0.12449848651885986
147.32616600,147326166,-0.11971008777618408
147.32687500,147326875,-0.11971008777618408
147.32739800,147327398,-0.11971008777618408
147.32792300,147327923,-0.11971008777618408
147.32845400,147328454,-0.12449848651885986
147.32898200,147328982,-0.12928688526153564
147.32951400,147329514,-0.12449848651885986
147.33003800,147330038,-0.1149216815829277
147.33056000,147330560,-0.11013327538967133
147.33108500,147331085,-0.11013327538967133
147.33165200,147331652,-0.11013327538967133
147.33167400,147331674,-0.10534487664699554
147.33215000,147332150,-0.10055647045373917
147.33276700,147332767,-0.10055647045373917
147.33335800,147333358,-0.10534487664699554
147.33391700,147333917,-0.11013327538967133
147.33445200,147334452,-0.1149216815829277
147.33497800,147334978,-0.11013327538967133
147.33550100,147335501,-0.11013327538967133
147.33602500,147336025,-0.1149216815829277
147.33655600,147336556,-0.11971008777618408
147.33708400,147337084,-0.11971008777618408
147.33760900,147337609,-0.11971008777618408
147.33813100,147338131,-0.11971008777618408
147.33865800,147338658,-0.11013327538967133
147.33938000,147339380,-0.10534487664699554
147.33940600,147339406,-0.11013327538967133
147.33987300,147339873,-0.1149216815829277
147.34039600,147340396,-0.1149216815829277
147.34092300,147340923,-0.1149216815829277
147.34144900,147341449,-0.1149216815829277
147.34198300,147341983,-0.11971008777618408
147.34250300,147342503,-0.11971008777618408
147.34302500,147343025,-0.1149216815829277
147.34355300,147343553,-0.11013327538967133
147.34409000,147344090,-0.11013327538967133
147.34461200,147344612,-0.11013327538967133
147.34513900,147345139,-0.11013327538967133
147.34566400,147345664,-0.10534487664699554
147.34644200,147346442,-0.10055647045373917
147.34646500,147346465,-0.10055647045373917
147.34694900,147346949,-0.10055647045373917
147.34747100,147347471,-0.11013327538967133
147.34799100,147347991,-0.1149216815829277
147.34851900,147348519,-0.11013327538967133
147.34904800,147349048,-0.11013327538967133
147.34957800,147349578,-0.1149216815829277
147.35010200,147350102,-0.11971008777618408
147.35062400,147350624,-0.1149216815829277
147.35115000,147351150,-0.11013327538967133
147.35176500,147351765,-0.11013327538967133
147.35239400,147352394,-0.1149216815829277
147.35241500,147352415,-0.1149216815829277
147.35288700,147352887,-0.12449848651885986
147.35342100,147353421,-0.12928688526153564
147.35395000,147353950,-0.12928688526153564
147.35448700,147354487,-0.12449848651885986
147.35500900,147355009,-0.1149216815829277
147.35553500,147355535,-0.11013327538967133
147.35606100,147356061,-0.10534487664699554
147.35659200,147356592,-0.10534487664699554
147.35712100,147357121,-0.1149216815829277
147.35764600,147357646,-0.11971008777618408
147.35816600,147358166,-0.1149216815829277
147.35887100,147358871,-0.11013327538967133
147.35940300,147359403,-0.10534487664699554
147.35994900,147359949,-0.10055647045373917
147.35997200,147359972,-0.10055647045373917
147.36044500,147360445,-0.10534487664699554
147.36097200,147360972,-0.10534487664699554
147.36150400,147361504,-0.11013327538967133
147.36203000,147362030,-0.1149216815829277
147.36255500,147362555,-0.11971008777618408
147.36307700,147363077,-0.12449848651885986
147.36360200,147363602,-0.11971008777618408
147.36414800,147364148,-0.1149216815829277
147.36472600,147364726,-0.1149216815829277
147.36536100,147365361,-0.1149216815829277
147.36588900,147365889,-0.11013327538967133
147.36642800,147366428,-0.11013327538967133
147.36699500,147366995,-0.1149216815829277
147.36748900,147367489,-0.1149216815829277
147.36803700,147368037,-0.1149216815829277
147.36805800,147368058,-0.1149216815829277
147.36855000,147368550,-0.11013327538967133
147.36908100,147369081,-0.10534487664699554
147.36960700,147369607,-0.11013327538967133
147.37013200,147370132,-0.1149216815829277
147.37065400,147370654,-0.11971008777618408
147.37138800,147371388,-0.1149216815829277
147.37188800,147371888,-0.10534487664699554
147.37241400,147372414,-0.10534487664699554
147.37293200,147372932,-0.11013327538967133
147.37345900,147373459,-0.11013327538967133
147.37399000,147373990,-0.1149216815829277
147.37452900,147374529,-0.11013327538967133
147.37504800,147375048,-0.10534487664699554
147.37557100,147375571,-0.10534487664699554
147.37609400,147376094,-0.10534487664699554
147.37666800,147376668,-0.10534487664699554
147.37669000,147376690,-0.11013327538967133
147.37717000,147377170,-0.11971008777618408
147.37786000,147377860,-0.11971008777618408
147.37838800,147378388,-0.1149216815829277
147.37893400,147378934,-0.11013327538967133
147.37946300,147379463,-0.11013327538967133
147.37999000,147379990,-0.11013327538967133
147.38051000,147380510,-0.11013327538967133
147.38103700,147381037,-0.11013327538967133
147.38157900,147381579,-0.11013327538967133
147.38209500,147382095,-0.1149216815829277
147.38262500,147382625,-0.11971008777618408
147.38314700,147383147,-0.12449848651885986
147.38371700,147383717,-0.12928688526153564
147.38374000,147383740,-0.12449848651885986
147.38437400,147384374,-0.11013327538967133
147.38489500,147384895,-0.10534487664699554
147.38542000,147385420,-0.10534487664699554
147.38595300,147385953,-0.10534487664699554
147.38648500,147386485,-0.10534487664699554
147.38701200,147387012,-0.1149216815829277
147.38754200,147387542,-0.11971008777618408
147.38806100,147388061,-0.11013327538967133
147.38859100,147388591,-0.10534487664699554
147.38912300,147389123,-0.11013327538967133
147.38965100,147389651,-0.11013327538967133
147.39023900,147390239,-0.11013327538967133
147.39089400,147390894,-0.11013327538967133
147.39091500,147390915,-0.1149216815829277
147.39142400,147391424,-0.11971008777618408
147.39196500,147391965,-0.11971008777618408
147.39247500,147392475,-0.11971008777618408
147.39299400,147392994,-0.11971008777618408
147.39352600,147393526,-0.12449848651885986
147.39406800,147394068,-0.12449848651885986
147.39458300,147394583,-0.12928688526153564
147.39510700,147395107,-0.12449848651885986
147.39563200,147395632,-0.11971008777618408
147.39615700,147396157,-0.1149216815829277
147.39689800,147396898,-0.11013327538967133
147.39692100,147396921,-0.10055647045373917
147.39740000,147397400,-0.10534487664699554
147.39791500,147397915,-0.11013327538967133
147.39845300,147398453,-0.1149216815829277
147.39898300,147398983,-0.1149216815829277
147.39951800,147399518,-0.11971008777618408
147.40004000,147400040,-0.11971008777618408
147.40056200,147400562,-0.11971008777618408
147.40108600,147401086,-0.11971008777618408
147.40163100,147401631,-0.1149216815829277
147.40216400,147402164,-0.1149216815829277
147.40283500,147402835,-0.1149216815829277
147.40336200,147403362,-0.1149216815829277
147.40395000,147403950,-0.11013327538967133
147.40397200,147403972,-0.11013327538967133
147.40445300,147404453,-0.11013327538967133
147.40497900,147404979,-0.11013327538967133
147.40549900,147405499,-0.11013327538967133
147.40603000,147406030,-0.10534487664699554
147.40657600,147406576,-0.10534487664699554
147.40709000,147407090,-0.10534487664699554
147.40761600,147407616,-0.10534487664699554
147.40813800,147408138,-0.11013327538967133
147.40866400,147408664,-0.1149216815829277
147.40937400,147409374,-0.11971008777618408
147.40990000,147409900,-0.11971008777618408
147.41042100,147410421,-0.11971008777618408
147.41094900,147410949,-0.11013327538967133
147.41148200,147411482,-0.10055647045373917
147.41207800,147412078,-0.11013327538967133
147.41210100,147412101,-0.11013327538967133
147.41257700,147412577,-0.10534487664699554
147.41310100,147413101,-0.10055647045373917
147.41362600,147413626,-0.10534487664699554
147.41415700,147414157,-0.10055647045373917
147.41486800,147414868,-0.11013327538967133
147.41538900,147415389,-0.11013327538967133
147.41592100,147415921,-0.1149216815829277
147.41645700,147416457,-0.11971008777618408
147.41698100,147416981,-0.12928688526153564
147.41750600,147417506,-0.12449848651885986
147.41802800,147418028,-0.11971008777618408
147.41855300,147418553,-0.11971008777618408
147.41911200,147419112,-0.11971008777618408
147.41913500,147419135,-0.11971008777618408
147.41961300,147419613,-0.1149216815829277
147.42013700,147420137,-0.11013327538967133
147.42065900,147420659,-0.11013327538967133
147.42139600,147421396,-0.11013327538967133
147.42192600,147421926,-0.11971008777618408
147.42244900,147422449,-0.11971008777618408
147.42296900,147422969,-0.11971008777618408
147.42349600,147423496,-0.11971008777618408
147.42403000,147424030,-0.11971008777618408
147.42455400,147424554,-0.11971008777618408
147.42508200,147425082,-0.11013327538967133
147.42560500,147425605,-0.10534487664699554
147.42612900,147426129,-0.10055647045373917
147.42666200,147426662,-0.10055647045373917
147.42739300,147427393,-0.11013327538967133
147.42741600,147427416,-0.1149216815829277
147.42788700,147427887,-0.1149216815829277
147.42841500,147428415,-0.1149216815829277
147.42894300,147428943,-0.11013327538967133
147.42949100,147429491,-0.10534487664699554
147.43000800,147430008,-0.10534487664699554
147.43053200,147430532,-0.10534487664699554
147.43105800,147431058,-0.11013327538967133
147.43158900,147431589,-0.11013327538967133
147.43211600,147432116,-0.11013327538967133
147.43263900,147432639,-0.11013327538967133
147.43316600,147433166,-0.11013327538967133
147.43392000,147433920,-0.10534487664699554
147.43394200,147433942,-0.10055647045373917
147.43442600,147434426,-0.10055647045373917
147.43495000,147434950,-0.10055647045373917
147.43547100,147435471,-0.10055647045373917
147.43600300,147436003,-0.10534487664699554
147.43654600,147436546,-0.1149216815829277
147.43707400,147437074,-0.11971008777618408
147.43760100,147437601,-0.11971008777618408
147.43812300,147438123,-0.11971008777618408
147.43864800,147438648,-0.1149216815829277
147.43921400,147439214,-0.11013327538967133
147.43989400,147439894,-0.10534487664699554
147.43991700,147439917,-0.10055647045373917
147.44038700,147440387,-0.10055647045373917
147.44091400,147440914,-0.10534487664699554
147.44144500,147441445,-0.11013327538967133
147.44197600,147441976,-0.11013327538967133
147.44250200,147442502,-0.11013327538967133
147.44302300,147443023,-0.11013327538967133
147.44354800,147443548,-0.11013327538967133
147.44408400,147444084,-0.1149216815829277
147.44460800,147444608,-0.11971008777618408
147.44513300,147445133,-0.11971008777618408
147.44565600,147445656,-0.1149216815829277
147.44639700,147446397,-0.11971008777618408
147.44695600,147446956,-0.12449848651885986
147.44697800,147446978,-0.11971008777618408
147.44745300,147447453,-0.1149216815829277
147.44797300,147447973,-0.1149216815829277
147.44850500,147448505,-0.1149216815829277
147.44903900,147449039,-0.11971008777618408
147.44956700,147449567,-0.11971008777618408
147.45008900,147450089,-0.11971008777618408
147.45061700,147450617,-0.11971008777618408
147.45114400,147451144,-0.11971008777618408
147.45167600,147451676,-0.12449848651885986
147.45231200,147452312,-0.12449848651885986
147.45285900,147452859,-0.12449848651885986
147.45338600,147453386,-0.12928688526153564
147.45392400,147453924,-0.12928688526153564
147.45445600,147454456,-0.12449848651885986
147.45501600,147455016,-0.11971008777618408
147.45503800,147455038,-0.1149216815829277
147.45551000,147455510,-0.11013327538967133
147.45603300,147456033,-0.10534487664699554
147.45658400,147456584,-0.09576806426048279
147.45709900,147457099,-0.09576806426048279
147.45762500,147457625,-0.10055647045373917
147.45814600,147458146,-0.11013327538967133
147.45871600,147458716,-0.1149216815829277
147.45934600,147459346,-0.1149216815829277
147.45987800,147459878,-0.11013327538967133
147.46040000,147460400,-0.11013327538967133
147.46092400,147460924,-0.11013327538967133
147.46146000,147461460,-0.1149216815829277
147.46199000,147461990,-0.12449848651885986
147.46251700,147462517,-0.13407529890537262
147.46303900,147463039,-0.13407529890537262
147.46356500,147463565,-0.12928688526153564
147.46412300,147464123,-0.11971008777618408
147.46414600,147464146,-0.1149216815829277
147.46462700,147464627,-0.11013327538967133
147.46514800,147465148,-0.11013327538967133
147.46567200,147465672,-0.11013327538967133
147.46639600,147466396,-0.10055647045373917
147.46692700,147466927,-0.10055647045373917
147.46745500,147467455,-0.10055647045373917
147.46797400,147467974,-0.10055647045373917
147.46850600,147468506,-0.10055647045373917
147.46903800,147469038,-0.10534487664699554
147.46956400,147469564,-0.1149216815829277
147.47008800,147470088,-0.11971008777618408
147.47060800,147470608,-0.1149216815829277
147.47113400,147471134,-0.10534487664699554
147.47170100,147471701,-0.10055647045373917
147.47172400,147471724,-0.10055647045373917
147.47231000,147472310,-0.10055647045373917
147.47286300,147472863,-0.10055647045373917
147.47339300,147473393,-0.11013327538967133
147.47392600,147473926,-0.1149216815829277
147.47446000,147474460,-0.1149216815829277
147.47498400,147474984,-0.11013327538967133
147.47550900,147475509,-0.10534487664699554
147.47603300,147476033,-0.10534487664699554
147.47657700,147476577,-0.10534487664699554
147.47709400,147477094,-0.10055647045373917
147.47762200,147477622,-0.10055647045373917
147.47814100,147478141,-0.10534487664699554
147.47866500,147478665,-0.1149216815829277
147.47937300,147479373,-0.11971008777618408
147.47939900,147479399,-0.11971008777618408
147.47986900,147479869,-0.11971008777618408
147.48039100,147480391,-0.1149216815829277
147.48091500,147480915,-0.1149216815829277
147.48145000,147481450,-0.1149216815829277
147.48198100,147481981,-0.12449848651885986
147.48250500,147482505,-0.12449848651885986
147.48302600,147483026,-0.12928688526153564
147.48355600,147483556,-0.12928688526153564
147.48408800,147484088,-0.11971008777618408
147.48461300,147484613,-0.1149216815829277
147.48513700,147485137,-0.1149216815829277
147.48566400,147485664,-0.1149216815829277
147.48635400,147486354,-0.1149216815829277
147.48690300,147486903,-0.11013327538967133
147.48692800,147486928,-0.10534487664699554
147.48740600,147487406,-0.10534487664699554
147.48792600,147487926,-0.11013327538967133
147.48844900,147488449,-0.1149216815829277
147.48898000,147488980,-0.1149216815829277
147.48951000,147489510,-0.11971008777618408
147.49003300,147490033,-0.11971008777618408
147.49056200,147490562,-0.1149216815829277
147.49108200,147491082,-0.10534487664699554
147.49163000,147491630,-0.10055647045373917
147.49216000,147492160,-0.10055647045373917
147.49283100,147492831,-0.10534487664699554
147.49335700,147493357,-0.10055647045373917
147.49391600,147493916,-0.10055647045373917
147.49447700,147494477,-0.10055647045373917
147.49450000,147494500,-0.10534487664699554
147.49497400,147494974,-0.11971008777618408
147.49549400,147495494,-0.12928688526153564
147.49602200,147496022,-0.12449848651885986
147.49657200,147496572,-0.1149216815829277
147.49708400,147497084,-0.11013327538967133
147.49760700,147497607,-0.11013327538967133
147.49812800,147498128,-0.11013327538967133
147.49865200,147498652,-0.1149216815829277
147.49922200,147499222,-0.11971008777618408
147.49987000,147499870,-0.11971008777618408
147.50038900,147500389,-0.11971008777618408
147.50092400,147500924,-0.11971008777618408
147.50145400,147501454,-0.11971008777618408
147.50199900,147501999,-0.11971008777618408
147.50250900,147502509,-0.11971008777618408
147.50305600,147503056,-0.11013327538967133
147.50307800,147503078,-0.10534487664699554
147.50355600,147503556,-0.11013327538967133
147.50409000,147504090,-0.11013327538967133
147.50461800,147504618,-0.11013327538967133
147.50514200,147505142,-0.11013327538967133
147.50566500,147505665,-0.11013327538967133
147.50635800,147506358,-0.11013327538967133
147.50689200,147506892,-0.12449848651885986
147.50741900,147507419,-0.12928688526153564
147.50793600,147507936,-0.13407529890537262
147.50847200,147508472,-0.13407529890537262
147.50900100,147509001,-0.12928688526153564
147.50953100,147509531,-0.12449848651885986
147.51005600,147510056,-0.11971008777618408
147.51057900,147510579,-0.11971008777618408
147.51110700,147511107,-0.11971008777618408
147.51167500,147511675,-0.1149216815829277
147.51170000,147511700,-0.1149216815829277
147.51222100,147512221,-0.1149216815829277
147.51283200,147512832,-0.11971008777618408
147.51335600,147513356,-0.11971008777618408
147.51392800,147513928,-0.12449848651885986
147.51446400,147514464,-0.11971008777618408
147.51498900,147514989,-0.1149216815829277
147.51551400,147515514,-0.11971008777618408
147.51603700,147516037,-0.11971008777618408
147.51658000,147516580,-0.1149216815829277
147.51709600,147517096,-0.11013327538967133
147.51762000,147517620,-0.11013327538967133
147.51814200,147518142,-0.1149216815829277
147.51866900,147518669,-0.12449848651885986
147.51934400,147519344,-0.12928688526153564
147.51937400,147519374,-0.12928688526153564
147.51986900,147519869,-0.12449848651885986
147.52038500,147520385,-0.1149216815829277
147.52091600,147520916,-0.10055647045373917
147.52144300,147521443,-0.09576806426048279
147.52197400,147521974,-0.10534487664699554
147.52249700,147522497,-0.11013327538967133
147.52302200,147523022,-0.11013327538967133
147.52354900,147523549,-0.1149216815829277
147.52408700,147524087,-0.1149216815829277
147.52460500,147524605,-0.11013327538967133
147.52513200,147525132,-0.10534487664699554
147.52565600,147525656,-0.10534487664699554
147.52644400,147526444,-0.10534487664699554
147.52646900,147526469,-0.11013327538967133
147.52695000,147526950,-0.11971008777618408
147.52747400,147527474,-0.12928688526153564
147.52799400,147527994,-0.13407529890537262
147.52851900,147528519,-0.12928688526153564
147.52905000,147529050,-0.11971008777618408
147.52958000,147529580,-0.11013327538967133
147.53010300,147530103,-0.10534487664699554
147.53062400,147530624,-0.10534487664699554
147.53115000,147531150,-0.11013327538967133
147.53173600,147531736,-0.10534487664699554
147.53239700,147532397,-0.10055647045373917
147.53241900,147532419,-0.10055647045373917
147.53289000,147532890,-0.10534487664699554
147.53342300,147533423,-0.11013327538967133
147.53394900,147533949,-0.1149216815829277
147.53447900,147534479,-0.11971008777618408
147.53500500,147535005,-0.11971008777618408
147.53552900,147535529,-0.11971008777618408
147.53605900,147536059,-0.11971008777618408
147.53658600,147536586,-0.11971008777618408
147.53711400,147537114,-0.11971008777618408
147.53764100,147537641,-0.11013327538967133
147.53816200,147538162,-0.10534487664699554
147.53889600,147538896,-0.10534487664699554
147.53942500,147539425,-0.11013327538967133
147.53997500,147539975,-0.1149216815829277
147.53999600,147539996,-0.11971008777618408
147.54047100,147540471,-0.11971008777618408
147.54099500,147540995,-0.11971008777618408
147.54153000,147541530,-0.1149216815829277
147.54206000,147542060,-0.1149216815829277
147.54258600,147542586,-0.1149216815829277
147.54310700,147543107,-0.11971008777618408
147.54363200,147543632,-0.12449848651885986
147.54416700,147544167,-0.1149216815829277
147.54488900,147544889,-0.11013327538967133
147.54541100,147545411,-0.11013327538967133
147.54594400,147545944,-0.1149216815829277
147.54647700,147546477,-0.1149216815829277
147.54707100,147547071,-0.11013327538967133
147.54709600,147547096,-0.11013327538967133
147.54757900,147547579,-0.11013327538967133
147.54809800,147548098,-0.1149216815829277
147.54862600,147548626,-0.12449848651885986
147.54917300,147549173,-0.12449848651885986
147.54984100,147549841,-0.11971008777618408
147.55035900,147550359,-0.11971008777618408
147.55088300,147550883,-0.11971008777618408
147.55142400,147551424,-0.12449848651885986
147.55195500,147551955,-0.11971008777618408
147.55248300,147552483,-0.11971008777618408
147.55300000,147553000,-0.1149216815829277
147.55353600,147553536,-0.11971008777618408
147.55408100,147554081,-0.12449848651885986
147.55459900,147554599,-0.11971008777618408
147.55515000,147555150,-0.1149216815829277
147.55517200,147555172,-0.1149216815829277
147.55564800,147555648,-0.1149216815829277
147.55618700,147556187,-0.1149216815829277
147.55689100,147556891,-0.11013327538967133
147.55741200,147557412,-0.10534487664699554
147.55793400,147557934,-0.10534487664699554
147.55846000,147558460,-0.10534487664699554
147.55899400,147558994,-0.10055647045373917
147.55952700,147559527,-0.10055647045373917
147.56005000,147560050,-0.09576806426048279
147.56057000,147560570,-0.10055647045373917
147.56109800,147561098,-0.10534487664699554
147.56164200,147561642,-0.11013327538967133
147.56216900,147562169,-0.11013327538967133
147.56287900,147562879,-0.11013327538967133
147.56290000,147562900,-0.11013327538967133
147.56338100,147563381,-0.11013327538967133
147.56392500,147563925,-0.11013327538967133
147.56445800,147564458,-0.11013327538967133
147.56498400,147564984,-0.11013327538967133
147.56550700,147565507,-0.10534487664699554
147.56603200,147566032,-0.10055647045373917
147.56657500,147566575,-0.10534487664699554
147.56709100,147567091,-0.11013327538967133
147.56761800,147567618,-0.11013327538967133
147.56814000,147568140,-0.10534487664699554
147.56866300,147568663,-0.11013327538967133
147.56937600,147569376,-0.1149216815829277
147.56939900,147569399,-0.11971008777618408
147.56987000,147569870,-0.11971008777618408
147.57039300,147570393,-0.11971008777618408
147.57091500,147570915,-0.11971008777618408
147.57144800,147571448,-0.11971008777618408
147.57198700,147571987,-0.11971008777618408
147.57250400,147572504,-0.1149216815829277
147.57302500,147573025,-0.11013327538967133
147.57355100,147573551,-0.11013327538967133
147.57408300,147574083,-0.11013327538967133
147.57461000,147574610,-0.11013327538967133
147.57513300,147575133,-0.11013327538967133
147.57565500,147575655,-0.1149216815829277
147.57626100,147576261,-0.11971008777618408
147.57690100,147576901,-0.12449848651885986
147.57692600,147576926,-0.12928688526153564
147.57739700,147577397,-0.12928688526153564
147.57792100,147577921,-0.12449848651885986
147.57844600,147578446,-0.11971008777618408
147.57898000,147578980,-0.11971008777618408
147.57951000,147579510,-0.11971008777618408
147.58003300,147580033,-0.1149216815829277
147.58055500,147580555,-0.1149216815829277
147.58108100,147581081,-0.1149216815829277
147.58161900,147581619,-0.1149216815829277
147.58214700,147582147,-0.1149216815829277
147.58267000,147582670,-0.1149216815829277
147.58333800,147583338,-0.1149216815829277
147.58392100,147583921,-0.1149216815829277
147.58447800,147584478,-0.1149216815829277
147.58450100,147584501,-0.12449848651885986
147.58497600,147584976,-0.12928688526153564
147.58549600,147585496,-0.12928688526153564
147.58602200,147586022,-0.12449848651885986
147.58657600,147586576,-0.11971008777618408
147.58708200,147587082,-0.1149216815829277
147.58761000,147587610,-0.11013327538967133
147.58812900,147588129,-0.11013327538967133
147.58866100,147588661,-0.11013327538967133
147.58937000,147589370,-0.1149216815829277
147.58989800,147589898,-0.1149216815829277
147.59042600,147590426,-0.11971008777618408
147.59095000,147590950,-0.12449848651885986
147.59148000,147591480,-0.12928688526153564
147.59207000,147592070,-0.12928688526153564
147.59209200,147592092,-0.12928688526153564
147.59256900,147592569,-0.12449848651885986
147.59308900,147593089,-0.11971008777618408
147.59361700,147593617,-0.11971008777618408
147.59415700,147594157,-0.11971008777618408
147.59477800,147594778,-0.11971008777618408
147.59535900,147595359,-0.1149216815829277
147.59588800,147595888,-0.11013327538967133
147.59642600,147596426,-0.11013327538967133
147.59696600,147596966,-0.11013327538967133
147.59748700,147597487,-0.1149216815829277
147.59801200,147598012,-0.1149216815829277
147.59853700,147598537,-0.11013327538967133
147.59908100,147599081,-0.10055647045373917
147.59960100,147599601,-0.090979665517807
147.60015000,147600150,-0.10055647045373917
147.60017300,147600173,-0.11013327538967133
147.60064500,147600645,-0.11971008777618408
147.60117100,147601171,-0.1149216815829277
147.60184200,147601842,-0.1149216815829277
147.60236900,147602369,-0.10534487664699554
147.60289000,147602890,-0.10055647045373917
147.60341500,147603415,-0.10055647045373917
147.60394700,147603947,-0.11013327538967133
147.60447700,147604477,-0.11013327538967133
147.60500400,147605004,-0.11013327538967133
147.60552400,147605524,-0.10534487664699554
147.60605700,147606057,-0.10055647045373917
147.60658700,147606587,-0.10055647045373917
147.60711800,147607118,-0.10534487664699554
147.60764400,147607644,-0.11013327538967133
147.60816300,147608163,-0.11013327538967133
147.60894500,147608945,-0.10534487664699554
147.60897000,147608970,-0.10055647045373917
147.60945500,147609455,-0.10055647045373917
147.60997700,147609977,-0.10534487664699554
147.61050000,147610500,-0.10534487664699554
147.61102600,147611026,-0.11013327538967133
147.61157100,147611571,-0.1149216815829277
147.61208900,147612089,-0.11971008777618408
147.61261100,147612611,-0.11971008777618408
147.61313300,147613133,-0.11971008777618408
147.61365800,147613658,-0.11013327538967133
147.61437300,147614373,-0.10534487664699554
147.61440000,147614400,-0.10534487664699554
147.61488200,147614882,-0.10055647045373917
147.61540100,147615401,-0.10055647045373917
147.61592300,147615923,-0.10055647045373917
147.61645600,147616456,-0.10534487664699554
147.61698700,147616987,-0.1149216815829277
147.61751100,147617511,-0.11971008777618408
147.61803400,147618034,-0.12449848651885986
147.61855800,147618558,-0.12449848651885986
147.61909300,147619093,-0.12928688526153564
147.61962100,147619621,-0.12928688526153564
147.62014600,147620146,-0.13407529890537262
147.62066700,147620667,-0.1388636976480484
147.62144700,147621447,-0.13407529890537262
147.62147100,147621471,-0.12449848651885986
147.62195300,147621953,-0.11971008777618408
147.62248200,147622482,-0.1149216815829277
147.62300000,147623000,-0.1149216815829277
147.62352700,147623527,-0.11971008777618408
147.62406900,147624069,-0.1149216815829277
147.62458600,147624586,-0.11013327538967133
147.62511800,147625118,-0.10534487664699554
147.62564100,147625641,-0.11013327538967133
147.62616700,147626167,-0.1149216815829277
147.62687800,147626878,-0.11971008777618408
147.62739800,147627398,-0.11971008777618408
147.62792100,147627921,-0.11971008777618408
147.62847800,147628478,-0.11013327538967133
147.62849900,147628499,-0.10055647045373917
147.62898100,147628981,-0.10534487664699554
147.62951800,147629518,-0.10534487664699554
147.63004200,147630042,-0.10534487664699554
147.63056400,147630564,-0.11013327538967133
147.63109100,147631091,-0.11013327538967133
147.63162800,147631628,-0.10534487664699554
147.63215300,147632153,-0.11013327538967133
147.63282600,147632826,-0.11971008777618408
147.63335800,147633358,-0.11971008777618408
147.63391600,147633916,-0.11013327538967133
147.63444700,147634447,-0.10534487664699554
147.63497100,147634971,-0.10055647045373917
147.63549100,147635491,-0.10055647045373917
147.63601600,147636016,-0.10055647045373917
147.63657400,147636574,-0.10055647045373917
147.63659600,147636596,-0.10055647045373917
147.63708100,147637081,-0.11013327538967133
147.63760300,147637603,-0.12449848651885986
147.63813000,147638130,-0.13407529890537262
147.63865700,147638657,-0.1388636976480484
147.63937500,147639375,-0.13407529890537262
147.63990100,147639901,-0.12449848651885986
147.64042200,147640422,-0.1149216815829277
147.64095200,147640952,-0.10534487664699554
147.64148600,147641486,-0.10055647045373917
147.64201200,147642012,-0.10534487664699554
147.64253800,147642538,-0.1149216815829277
147.64305900,147643059,-0.11971008777618408
147.64358500,147643585,-0.12449848651885986
147.64415300,147644153,-0.12449848651885986
147.64417800,147644178,-0.12449848651885986
147.64465100,147644651,-0.1149216815829277
147.64525600,147645256,-0.11013327538967133
147.64583700,147645837,-0.1149216815829277
147.64641500,147646415,-0.11971008777618408
147.64695200,147646952,-0.11971008777618408
147.64747800,147647478,-0.11971008777618408
147.64799800,147647998,-0.11971008777618408
147.64852500,147648525,-0.11971008777618408
147.64907000,147649070,-0.11971008777618408
147.64958400,147649584,-0.1149216815829277
147.65011400,147650114,-0.1149216815829277
147.65063500,147650635,-0.11013327538967133
147.65116500,147651165,-0.11013327538967133
147.65187200,147651872,-0.1149216815829277
147.65189800,147651898,-0.1149216815829277
147.65237300,147652373,-0.1149216815829277
147.65289400,147652894,-0.11013327538967133
147.65343600,147653436,-0.11013327538967133
147.65396500,147653965,-0.11013327538967133
147.65451500,147654515,-0.1149216815829277
147.65504200,147655042,-0.1149216815829277
147.65556400,147655564,-0.11971008777618408
147.65609100,147656091,-0.1149216815829277
147.65663600,147656636,-0.11971008777618408
147.65716300,147657163,-0.11971008777618408
147.65785500,147657855,-0.11971008777618408
147.65787600,147657876,-0.11971008777618408
147.65836800,147658368,-0.11971008777618408
147.65891600,147658916,-0.1149216815829277
147.65944700,147659447,-0.11013327538967133
147.65997400,147659974,-0.10534487664699554
147.66049700,147660497,-0.11013327538967133
147.66102000,147661020,-0.1149216815829277
147.66155200,147661552,-0.11971008777618408
147.66208200,147662082,-0.12449848651885986
147.66260600,147662606,-0.12928688526153564
147.66312700,147663127,-0.11971008777618408
147.66365300,147663653,-0.11013327538967133
147.66431600,147664316,-0.10534487664699554
147.66490200,147664902,-0.11013327538967133
147.66492400,147664924,-0.1149216815829277
147.66539800,147665398,-0.1149216815829277
147.66592900,147665929,-0.11013327538967133
147.66646100,147666461,-0.10534487664699554
147.66698900,147666989,-0.10055647045373917
147.66751500,147667515,-0.10055647045373917
147.66803600,147668036,-0.10534487664699554
147.66856400,147668564,-0.11013327538967133
147.66909500,147669095,-0.10534487664699554
147.66962200,147669622,-0.10055647045373917
147.67014400,147670144,-0.10534487664699554
147.67066700,147670667,-0.10534487664699554
147.67139800,147671398,-0.10534487664699554
147.67195300,147671953,-0.10534487664699554
147.67197500,147671975,-0.10055647045373917
147.67245200,147672452,-0.10055647045373917
147.67297300,147672973,-0.10534487664699554
147.67349800,147673498,-0.11013327538967133
147.67403000,147674030,-0.11013327538967133
147.67455800,147674558,-0.11013327538967133
147.67508400,147675084,-0.11013327538967133
147.67560800,147675608,-0.1149216815829277
147.67613100,147676131,-0.1149216815829277
147.67666800,147676668,-0.1149216815829277
147.67734000,147677340,-0.1149216815829277
147.67786100,147677861,-0.11013327538967133
147.67839000,147678390,-0.11013327538967133
147.67892400,147678924,-0.10534487664699554
147.67946500,147679465,-0.11013327538967133
147.67998700,147679987,-0.1149216815829277
147.68051100,147680511,-0.1149216815829277
147.68106300,147681063,-0.1149216815829277
147.68108400,147681084,-0.11013327538967133
147.68156900,147681569,-0.10055647045373917
147.68209800,147682098,-0.10055647045373917
147.68262400,147682624,-0.10055647045373917
147.68314400,147683144,-0.10534487664699554
147.68367100,147683671,-0.10534487664699554
147.68431600,147684316,-0.11013327538967133
147.68487100,147684871,-0.11971008777618408
147.68539400,147685394,-0.12449848651885986
147.68592100,147685921,-0.12449848651885986
147.68644900,147686449,-0.12449848651885986
147.68698200,147686982,-0.11971008777618408
147.68751000,147687510,-0.11971008777618408
147.68802900,147688029,-0.12449848651885986
147.68855700,147688557,-0.12449848651885986
147.68908900,147689089,-0.11971008777618408
147.68961500,147689615,-0.1149216815829277
147.69016600,147690166,-0.1149216815829277
147.69018800,147690188,-0.11971008777618408
147.69066900,147690669,-0.11971008777618408
147.69139700,147691397,-0.12449848651885986
147.69192100,147691921,-0.12928688526153564
147.69244800,147692448,-0.12928688526153564
147.69296900,147692969,-0.11971008777618408
147.69349400,147693494,-0.1149216815829277
147.69402700,147694027,-0.1149216815829277
147.69455500,147694555,-0.11013327538967133
147.69508000,147695080,-0.11013327538967133
147.69560500,147695605,-0.10534487664699554
147.69613400,147696134,-0.11013327538967133
147.69667600,147696676,-0.11013327538967133
147.69733900,147697339,-0.11013327538967133
147.69736100,147697361,-0.11013327538967133
147.69786400,147697864,-0.11013327538967133
147.69839900,147698399,-0.11013327538967133
147.69892600,147698926,-0.11013327538967133
147.69945600,147699456,-0.11013327538967133
147.69998500,147699985,-0.11013327538967133
147.70050700,147700507,-0.11013327538967133
147.70103200,147701032,-0.10534487664699554
147.70157200,147701572,-0.11013327538967133
147.70209000,147702090,-0.1149216815829277
147.70261500,147702615,-0.11971008777618408
147.70313600,147703136,-0.11971008777618408
147.70366200,147703662,-0.11971008777618408
147.70437000,147704370,-0.1149216815829277
147.70439500,147704395,-0.11013327538967133
147.70486900,147704869,-0.11013327538967133
147.70539100,147705391,-0.1149216815829277
147.70591600,147705916,-0.11971008777618408
147.70644500,147706445,-0.11971008777618408
147.70700700,147707007,-0.1149216815829277
147.70753700,147707537,-0.11013327538967133
147.70806000,147708060,-0.11013327538967133
147.70858600,147708586,-0.11013327538967133
147.70912600,147709126,-0.10534487664699554
147.70965200,147709652,-0.10534487664699554
147.71022900,147710229,-0.1149216815829277
147.71088500,147710885,-0.12449848651885986
147.71090700,147710907,-0.12449848651885986
147.71141900,147711419,-0.12449848651885986
147.71195200,147711952,-0.1149216815829277
147.71247900,147712479,-0.10534487664699554
147.71299700,147712997,-0.10055647045373917
147.71352400,147713524,-0.09576806426048279
147.71405500,147714055,-0.090979665517807
147.71458400,147714584,-0.08619125932455063
147.71510900,147715109,-0.090979665517807
147.71563300,147715633,-0.10055647045373917
147.71615700,147716157,-0.11013327538967133
147.71682000,147716820,-0.1149216815829277
147.71738000,147717380,-0.1149216815829277
147.71790300,147717903,-0.1149216815829277
147.71843200,147718432,-0.11013327538967133
147.71898600,147718986,-0.1149216815829277
147.71901100,147719011,-0.1149216815829277
147.71948600,147719486,-0.11013327538967133
147.72001200,147720012,-0.11013327538967133
147.72053400,147720534,-0.11013327538967133
147.72105700,147721057,-0.11013327538967133
147.72158900,147721589,-0.10534487664699554
147.72211900,147722119,-0.10534487664699554
147.72263900,147722639,-0.10534487664699554
147.72316600,147723166,-0.11013327538967133
147.72391800,147723918,-0.11013327538967133
147.72445300,147724453,-0.11013327538967133
147.72498600,147724986,-0.11013327538967133
147.72550900,147725509,-0.1149216815829277
147.72606000,147726060,-0.11971008777618408
147.72608100,147726081,-0.11971008777618408
147.72658100,147726581,-0.12449848651885986
147.72709500,147727095,-0.11971008777618408
147.72762400,147727624,-0.11013327538967133
147.72814100,147728141,-0.11013327538967133
147.72866900,147728669,-0.10534487664699554
147.72931700,147729317,-0.11013327538967133
147.72986600,147729866,-0.11013327538967133
147.73038600,147730386,-0.11013327538967133
147.73091300,147730913,-0.11013327538967133
147.73144400,147731444,-0.10534487664699554
147.73197700,147731977,-0.10534487664699554
147.73250200,147732502,-0.10534487664699554
147.73302700,147733027,-0.11013327538967133
147.73356300,147733563,-0.1149216815829277
147.73409200,147734092,-0.11971008777618408
147.73461900,147734619,-0.11971008777618408
147.73517000,147735170,-0.12449848651885986
147.73519300,147735193,-0.11971008777618408
147.73566600,147735666,-0.11971008777618408
147.73642800,147736428,-0.11971008777618408
147.73696200,147736962,-0.11971008777618408
147.73748800,147737488,-0.12449848651885986
147.73801100,147738011,-0.12449848651885986
147.73853700,147738537,-0.11971008777618408
147.73907700,147739077,-0.1149216815829277
147.73959400,147739594,-0.11013327538967133
147.74011900,147740119,-0.11013327538967133
147.74064100,147740641,-0.1149216815829277
147.74116900,147741169,-0.11971008777618408
147.74187700,147741877,-0.1149216815829277
147.74193000,147741930,-0.11013327538967133
147.74237000,147742370,-0.11013327538967133
147.74289000,147742890,-0.11013327538967133
147.74342000,147743420,-0.11013327538967133
147.74395400,147743954,-0.11013327538967133
147.74448400,147744484,-0.10534487664699554
147.74500600,147745006,-0.10055647045373917
147.74553000,147745530,-0.10055647045373917
147.74605400,147746054,-0.10534487664699554
147.74658700,147746587,-0.1149216815829277
147.74711300,147747113,-0.11971008777618408
147.74763900,147747639,-0.12928688526153564
147.74816300,147748163,-0.13407529890537262
147.74891800,147748918,-0.12928688526153564
147.74894100,147748941,-0.12449848651885986
147.74938000,147749380,-0.11971008777618408
147.74990400,147749904,-0.11971008777618408
147.75042400,147750424,-0.11971008777618408
147.75095100,147750951,-0.12449848651885986
147.75148000,147751480,-0.11971008777618408
147.75201400,147752014,-0.1149216815829277
147.75253800,147752538,-0.1149216815829277
147.75306100,147753061,-0.11013327538967133
147.75358600,147753586,-0.11013327538967133
147.75413200,147754132,-0.11013327538967133
147.75466000,147754660,-0.11013327538967133
147.75540200,147755402,-0.11013327538967133
147.75542500,147755425,-0.11013327538967133
147.75590100,147755901,-0.11013327538967133
147.75643300,147756433,-0.10534487664699554
147.75696100,147756961,-0.1149216815829277
147.75748900,147757489,-0.11013327538967133
147.75801200,147758012,-0.10534487664699554
147.75853700,147758537,-0.10055647045373917
147.75908500,147759085,-0.10055647045373917
147.75959700,147759597,-0.10055647045373917
147.76012400,147760124,-0.11013327538967133
147.76064600,147760646,-0.1149216815829277
147.76125500,147761255,-0.11971008777618408
147.76187300,147761873,-0.11971008777618408
147.76239500,147762395,-0.1149216815829277
147.76291500,147762915,-0.1149216815829277
147.76344300,147763443,-0.1149216815829277
147.76400000,147764000,-0.11971008777618408
147.76402300,147764023,-0.11971008777618408
147.76450100,147764501,-0.11971008777618408
147.76502700,147765027,-0.1149216815829277
147.76554900,147765549,-0.10534487664699554
147.76607400,147766074,-0.10534487664699554
147.76661800,147766618,-0.11013327538967133
147.76714400,147767144,-0.1149216815829277
147.76766700,147767667,-0.1149216815829277
147.76836900,147768369,-0.1149216815829277
147.76891800,147768918,-0.1149216815829277
147.76944800,147769448,-0.11013327538967133
147.76997500,147769975,-0.10055647045373917
147.77050100,147770501,-0.10055647045373917
147.77102700,147771027,-0.10055647045373917
147.77159400,147771594,-0.10534487664699554
147.77161600,147771616,-0.11013327538967133
147.77208600,147772086,-0.1149216815829277
147.77261200,147772612,-0.1149216815829277
147.77313200,147773132,-0.1149216815829277
147.77365900,147773659,-0.11013327538967133
147.77436900,147774369,-0.10055647045373917
147.77489600,147774896,-0.10055647045373917
147.77541600,147775416,-0.1149216815829277
147.77594400,147775944,-0.12928688526153564
147.77647400,147776474,-0.13407529890537262
147.77700400,147777004,-0.12928688526153564
147.77754000,147777540,-0.12928688526153564
147.77806500,147778065,-0.12449848651885986
147.77858900,147778589,-0.11971008777618408
147.77916000,147779160,-0.1149216815829277
147.77918200,147779182,-0.11971008777618408
147.77966200,147779662,-0.11971008777618408
147.78032800,147780328,-0.12449848651885986
147.78086300,147780863,-0.12928688526153564
147.78141800,147781418,-0.12928688526153564
147.78195000,147781950,-0.12928688526153564
147.78247900,147782479,-0.12449848651885986
147.78299700,147782997,-0.12449848651885986
147.78353100,147783531,-0.11971008777618408
147.78407400,147784074,-0.1149216815829277
147.78459100,147784591,-0.1149216815829277
147.78511400,147785114,-0.11013327538967133
147.78563800,147785638,-0.1149216815829277
147.78616400,147786164,-0.1149216815829277
147.78690300,147786903,-0.1149216815829277
147.78692500,147786925,-0.11971008777618408
147.78740100,147787401,-0.11971008777618408
147.78792700,147787927,-0.11971008777618408
147.78844700,147788447,-0.12449848651885986
147.78897900,147788979,-0.11971008777618408
147.78950700,147789507,-0.11971008777618408
147.79003400,147790034,-0.1149216815829277
147.79056700,147790567,-0.11971008777618408
147.79109000,147791090,-0.11971008777618408
147.79163700,147791637,-0.11971008777618408
147.79216100,147792161,-0.1149216815829277
147.79288300,147792883,-0.10534487664699554
147.79290400,147792904,-0.10055647045373917
147.79338700,147793387,-0.10534487664699554
147.79392800,147793928,-0.11013327538967133
147.79450000,147794500,-0.1149216815829277
147.79498300,147794983,-0.1149216815829277
147.79551000,147795510,-0.11013327538967133
147.79603500,147796035,-0.1149216815829277
147.79658000,147796580,-0.12449848651885986
147.79710200,147797102,-0.12449848651885986
147.79762600,147797626,-0.12449848651885986
147.79814700,147798147,-0.11971008777618408
147.79873200,147798732,-0.1149216815829277
147.79941200,147799412,-0.11013327538967133
147.79943400,147799434,-0.10534487664699554
147.79990800,147799908,-0.11013327538967133
147.80043100,147800431,-0.1149216815829277
147.80095600,147800956,-0.11013327538967133
147.80148800,147801488,-0.11013327538967133
147.80202000,147802020,-0.10534487664699554
147.80254600,147802546,-0.10055647045373917
147.80306600,147803066,-0.09576806426048279
147.80359600,147803596,-0.10055647045373917
147.80413700,147804137,-0.11013327538967133
147.80466500,147804665,-0.11013327538967133
147.80536800,147805368,-0.1149216815829277
147.80589700,147805897,-0.11971008777618408
147.80642700,147806427,-0.11971008777618408
147.80698200,147806982,-0.1149216815829277
147.80700500,147807005,-0.1149216815829277
147.80748000,147807480,-0.1149216815829277
147.80800400,147808004,-0.11971008777618408
147.80853500,147808535,-0.12449848651885986
147.80907600,147809076,-0.12928688526153564
147.80959700,147809597,-0.12928688526153564
147.81012000,147810120,-0.13407529890537262
147.81064200,147810642,-0.12449848651885986
147.81116700,147811167,-0.11013327538967133
147.81184300,147811843,-0.10055647045373917
147.81236900,147812369,-0.10055647045373917
147.81289100,147812891,-0.11013327538967133
147.81341500,147813415,-0.11013327538967133
147.81394700,147813947,-0.11013327538967133
147.81447800,147814478,-0.11013327538967133
147.81500400,147815004,-0.11013327538967133
147.81552800,147815528,-0.1149216815829277
147.81608000,147816080,-0.1149216815829277
147.81610100,147816101,-0.1149216815829277
147.81660100,147816601,-0.1149216815829277
147.81711300,147817113,-0.11971008777618408
147.81764100,147817641,-0.11971008777618408
147.81816000,147818160,-0.11971008777618408
147.81892100,147818921,-0.11971008777618408
147.81945500,147819455,-0.1149216815829277
147.81997900,147819979,-0.1149216815829277
147.82050200,147820502,-0.1149216815829277
147.82102500,147821025,-0.11971008777618408
147.82157200,147821572,-0.11971008777618408
147.82208500,147822085,-0.11971008777618408
147.82261200,147822612,-0.11971008777618408
147.82316000,147823160,-0.11971008777618408
147.82318100,147823181,-0.12449848651885986
147.82365800,147823658,-0.11971008777618408
147.82437400,147824374,-0.11971008777618408
147.82489900,147824899,-0.11971008777618408
147.82541900,147825419,-0.1149216815829277
147.82595300,147825953,-0.11013327538967133
147.82648200,147826482,-0.11013327538967133
147.82702000,147827020,-0.1149216815829277
147.82754400,147827544,-0.1149216815829277
147.82806800,147828068,-0.11013327538967133
147.82859400,147828594,-0.10055647045373917
147.82913200,147829132,-0.10534487664699554
147.82966200,147829662,-0.11013327538967133
147.83035500,147830355,-0.1149216815829277
147.83037800,147830378,-0.1149216815829277
147.83086300,147830863,-0.12449848651885986
147.83141700,147831417,-0.12928688526153564
147.83194500,147831945,-0.12928688526153564
147.83247200,147832472,-0.1149216815829277
147.83299100,147832991,-0.10534487664699554
147.83351800,147833518,-0.10534487664699554
147.83405000,147834050,-0.10534487664699554
147.83457800,147834578,-0.11013327538967133
147.83510100,147835101,-0.10534487664699554
147.83562500,147835625,-0.10534487664699554
147.83615100,147836151,-0.11013327538967133
147.83680800,147836808,-0.1149216815829277
147.83683100,147836831,-0.1149216815829277
147.83737400,147837374,-0.1149216815829277
147.83789600,147837896,-0.12449848651885986
147.83842100,147838421,-0.12449848651885986
147.83895200,147838952,-0.12449848651885986
147.83950100,147839501,-0.11971008777618408
147.84000500,147840005,-0.11971008777618408
147.84052500,147840525,-0.12449848651885986
147.84105400,147841054,-0.12449848651885986
147.84158500,147841585,-0.12449848651885986
147.84211500,147842115,-0.1149216815829277
147.84263900,147842639,-0.11013327538967133
147.84316200,147843162,-0.11013327538967133
147.84386700,147843867,-0.11013327538967133
147.84440700,147844407,-0.1149216815829277
147.84443000,147844430,-0.11971008777618408
147.84489900,147844899,-0.1149216815829277
147.84542100,147845421,-0.11013327538967133
147.84595100,147845951,-0.11013327538967133
147.84648500,147846485,-0.11013327538967133
147.84702200,147847022,-0.11013327538967133
147.84754600,147847546,-0.1149216815829277
147.84806500,147848065,-0.11013327538967133
147.84859300,147848593,-0.11013327538967133
147.84913100,147849131,-0.10534487664699554
147.84965600,147849656,-0.10534487664699554
147.85025900,147850259,-0.10534487664699554
147.85087100,147850871,-0.10534487664699554
147.85141500,147851415,-0.10534487664699554
147.85197400,147851974,-0.10534487664699554
147.85199900,147851999,-0.11013327538967133
147.85247100,147852471,-0.11971008777618408
147.85299600,147852996,-0.12449848651885986
147.85352100,147853521,-0.12449848651885986
147.85406600,147854066,-0.11971008777618408
147.85458200,147854582,-0.11971008777618408
147.85510500,147855105,-0.11971008777618408
147.85563000,147855630,-0.12449848651885986
147.85615200,147856152,-0.13407529890537262
147.85676600,147856766,-0.1388636976480484
147.85737600,147857376,-0.13407529890537262
147.85789600,147857896,-0.12928688526153564
147.85842900,147858429,-0.12928688526153564
147.85896100,147858961,-0.12449848651885986
147.85950200,147859502,-0.12449848651885986
147.86002400,147860024,-0.12449848651885986
147.86057200,147860572,-0.11971008777618408
147.86059300,147860593,-0.11971008777618408
147.86107100,147861071,-0.1149216815829277
147.86162200,147861622,-0.1149216815829277
147.86212900,147862129,-0.1149216815829277
147.86266200,147862662,-0.1149216815829277
147.86332800,147863328,-0.12449848651885986
147.86391500,147863915,-0.12449848651885986
147.86446500,147864465,-0.11971008777618408
147.86497600,147864976,-0.11971008777618408
147.86549900,147865499,-0.11971008777618408
147.86602600,147866026,-0.1149216815829277
147.86656600,147866566,-0.10534487664699554
147.86708300,147867083,-0.09576806426048279
147.86760800,147867608,-0.090979665517807
147.86815500,147868155,-0.09576806426048279
147.86817600,147868176,-0.10534487664699554
147.86865400,147868654,-0.11013327538967133
147.86937500,147869375,-0.11013327538967133
147.86990000,147869900,-0.11013327538967133
147.87042100,147870421,-0.10055647045373917
147.87095100,147870951,-0.10055647045373917
147.87148100,147871481,-0.11013327538967133
147.87202000,147872020,-0.11013327538967133
147.87254400,147872544,-0.11013327538967133
147.87306600,147873066,-0.10534487664699554
147.87359200,147873592,-0.11013327538967133
147.87413100,147874131,-0.10534487664699554
147.87465900,147874659,-0.11013327538967133
147.87538300,147875383,-0.1149216815829277
147.87540400,147875404,-0.1149216815829277
147.87588500,147875885,-0.1149216815829277
147.87642900,147876429,-0.10534487664699554
147.87695600,147876956,-0.10055647045373917
147.87748000,147877480,-0.10534487664699554
147.87800200,147878002,-0.11013327538967133
147.87853700,147878537,-0.11013327538967133
147.87907600,147879076,-0.10534487664699554
147.87959200,147879592,-0.11013327538967133
147.88011700,147880117,-0.11013327538967133
147.88064100,147880641,-0.1149216815829277
147.88117300,147881173,-0.1149216815829277
147.88184200,147881842,-0.1149216815829277
147.88186900,147881869,-0.11013327538967133
147.88238200,147882382,-0.11013327538967133
147.88290200,147882902,-0.1149216815829277
147.88343100,147883431,-0.1149216815829277
147.88396000,147883960,-0.11013327538967133
147.88453600,147884536,-0.1149216815829277
147.88505900,147885059,-0.1149216815829277
147.88558200,147885582,-0.1149216815829277
147.88610800,147886108,-0.1149216815829277
147.88664400,147886644,-0.11013327538967133
147.88717300,147887173,-0.11013327538967133
147.88784300,147887843,-0.11013327538967133
147.88839500,147888395,-0.11013327538967133
147.88841600,147888416,-0.11013327538967133
147.88891700,147888917,-0.11013327538967133
147.88944300,147889443,-0.11013327538967133
147.88997400,147889974,-0.1149216815829277
147.89050400,147890504,-0.12449848651885986
147.89102600,147891026,-0.13407529890537262
147.89157400,147891574,-0.13407529890537262
147.89208700,147892087,-0.12928688526153564
147.89261400,147892614,-0.11971008777618408
147.89313300,147893133,-0.11971008777618408
147.89366000,147893660,-0.11971008777618408
147.89431500,147894315,-0.11971008777618408
147.89487700,147894877,-0.11971008777618408
147.89539600,147895396,-0.11971008777618408
147.89592100,147895921,-0.12449848651885986
147.89647700,147896477,-0.12449848651885986
147.89650000,147896500,-0.11971008777618408
147.89698200,147896982,-0.1149216815829277
147.89750800,147897508,-0.11013327538967133
147.89802600,147898026,-0.10534487664699554
147.89855200,147898552,-0.1149216815829277
147.89908900,147899089,-0.11971008777618408
147.89961000,147899610,-0.12449848651885986
147.90013500,147900135,-0.12449848651885986
147.90065700,147900657,-0.11971008777618408
147.90139700,147901397,-0.1149216815829277
147.90193000,147901930,-0.11013327538967133
147.90245400,147902454,-0.11013327538967133
147.90297400,147902974,-0.11013327538967133
147.90350300,147903503,-0.11013327538967133
147.90407500,147904075,-0.1149216815829277
147.90409700,147904097,-0.11013327538967133
147.90456500,147904565,-0.11013327538967133
147.90509100,147905091,-0.11013327538967133
147.90561500,147905615,-0.1149216815829277
